{
  "generator_version": "2.0",
  "sdtmig_version": "3.4",
  "generated_at": "2026-07-07T05:20:25.042917+00:00",
  "study_id": "MS200095-0022-VISION",
  "protocol_name": "oncology_nsclc",
  "seed": 1,
  "subjects": {
    "total_generated": 20,
    "enrolled": 18,
    "screen_failures": 2,
    "completed": 7,
    "deaths": 0,
    "total_adverse_events": 462
  },
  "arms": [
    {
      "armcd": "COHORT_A",
      "arm": "Cohort A \u2014 Tepotinib 500 mg QD (MET exon 14 skipping)",
      "type": "",
      "n_randomized": 6,
      "n_completed": 2,
      "n_discontinued": 4,
      "discontinuation_reasons": {
        "ADVERSE EVENT": 4
      },
      "mean_exposure_days": 179.3,
      "total_aes": 115,
      "ae_rate_per_subject": 19.2,
      "subjects_with_ae": 6,
      "serious_ae_count": 15
    },
    {
      "armcd": "COHORT_B",
      "arm": "Cohort B \u2014 Tepotinib 500 mg QD (MET amplification)",
      "type": "",
      "n_randomized": 10,
      "n_completed": 4,
      "n_discontinued": 6,
      "discontinuation_reasons": {
        "ADVERSE EVENT": 5,
        "PROGRESSIVE DISEASE": 1
      },
      "mean_exposure_days": 264.1,
      "total_aes": 322,
      "ae_rate_per_subject": 32.2,
      "subjects_with_ae": 10,
      "serious_ae_count": 77
    },
    {
      "armcd": "COHORT_C",
      "arm": "Cohort C \u2014 Tepotinib 500 mg QD (MET exon 14, confirmatory)",
      "type": "",
      "n_randomized": 2,
      "n_completed": 1,
      "n_discontinued": 1,
      "discontinuation_reasons": {
        "PROTOCOL VIOLATION": 1
      },
      "mean_exposure_days": 216.5,
      "total_aes": 25,
      "ae_rate_per_subject": 12.5,
      "subjects_with_ae": 2,
      "serious_ae_count": 4
    }
  ],
  "sites": [
    {
      "siteid": "CHN_SITE01",
      "n_subjects": 2,
      "n_enrolled": 2,
      "n_screen_failures": 0,
      "country": "CHN",
      "investigator": "Dr. Investigator CHN_SITE01",
      "n_completed": 1,
      "n_deaths": 0
    },
    {
      "siteid": "DEU_SITE01",
      "n_subjects": 2,
      "n_enrolled": 1,
      "n_screen_failures": 1,
      "country": "DEU",
      "investigator": "Dr. Investigator DEU_SITE01",
      "n_completed": 1,
      "n_deaths": 0
    },
    {
      "siteid": "FRA_SITE01",
      "n_subjects": 2,
      "n_enrolled": 2,
      "n_screen_failures": 0,
      "country": "FRA",
      "investigator": "Dr. Investigator FRA_SITE01",
      "n_completed": 0,
      "n_deaths": 0
    },
    {
      "siteid": "GBR_SITE01",
      "n_subjects": 1,
      "n_enrolled": 1,
      "n_screen_failures": 0,
      "country": "GBR",
      "investigator": "Dr. Investigator GBR_SITE01",
      "n_completed": 1,
      "n_deaths": 0
    },
    {
      "siteid": "ITA_SITE01",
      "n_subjects": 2,
      "n_enrolled": 2,
      "n_screen_failures": 0,
      "country": "ITA",
      "investigator": "Dr. Investigator ITA_SITE01",
      "n_completed": 2,
      "n_deaths": 0
    },
    {
      "siteid": "JPN_SITE01",
      "n_subjects": 1,
      "n_enrolled": 1,
      "n_screen_failures": 0,
      "country": "JPN",
      "investigator": "Dr. Investigator JPN_SITE01",
      "n_completed": 0,
      "n_deaths": 0
    },
    {
      "siteid": "JPN_SITE02",
      "n_subjects": 6,
      "n_enrolled": 5,
      "n_screen_failures": 1,
      "country": "JPN",
      "investigator": "Dr. Investigator JPN_SITE02",
      "n_completed": 2,
      "n_deaths": 0
    },
    {
      "siteid": "USA_SITE01",
      "n_subjects": 2,
      "n_enrolled": 2,
      "n_screen_failures": 0,
      "country": "USA",
      "investigator": "Dr. Investigator USA_SITE01",
      "n_completed": 0,
      "n_deaths": 0
    },
    {
      "siteid": "USA_SITE02",
      "n_subjects": 2,
      "n_enrolled": 2,
      "n_screen_failures": 0,
      "country": "USA",
      "investigator": "Dr. Investigator USA_SITE02",
      "n_completed": 0,
      "n_deaths": 0
    }
  ],
  "domains": {
    "AE": {
      "record_count": 462,
      "variable_count": 36,
      "file": "ae.csv",
      "variables": [
        "STUDYID",
        "DOMAIN",
        "USUBJID",
        "AESEQ",
        "AELNKID",
        "AETERM",
        "AELLT",
        "AELLTCD",
        "AEDECOD",
        "AEPTCD",
        "AEHLT",
        "AEHLTCD",
        "AEHLGT",
        "AEHLGTCD",
        "AEBODSYS",
        "AEBDSYCD",
        "AESOC",
        "AESOCCD",
        "AESEV",
        "AESER",
        "AEACN",
        "AEREL",
        "AEOUT",
        "AESCONG",
        "AESDISAB",
        "AESDTH",
        "AESHOSP",
        "AESLIFE",
        "AESMIE",
        "AECONTRT",
        "EPOCH",
        "AESTDTC",
        "AEENDTC",
        "AESTDY",
        "AEENDY",
        "AEENRF"
      ]
    },
    "CM": {
      "record_count": 249,
      "variable_count": 17,
      "file": "cm.csv",
      "variables": [
        "STUDYID",
        "DOMAIN",
        "USUBJID",
        "CMSEQ",
        "CMTRT",
        "CMDECOD",
        "CMCAT",
        "CMINDC",
        "CMDOSE",
        "CMDOSU",
        "CMDOSFRQ",
        "CMROUTE",
        "EPOCH",
        "CMSTDTC",
        "CMENDTC",
        "CMSTDY",
        "CMENDY"
      ]
    },
    "CO": {
      "record_count": 4,
      "variable_count": 11,
      "file": "co.csv",
      "variables": [
        "STUDYID",
        "DOMAIN",
        "RDOMAIN",
        "USUBJID",
        "COSEQ",
        "IDVAR",
        "IDVARVAL",
        "COREF",
        "COVAL",
        "CODTC",
        "CODY"
      ]
    },
    "DA": {
      "record_count": 12504,
      "variable_count": 16,
      "file": "da.csv",
      "variables": [
        "STUDYID",
        "DOMAIN",
        "USUBJID",
        "DASEQ",
        "DATESTCD",
        "DATEST",
        "DAORRES",
        "DAORRESU",
        "DASTRESC",
        "DASTRESN",
        "DASTRESU",
        "VISITNUM",
        "VISIT",
        "EPOCH",
        "DADTC",
        "DADY"
      ]
    },
    "DM": {
      "record_count": 20,
      "variable_count": 27,
      "file": "dm.csv",
      "variables": [
        "STUDYID",
        "DOMAIN",
        "USUBJID",
        "SUBJID",
        "RFSTDTC",
        "RFENDTC",
        "RFXSTDTC",
        "RFXENDTC",
        "RFICDTC",
        "RFPENDTC",
        "DTHDTC",
        "DTHFL",
        "SITEID",
        "INVNAM",
        "BRTHDTC",
        "AGE",
        "AGEU",
        "SEX",
        "RACE",
        "ETHNIC",
        "ARMCD",
        "ARM",
        "ACTARMCD",
        "ACTARM",
        "ARMNRS",
        "ACTARMUD",
        "COUNTRY"
      ]
    },
    "DS": {
      "record_count": 58,
      "variable_count": 10,
      "file": "ds.csv",
      "variables": [
        "STUDYID",
        "DOMAIN",
        "USUBJID",
        "DSSEQ",
        "DSTERM",
        "DSDECOD",
        "DSCAT",
        "EPOCH",
        "DSSTDTC",
        "DSSTDY"
      ]
    },
    "DV": {
      "record_count": 345,
      "variable_count": 11,
      "file": "dv.csv",
      "variables": [
        "STUDYID",
        "DOMAIN",
        "USUBJID",
        "DVSEQ",
        "DVTERM",
        "DVDECOD",
        "DVCAT",
        "DVSCAT",
        "EPOCH",
        "DVSTDTC",
        "DVSTDY"
      ]
    },
    "EC": {
      "record_count": 4168,
      "variable_count": 23,
      "file": "ec.csv",
      "variables": [
        "STUDYID",
        "DOMAIN",
        "USUBJID",
        "ECSEQ",
        "ECTRT",
        "ECMOOD",
        "ECPRESP",
        "ECOCCUR",
        "ECSTAT",
        "ECREASND",
        "ECDOSE",
        "ECDOSTXT",
        "ECDOSU",
        "ECDOSFRM",
        "ECDOSFRQ",
        "ECROUTE",
        "VISITNUM",
        "VISIT",
        "EPOCH",
        "ECSTDTC",
        "ECENDTC",
        "ECSTDY",
        "ECENDY"
      ]
    },
    "EX": {
      "record_count": 82,
      "variable_count": 15,
      "file": "ex.csv",
      "variables": [
        "STUDYID",
        "DOMAIN",
        "USUBJID",
        "EXSEQ",
        "EXTRT",
        "EXDOSE",
        "EXDOSU",
        "EXDOSFRM",
        "EXDOSFRQ",
        "EXROUTE",
        "EPOCH",
        "EXSTDTC",
        "EXENDTC",
        "EXSTDY",
        "EXENDY"
      ]
    },
    "FA": {
      "record_count": 908,
      "variable_count": 21,
      "file": "fa.csv",
      "variables": [
        "STUDYID",
        "DOMAIN",
        "USUBJID",
        "FASEQ",
        "FATESTCD",
        "FATEST",
        "FAOBJ",
        "FACAT",
        "FASCAT",
        "FAORRES",
        "FAORRESU",
        "FASTRESC",
        "FASTRESN",
        "FASTRESU",
        "FASTAT",
        "FABLFL",
        "VISITNUM",
        "VISIT",
        "EPOCH",
        "FADTC",
        "FADY"
      ]
    },
    "HO": {
      "record_count": 68,
      "variable_count": 12,
      "file": "ho.csv",
      "variables": [
        "STUDYID",
        "DOMAIN",
        "USUBJID",
        "HOSEQ",
        "HOTERM",
        "HODECOD",
        "HOCAT",
        "EPOCH",
        "HOSTDTC",
        "HOENDTC",
        "HOSTDY",
        "HOENDY"
      ]
    },
    "IE": {
      "record_count": 2,
      "variable_count": 14,
      "file": "ie.csv",
      "variables": [
        "STUDYID",
        "DOMAIN",
        "USUBJID",
        "IESEQ",
        "IETESTCD",
        "IETEST",
        "IECAT",
        "IEORRES",
        "IESTRESC",
        "VISITNUM",
        "VISIT",
        "EPOCH",
        "IEDTC",
        "IEDY"
      ]
    },
    "LB": {
      "record_count": 1001,
      "variable_count": 26,
      "file": "lb.csv",
      "variables": [
        "STUDYID",
        "DOMAIN",
        "USUBJID",
        "LBSEQ",
        "LBTESTCD",
        "LBTEST",
        "LBCAT",
        "LBORRES",
        "LBORRESU",
        "LBORNRLO",
        "LBORNRHI",
        "LBSTRESC",
        "LBSTRESN",
        "LBSTRESU",
        "LBSTNRLO",
        "LBSTNRHI",
        "LBNRIND",
        "LBSTAT",
        "LBLOBXFL",
        "LBBLFL",
        "LBTOXGR",
        "VISITNUM",
        "VISIT",
        "EPOCH",
        "LBDTC",
        "LBDY"
      ]
    },
    "MH": {
      "record_count": 44,
      "variable_count": 15,
      "file": "mh.csv",
      "variables": [
        "STUDYID",
        "DOMAIN",
        "USUBJID",
        "MHSEQ",
        "MHTERM",
        "MHDECOD",
        "MHCAT",
        "MHSCAT",
        "MHBODSYS",
        "EPOCH",
        "MHSTDTC",
        "MHENDTC",
        "MHSTDY",
        "MHENDY",
        "MHENRF"
      ]
    },
    "PE": {
      "record_count": 360,
      "variable_count": 13,
      "file": "pe.csv",
      "variables": [
        "STUDYID",
        "DOMAIN",
        "USUBJID",
        "PESEQ",
        "PETESTCD",
        "PETEST",
        "PEORRES",
        "PESTRESC",
        "VISITNUM",
        "VISIT",
        "EPOCH",
        "PEDTC",
        "PEDY"
      ]
    },
    "RELREC": {
      "record_count": 482,
      "variable_count": 7,
      "file": "relrec.csv",
      "variables": [
        "STUDYID",
        "RDOMAIN",
        "USUBJID",
        "IDVAR",
        "IDVARVAL",
        "RELTYPE",
        "RELID"
      ]
    },
    "SC": {
      "record_count": 80,
      "variable_count": 13,
      "file": "sc.csv",
      "variables": [
        "STUDYID",
        "DOMAIN",
        "USUBJID",
        "SCSEQ",
        "SCTESTCD",
        "SCTEST",
        "SCCAT",
        "SCORRES",
        "SCSTRESC",
        "SCSTRESN",
        "SCSTRESU",
        "SCDTC",
        "SCDY"
      ]
    },
    "SE": {
      "record_count": 44,
      "variable_count": 11,
      "file": "se.csv",
      "variables": [
        "STUDYID",
        "DOMAIN",
        "USUBJID",
        "SESEQ",
        "ETCD",
        "ELEMENT",
        "EPOCH",
        "SESTDTC",
        "SEENDTC",
        "SESTDY",
        "SEENDY"
      ]
    },
    "SM": {
      "record_count": 18,
      "variable_count": 8,
      "file": "sm.csv",
      "variables": [
        "STUDYID",
        "DOMAIN",
        "USUBJID",
        "SMSEQ",
        "MIDS",
        "MIDSTYPE",
        "SMSTDTC",
        "SMSTDY"
      ]
    },
    "SS": {
      "record_count": 8,
      "variable_count": 14,
      "file": "ss.csv",
      "variables": [
        "STUDYID",
        "DOMAIN",
        "USUBJID",
        "SSSEQ",
        "SSTESTCD",
        "SSTEST",
        "SSCAT",
        "SSORRES",
        "SSSTRESC",
        "VISITNUM",
        "VISIT",
        "EPOCH",
        "SSDTC",
        "SSDY"
      ]
    },
    "SU": {
      "record_count": 54,
      "variable_count": 20,
      "file": "su.csv",
      "variables": [
        "STUDYID",
        "DOMAIN",
        "USUBJID",
        "SUSEQ",
        "SUTRT",
        "SUDECOD",
        "SUCAT",
        "SUSCAT",
        "SUPRESP",
        "SUOCCUR",
        "SUSTAT",
        "SUDOSE",
        "SUDOSU",
        "SUDOSFRQ",
        "EPOCH",
        "SUSTDTC",
        "SUENDTC",
        "SUSTDY",
        "SUENDY",
        "SUENRF"
      ]
    },
    "SUPPAE": {
      "record_count": 462,
      "variable_count": 10,
      "file": "suppae.csv",
      "variables": [
        "STUDYID",
        "RDOMAIN",
        "USUBJID",
        "IDVAR",
        "IDVARVAL",
        "QNAM",
        "QLABEL",
        "QVAL",
        "QORIG",
        "QEVAL"
      ]
    },
    "SV": {
      "record_count": 172,
      "variable_count": 14,
      "file": "sv.csv",
      "variables": [
        "STUDYID",
        "DOMAIN",
        "USUBJID",
        "SVSEQ",
        "VISITNUM",
        "VISIT",
        "SVPRESP",
        "SVOCCUR",
        "VISITDY",
        "EPOCH",
        "SVSTDTC",
        "SVENDTC",
        "SVSTDY",
        "SVENDY"
      ]
    },
    "TA": {
      "record_count": 9,
      "variable_count": 10,
      "file": "ta.csv",
      "variables": [
        "STUDYID",
        "DOMAIN",
        "ARMCD",
        "ARM",
        "TAETORD",
        "ETCD",
        "ELEMENT",
        "TABRANCH",
        "TATRANS",
        "EPOCH"
      ]
    },
    "TE": {
      "record_count": 3,
      "variable_count": 7,
      "file": "te.csv",
      "variables": [
        "STUDYID",
        "DOMAIN",
        "ETCD",
        "ELEMENT",
        "TESTRL",
        "TEENRL",
        "TEDUR"
      ]
    },
    "TI": {
      "record_count": 10,
      "variable_count": 8,
      "file": "ti.csv",
      "variables": [
        "STUDYID",
        "DOMAIN",
        "IETESTCD",
        "IETEST",
        "IECAT",
        "IESCAT",
        "TIRL",
        "TIVERS"
      ]
    },
    "TM": {
      "record_count": 1,
      "variable_count": 5,
      "file": "tm.csv",
      "variables": [
        "STUDYID",
        "DOMAIN",
        "MIDSTYPE",
        "TMDEF",
        "TMRPT"
      ]
    },
    "TS": {
      "record_count": 45,
      "variable_count": 11,
      "file": "ts.csv",
      "variables": [
        "STUDYID",
        "DOMAIN",
        "TSSEQ",
        "TSGRPID",
        "TSPARMCD",
        "TSPARM",
        "TSVAL",
        "TSVALNF",
        "TSVALCD",
        "TSVCDREF",
        "TSVCDVER"
      ]
    },
    "TV": {
      "record_count": 39,
      "variable_count": 9,
      "file": "tv.csv",
      "variables": [
        "STUDYID",
        "DOMAIN",
        "VISITNUM",
        "VISIT",
        "VISITDY",
        "ARMCD",
        "ARM",
        "TVSTRL",
        "TVENRL"
      ]
    },
    "VS": {
      "record_count": 1180,
      "variable_count": 25,
      "file": "vs.csv",
      "variables": [
        "STUDYID",
        "DOMAIN",
        "USUBJID",
        "VSSEQ",
        "VSTESTCD",
        "VSTEST",
        "VSORRES",
        "VSORRESU",
        "VSSTRESC",
        "VSSTRESN",
        "VSSTRESU",
        "VSSTAT",
        "VSLOBXFL",
        "VSBLFL",
        "VSDRVFL",
        "VISITNUM",
        "VISIT",
        "EPOCH",
        "VSDTC",
        "VSDY",
        "VSTPT",
        "VSTPTNUM",
        "VSELTM",
        "VSTPTREF",
        "VSRFTDTC"
      ]
    }
  },
  "disposition_flow": {
    "nodes": [
      "SCREENED",
      "ENROLLED",
      "SCREEN FAILURE",
      "ADVERSE EVENT",
      "COMPLETED",
      "PROGRESSIVE DISEASE",
      "PROTOCOL VIOLATION"
    ],
    "links": [
      {
        "source": "SCREENED",
        "target": "ENROLLED",
        "value": 18
      },
      {
        "source": "SCREENED",
        "target": "SCREEN FAILURE",
        "value": 2
      },
      {
        "source": "ENROLLED",
        "target": "ADVERSE EVENT",
        "value": 9
      },
      {
        "source": "ENROLLED",
        "target": "COMPLETED",
        "value": 7
      },
      {
        "source": "ENROLLED",
        "target": "PROGRESSIVE DISEASE",
        "value": 1
      },
      {
        "source": "ENROLLED",
        "target": "PROTOCOL VIOLATION",
        "value": 1
      }
    ]
  },
  "config_snapshot": {
    "study_id": "MS200095-0022-VISION",
    "phase": "2",
    "n_subjects_default": 300,
    "demographics": {
      "age_min": 18,
      "age_max": 90,
      "sex_distribution": {
        "M": 0.5,
        "F": 0.5
      },
      "race_distribution": {
        "WHITE": 0.55,
        "ASIAN": 0.35,
        "BLACK OR AFRICAN AMERICAN": 0.05,
        "OTHER": 0.05
      }
    },
    "enabled_domains": [
      "DM",
      "AE",
      "DS",
      "EX",
      "EC",
      "CM",
      "MH",
      "SE",
      "SV",
      "VS",
      "LB",
      "IE",
      "PE",
      "FA",
      "DA",
      "DD",
      "HO",
      "DV",
      "SC",
      "SU",
      "SS",
      "CO",
      "SM",
      "TM",
      "SUPPAE"
    ]
  }
}