{"subject_id":"MS200095-0022-VISION-CHN_SITE01-0001","study_id":"MS200095-0022-VISION","generated_at":"2026-07-07T05:08:05.762394+00:00","sdtmig_version":"3.4","flags":{"has_serious_ae":true,"has_fatal_ae":false,"has_protocol_deviation":true,"n_protocol_deviations":2,"n_adverse_events":2,"n_concomitant_meds":1,"max_ae_severity":"SEVERE","screen_failure":false,"discontinued_early":true,"discontinuation_reason":"ADVERSE EVENT","death":false,"exposure_days":9},"timeline":[{"dtc":"2024-01-16","dy":"-40","event":"VISIT: SCREENING","domain":"SV","category":"visit"},{"dtc":"2024-02-13","dy":"-12","event":"INFORMED CONSENT OBTAINED","domain":"DS","category":"milestone"},{"dtc":"2024-02-25","dy":"1","event":"RANDOMIZED","domain":"DS","category":"milestone"},{"dtc":"2024-02-25","dy":"1","event":"FIRST DOSE: TEPOTINIB","domain":"EX","category":"exposure"},{"dtc":"2024-02-25","dy":"1","event":"DEVIATION: MISSED DOSE","domain":"DV","category":"deviation"},{"dtc":"2024-02-25","dy":"1","event":"VISIT: C1D1","domain":"SV","category":"visit"},{"dtc":"2024-02-27","dy":"3","event":"DEVIATION: MISSED DOSE","domain":"DV","category":"deviation"},{"dtc":"2024-03-04","dy":"9","event":"AE: Oedema peripheral (MODERATE)","domain":"AE","category":"adverse_event"},{"dtc":"2024-03-04","dy":"9","event":"CM START: FUROSEMIDE","domain":"CM","category":"concomitant_med"},{"dtc":"2024-03-10","dy":"15","event":"ADVERSE EVENT","domain":"DS","category":"milestone"},{"dtc":"2024-03-10","dy":"15","event":"AE: Dyspnoea (SEVERE) [SERIOUS]","domain":"AE","category":"adverse_event"},{"dtc":"2024-03-10","dy":"15","event":"VISIT: C1D15","domain":"SV","category":"visit"}],"section_1_demographics":{"usubjid":"MS200095-0022-VISION-CHN_SITE01-0001","subjid":"0001","siteid":"CHN_SITE01","age":"64","ageu":"YEARS","sex":"M","race":"ASIAN","ethnicity":"NOT HISPANIC OR LATINO","country":"CHN","arm":"Cohort A \u2014 Tepotinib 500 mg QD (MET exon 14 skipping)","armcd":"COHORT_A","actarm":"Cohort A \u2014 Tepotinib 500 mg QD (MET exon 14 skipping)","actarmcd":"COHORT_A","randomization_date":null,"informed_consent_date":"2024-02-13","reference_start_date":"2024-02-25","reference_end_date":"2024-03-10","screen_failure":false,"death_flag":null,"death_date":null,"subject_characteristics":[{"testcd":"ALCUSE","test":"Alcohol Use","orres":"NON-DRINKER","stresc":"NON-DRINKER","visit":null,"dtc":"2024-02-13"},{"testcd":"BMI","test":"Body Mass Index","orres":"15.9","stresc":"15.9","visit":null,"dtc":"2024-02-13"},{"testcd":"DURDIS","test":"Duration of Disease","orres":"182 months","stresc":"182","visit":null,"dtc":"2024-02-13"},{"testcd":"TOBPKYR","test":"Tobacco Pack-Years","orres":"22","stresc":"22","visit":null,"dtc":"2024-02-13"},{"testcd":"TOBUSE","test":"Tobacco Use","orres":"FORMER SMOKER","stresc":"FORMER SMOKER","visit":null,"dtc":"2024-02-13"}]},"section_2_medical_history":{"items":[{"seq":"1","term":"HYPERTENSION","decod":"HYPERTENSION","cat":"CARDIOVASCULAR","scat":null,"presp":null,"occur":null,"status":null,"onset_dtc":"2014-02","end_dtc":"2022-04-09","visit":null},{"seq":"2","term":"TOBACCO USE","decod":"TOBACCO USE","cat":"SOCIAL HISTORY","scat":null,"presp":null,"occur":null,"status":null,"onset_dtc":"2009-02-16","end_dtc":"2020-03-10","visit":null}]},"section_3_inclusion_exclusion":{"criteria":[]},"section_4_trial_participation":{"visits":[{"visitnum":"1.0","visit":"SCREENING","start_dtc":"2024-01-16","end_dtc":"2024-01-16","updes":null},{"visitnum":"2.0","visit":"C1D1","start_dtc":"2024-02-25","end_dtc":"2024-02-25","updes":null},{"visitnum":"3.0","visit":"C1D15","start_dtc":"2024-03-10","end_dtc":"2024-03-10","updes":null}],"epochs":[{"seq":"1","etcd":"SCRN","element":"Screening","start_dtc":"2024-01-28","end_dtc":"2024-02-25","updes":null},{"seq":"2","etcd":"TRT","element":"Treatment (cycles)","start_dtc":"2024-02-25","end_dtc":"2024-03-10","updes":null}],"visit_count":3},"section_5_concomitant_medications":{"medications":[{"seq":"1","trt":"FUROSEMIDE","decod":"FUROSEMIDE","cat":"CONCOMITANT","dose":"20.0","doseu":null,"dosef":"QD","route":"ORAL","indication":"OEDEMA PERIPHERAL","start_dtc":"2024-03-04","end_dtc":"2024-03-10","ongoing":null,"visit":null}]},"section_6_exposure":{"exposure_as_administered":[{"seq":"1","trt":"TEPOTINIB","dose":"500.0","doseu":null,"dosef":"QD","route":"ORAL","lot":null,"start_dtc":"2024-02-25","end_dtc":"2024-03-05","start_dy":"1","end_dy":"10","epoch":"TREATMENT","visit":null}],"exposure_as_collected":[{"seq":"1","trt":"TEPOTINIB","dose":null,"doseu":null,"dosef":"QD","route":"ORAL","start_dtc":"2024-02-25","end_dtc":"2024-02-25","visit":"C1D1"},{"seq":"2","trt":"TEPOTINIB","dose":"500.0","doseu":null,"dosef":"QD","route":"ORAL","start_dtc":"2024-02-26","end_dtc":"2024-02-26","visit":"C1D1"},{"seq":"3","trt":"TEPOTINIB","dose":null,"doseu":null,"dosef":"QD","route":"ORAL","start_dtc":"2024-02-27","end_dtc":"2024-02-27","visit":"C1D1"},{"seq":"4","trt":"TEPOTINIB","dose":"500.0","doseu":null,"dosef":"QD","route":"ORAL","start_dtc":"2024-02-28","end_dtc":"2024-02-28","visit":"C1D1"},{"seq":"5","trt":"TEPOTINIB","dose":"500.0","doseu":null,"dosef":"QD","route":"ORAL","start_dtc":"2024-02-29","end_dtc":"2024-02-29","visit":null},{"seq":"6","trt":"TEPOTINIB","dose":"500.0","doseu":null,"dosef":"QD","route":"ORAL","start_dtc":"2024-03-01","end_dtc":"2024-03-01","visit":null},{"seq":"7","trt":"TEPOTINIB","dose":"500.0","doseu":null,"dosef":"QD","route":"ORAL","start_dtc":"2024-03-02","end_dtc":"2024-03-02","visit":null},{"seq":"8","trt":"TEPOTINIB","dose":"500.0","doseu":null,"dosef":"QD","route":"ORAL","start_dtc":"2024-03-03","end_dtc":"2024-03-03","visit":null},{"seq":"9","trt":"TEPOTINIB","dose":"500.0","doseu":null,"dosef":"QD","route":"ORAL","start_dtc":"2024-03-04","end_dtc":"2024-03-04","visit":null},{"seq":"10","trt":"TEPOTINIB","dose":"500.0","doseu":null,"dosef":"QD","route":"ORAL","start_dtc":"2024-03-05","end_dtc":"2024-03-05","visit":null}]},"section_7_adverse_events":{"summary":{"total_aes":2,"serious_aes":1,"fatal_aes":0,"by_severity":{"MODERATE":1,"SEVERE":1},"by_soc":{"General disorders and administration site conditions":1,"Respiratory, thoracic and mediastinal disorders":1}},"events":[{"seq":"1","term":"OEDEMA PERIPHERAL","decod":"Oedema peripheral","llt":"Oedema peripheral","hlt":"Oedema NEC","hlgt":"Oedema NEC","soc":"General disorders and administration site conditions","bodsys":"General disorders and administration site conditions","severity":"MODERATE","serious":"N","causality":"NOT RELATED","action_taken":"DOSE NOT CHANGED","outcome":"NOT RECOVERED/NOT RESOLVED","fatal":"N","hospitalization":"N","life_threatening":"N","onset_dtc":"2024-03-04","end_dtc":null,"onset_dy":"9","end_dy":null,"duration":null,"epoch":"TREATMENT","visit":null,"supplemental":{"AETRTEM":"Y"}},{"seq":"2","term":"DYSPNOEA","decod":"Dyspnoea","llt":"Dyspnoea","hlt":"Breathing abnormalities","hlgt":"Respiratory tract signs and symptoms","soc":"Respiratory, thoracic and mediastinal disorders","bodsys":"Respiratory, thoracic and mediastinal disorders","severity":"SEVERE","serious":"Y","causality":"NOT RELATED","action_taken":"DOSE NOT CHANGED","outcome":"RECOVERED/RESOLVED","fatal":"N","hospitalization":"N","life_threatening":"N","onset_dtc":"2024-03-10","end_dtc":"2024-03-10","onset_dy":"15","end_dy":"15","duration":null,"epoch":"TREATMENT","visit":null,"supplemental":{"AETRTEM":"Y"}}]},"section_8_laboratory_results":{"summary":{"total_records":21,"abnormal_count":0,"abnormal_pct":0.0},"shift_summary":[{"testcd":"ALT","baseline_value":28.93,"baseline_nrind":"NORMAL","worst_post_baseline_value":29.13,"worst_post_baseline_nrind":"NORMAL","worst_visit":"C1D1"},{"testcd":"AST","baseline_value":25.13,"baseline_nrind":"NORMAL","worst_post_baseline_value":25.49,"worst_post_baseline_nrind":"NORMAL","worst_visit":"C1D15"},{"testcd":"CREAT","baseline_value":89.4,"baseline_nrind":"NORMAL","worst_post_baseline_value":94.96,"worst_post_baseline_nrind":"NORMAL","worst_visit":"C1D15"},{"testcd":"GLUC","baseline_value":4.63,"baseline_nrind":"NORMAL","worst_post_baseline_value":4.61,"worst_post_baseline_nrind":"NORMAL","worst_visit":"C1D1"},{"testcd":"HGB","baseline_value":138.97,"baseline_nrind":"NORMAL","worst_post_baseline_value":139.31,"worst_post_baseline_nrind":"NORMAL","worst_visit":"C1D1"},{"testcd":"PLAT","baseline_value":214.77,"baseline_nrind":"NORMAL","worst_post_baseline_value":226.78,"worst_post_baseline_nrind":"NORMAL","worst_visit":"C1D1"},{"testcd":"WBC","baseline_value":5.92,"baseline_nrind":"NORMAL","worst_post_baseline_value":6.48,"worst_post_baseline_nrind":"NORMAL","worst_visit":"C1D15"}],"results":[{"seq":"1","testcd":"ALT","test":"Alanine Aminotransferase","cat":"CHEMISTRY","orres":"28.93","orresu":"U/L","stresc":"28.93","stresn":"28.93","stresu":"U/L","stnrlo":"7","stnrhi":"56","nrind":"NORMAL","fast":null,"dtc":"2024-01-16","dy":"-40","visit":"SCREENING","visitnum":"1.0","epoch":"SCREENING","spec":null,"method":null},{"seq":"2","testcd":"AST","test":"Aspartate Aminotransferase","cat":"CHEMISTRY","orres":"25.13","orresu":"U/L","stresc":"25.13","stresn":"25.13","stresu":"U/L","stnrlo":"10","stnrhi":"40","nrind":"NORMAL","fast":null,"dtc":"2024-01-16","dy":"-40","visit":"SCREENING","visitnum":"1.0","epoch":"SCREENING","spec":null,"method":null},{"seq":"3","testcd":"CREAT","test":"Creatinine","cat":"CHEMISTRY","orres":"89.4","orresu":"umol/L","stresc":"89.4","stresn":"89.4","stresu":"umol/L","stnrlo":"62","stnrhi":"106","nrind":"NORMAL","fast":null,"dtc":"2024-01-16","dy":"-40","visit":"SCREENING","visitnum":"1.0","epoch":"SCREENING","spec":null,"method":null},{"seq":"4","testcd":"GLUC","test":"Glucose","cat":"CHEMISTRY","orres":"4.63","orresu":"mmol/L","stresc":"4.63","stresn":"4.63","stresu":"mmol/L","stnrlo":"3.9","stnrhi":"5.6","nrind":"NORMAL","fast":null,"dtc":"2024-01-16","dy":"-40","visit":"SCREENING","visitnum":"1.0","epoch":"SCREENING","spec":null,"method":null},{"seq":"5","testcd":"HGB","test":"Hemoglobin","cat":"HEMATOLOGY","orres":"138.97","orresu":"g/L","stresc":"138.97","stresn":"138.97","stresu":"g/L","stnrlo":"130","stnrhi":"175","nrind":"NORMAL","fast":null,"dtc":"2024-01-16","dy":"-40","visit":"SCREENING","visitnum":"1.0","epoch":"SCREENING","spec":null,"method":null},{"seq":"6","testcd":"PLAT","test":"Platelets","cat":"HEMATOLOGY","orres":"214.77","orresu":"10^9/L","stresc":"214.77","stresn":"214.77","stresu":"10^9/L","stnrlo":"150","stnrhi":"400","nrind":"NORMAL","fast":null,"dtc":"2024-01-16","dy":"-40","visit":"SCREENING","visitnum":"1.0","epoch":"SCREENING","spec":null,"method":null},{"seq":"7","testcd":"WBC","test":"Leukocytes","cat":"HEMATOLOGY","orres":"5.92","orresu":"10^9/L","stresc":"5.92","stresn":"5.92","stresu":"10^9/L","stnrlo":"4.0","stnrhi":"11.0","nrind":"NORMAL","fast":null,"dtc":"2024-01-16","dy":"-40","visit":"SCREENING","visitnum":"1.0","epoch":"SCREENING","spec":null,"method":null},{"seq":"8","testcd":"ALT","test":"Alanine Aminotransferase","cat":"CHEMISTRY","orres":"29.13","orresu":"U/L","stresc":"29.13","stresn":"29.13","stresu":"U/L","stnrlo":"7","stnrhi":"56","nrind":"NORMAL","fast":null,"dtc":"2024-02-25","dy":"1","visit":"C1D1","visitnum":"2.0","epoch":"TREATMENT","spec":null,"method":null},{"seq":"9","testcd":"AST","test":"Aspartate Aminotransferase","cat":"CHEMISTRY","orres":"24.05","orresu":"U/L","stresc":"24.05","stresn":"24.05","stresu":"U/L","stnrlo":"10","stnrhi":"40","nrind":"NORMAL","fast":null,"dtc":"2024-02-25","dy":"1","visit":"C1D1","visitnum":"2.0","epoch":"TREATMENT","spec":null,"method":null},{"seq":"10","testcd":"CREAT","test":"Creatinine","cat":"CHEMISTRY","orres":"92.49","orresu":"umol/L","stresc":"92.49","stresn":"92.49","stresu":"umol/L","stnrlo":"62","stnrhi":"106","nrind":"NORMAL","fast":null,"dtc":"2024-02-25","dy":"1","visit":"C1D1","visitnum":"2.0","epoch":"TREATMENT","spec":null,"method":null},{"seq":"11","testcd":"GLUC","test":"Glucose","cat":"CHEMISTRY","orres":"4.61","orresu":"mmol/L","stresc":"4.61","stresn":"4.61","stresu":"mmol/L","stnrlo":"3.9","stnrhi":"5.6","nrind":"NORMAL","fast":null,"dtc":"2024-02-25","dy":"1","visit":"C1D1","visitnum":"2.0","epoch":"TREATMENT","spec":null,"method":null},{"seq":"12","testcd":"HGB","test":"Hemoglobin","cat":"HEMATOLOGY","orres":"139.31","orresu":"g/L","stresc":"139.31","stresn":"139.31","stresu":"g/L","stnrlo":"130","stnrhi":"175","nrind":"NORMAL","fast":null,"dtc":"2024-02-25","dy":"1","visit":"C1D1","visitnum":"2.0","epoch":"TREATMENT","spec":null,"method":null},{"seq":"13","testcd":"PLAT","test":"Platelets","cat":"HEMATOLOGY","orres":"226.78","orresu":"10^9/L","stresc":"226.78","stresn":"226.78","stresu":"10^9/L","stnrlo":"150","stnrhi":"400","nrind":"NORMAL","fast":null,"dtc":"2024-02-25","dy":"1","visit":"C1D1","visitnum":"2.0","epoch":"TREATMENT","spec":null,"method":null},{"seq":"14","testcd":"WBC","test":"Leukocytes","cat":"HEMATOLOGY","orres":"6.1","orresu":"10^9/L","stresc":"6.1","stresn":"6.1","stresu":"10^9/L","stnrlo":"4.0","stnrhi":"11.0","nrind":"NORMAL","fast":null,"dtc":"2024-02-25","dy":"1","visit":"C1D1","visitnum":"2.0","epoch":"TREATMENT","spec":null,"method":null},{"seq":"15","testcd":"ALT","test":"Alanine Aminotransferase","cat":"CHEMISTRY","orres":null,"orresu":null,"stresc":null,"stresn":null,"stresu":null,"stnrlo":null,"stnrhi":null,"nrind":null,"fast":null,"dtc":"2024-03-10","dy":"15","visit":"C1D15","visitnum":"3.0","epoch":"TREATMENT","spec":null,"method":null},{"seq":"16","testcd":"AST","test":"Aspartate Aminotransferase","cat":"CHEMISTRY","orres":"25.49","orresu":"U/L","stresc":"25.49","stresn":"25.49","stresu":"U/L","stnrlo":"10","stnrhi":"40","nrind":"NORMAL","fast":null,"dtc":"2024-03-10","dy":"15","visit":"C1D15","visitnum":"3.0","epoch":"TREATMENT","spec":null,"method":null},{"seq":"17","testcd":"CREAT","test":"Creatinine","cat":"CHEMISTRY","orres":"94.96","orresu":"umol/L","stresc":"94.96","stresn":"94.96","stresu":"umol/L","stnrlo":"62","stnrhi":"106","nrind":"NORMAL","fast":null,"dtc":"2024-03-10","dy":"15","visit":"C1D15","visitnum":"3.0","epoch":"TREATMENT","spec":null,"method":null},{"seq":"18","testcd":"GLUC","test":"Glucose","cat":"CHEMISTRY","orres":"4.57","orresu":"mmol/L","stresc":"4.57","stresn":"4.57","stresu":"mmol/L","stnrlo":"3.9","stnrhi":"5.6","nrind":"NORMAL","fast":null,"dtc":"2024-03-10","dy":"15","visit":"C1D15","visitnum":"3.0","epoch":"TREATMENT","spec":null,"method":null},{"seq":"19","testcd":"HGB","test":"Hemoglobin","cat":"HEMATOLOGY","orres":"140.46","orresu":"g/L","stresc":"140.46","stresn":"140.46","stresu":"g/L","stnrlo":"130","stnrhi":"175","nrind":"NORMAL","fast":null,"dtc":"2024-03-10","dy":"15","visit":"C1D15","visitnum":"3.0","epoch":"TREATMENT","spec":null,"method":null},{"seq":"20","testcd":"PLAT","test":"Platelets","cat":"HEMATOLOGY","orres":"217.42","orresu":"10^9/L","stresc":"217.42","stresn":"217.42","stresu":"10^9/L","stnrlo":"150","stnrhi":"400","nrind":"NORMAL","fast":null,"dtc":"2024-03-10","dy":"15","visit":"C1D15","visitnum":"3.0","epoch":"TREATMENT","spec":null,"method":null},{"seq":"21","testcd":"WBC","test":"Leukocytes","cat":"HEMATOLOGY","orres":"6.48","orresu":"10^9/L","stresc":"6.48","stresn":"6.48","stresu":"10^9/L","stnrlo":"4.0","stnrhi":"11.0","nrind":"NORMAL","fast":null,"dtc":"2024-03-10","dy":"15","visit":"C1D15","visitnum":"3.0","epoch":"TREATMENT","spec":null,"method":null}]},"section_9_vital_signs":{"summary":{"total_records":24},"trends":{"BMI":[{"visit":"SCREENING","visitnum":"1.0","dtc":"2024-01-16","value":"15.9","unit":"kg/m2"},{"visit":"C1D1","visitnum":"2.0","dtc":"2024-02-25","value":"16.3","unit":"kg/m2"},{"visit":"C1D15","visitnum":"3.0","dtc":"2024-03-10","value":"15.5","unit":"kg/m2"}],"DIABP":[{"visit":"SCREENING","visitnum":"1.0","dtc":"2024-01-16","value":"83.0","unit":"mmHg"},{"visit":"C1D1","visitnum":"2.0","dtc":"2024-02-25","value":"81.5","unit":"mmHg"},{"visit":"C1D15","visitnum":"3.0","dtc":"2024-03-10","value":"82.6","unit":"mmHg"}],"HEIGHT":[{"visit":"SCREENING","visitnum":"1.0","dtc":"2024-01-16","value":"162.6","unit":"cm"},{"visit":"C1D1","visitnum":"2.0","dtc":"2024-02-25","value":"162.0","unit":"cm"},{"visit":"C1D15","visitnum":"3.0","dtc":"2024-03-10","value":"161.6","unit":"cm"}],"PULSE":[{"visit":"SCREENING","visitnum":"1.0","dtc":"2024-01-16","value":"68.2","unit":"beats/min"},{"visit":"C1D1","visitnum":"2.0","dtc":"2024-02-25","value":"69.6","unit":"beats/min"},{"visit":"C1D15","visitnum":"3.0","dtc":"2024-03-10","value":"66.3","unit":"beats/min"}],"RESP":[{"visit":"SCREENING","visitnum":"1.0","dtc":"2024-01-16","value":"22.0","unit":"breaths/min"},{"visit":"C1D1","visitnum":"2.0","dtc":"2024-02-25","value":"21.3","unit":"breaths/min"},{"visit":"C1D15","visitnum":"3.0","dtc":"2024-03-10","value":"24.5","unit":"breaths/min"}],"SYSBP":[{"visit":"SCREENING","visitnum":"1.0","dtc":"2024-01-16","value":"130.8","unit":"mmHg"},{"visit":"C1D1","visitnum":"2.0","dtc":"2024-02-25","value":"129.2","unit":"mmHg"},{"visit":"C1D15","visitnum":"3.0","dtc":"2024-03-10","value":"132.7","unit":"mmHg"}],"TEMP":[{"visit":"SCREENING","visitnum":"1.0","dtc":"2024-01-16","value":"37.2","unit":"C"},{"visit":"C1D1","visitnum":"2.0","dtc":"2024-02-25","value":"37.1","unit":"C"},{"visit":"C1D15","visitnum":"3.0","dtc":"2024-03-10","value":"37.1","unit":"C"}],"WEIGHT":[{"visit":"SCREENING","visitnum":"1.0","dtc":"2024-01-16","value":"42.0","unit":"kg"},{"visit":"C1D1","visitnum":"2.0","dtc":"2024-02-25","value":"42.8","unit":"kg"},{"visit":"C1D15","visitnum":"3.0","dtc":"2024-03-10","value":"40.6","unit":"kg"}]},"results":[{"seq":"1","testcd":"BMI","test":"BMI","cat":null,"orres":null,"orresu":null,"stresc":"15.9","stresn":"15.9","stresu":"kg/m2","stnrlo":null,"stnrhi":null,"nrind":null,"pos":null,"loc":null,"dtc":"2024-01-16","dy":"-40","visit":"SCREENING","visitnum":"1.0","epoch":"SCREENING"},{"seq":"2","testcd":"DIABP","test":"Diastolic Blood Pressure","cat":null,"orres":"83.0","orresu":"mmHg","stresc":"83.0","stresn":"83.0","stresu":"mmHg","stnrlo":null,"stnrhi":null,"nrind":null,"pos":null,"loc":null,"dtc":"2024-01-16","dy":"-40","visit":"SCREENING","visitnum":"1.0","epoch":"SCREENING"},{"seq":"3","testcd":"HEIGHT","test":"Height","cat":null,"orres":"162.6","orresu":"cm","stresc":"162.6","stresn":"162.6","stresu":"cm","stnrlo":null,"stnrhi":null,"nrind":null,"pos":null,"loc":null,"dtc":"2024-01-16","dy":"-40","visit":"SCREENING","visitnum":"1.0","epoch":"SCREENING"},{"seq":"4","testcd":"PULSE","test":"Pulse Rate","cat":null,"orres":"68.2","orresu":"beats/min","stresc":"68.2","stresn":"68.2","stresu":"beats/min","stnrlo":null,"stnrhi":null,"nrind":null,"pos":null,"loc":null,"dtc":"2024-01-16","dy":"-40","visit":"SCREENING","visitnum":"1.0","epoch":"SCREENING"},{"seq":"5","testcd":"RESP","test":"Respiratory Rate","cat":null,"orres":"22.0","orresu":"breaths/min","stresc":"22.0","stresn":"22.0","stresu":"breaths/min","stnrlo":null,"stnrhi":null,"nrind":null,"pos":null,"loc":null,"dtc":"2024-01-16","dy":"-40","visit":"SCREENING","visitnum":"1.0","epoch":"SCREENING"},{"seq":"6","testcd":"SYSBP","test":"Systolic Blood Pressure","cat":null,"orres":"130.8","orresu":"mmHg","stresc":"130.8","stresn":"130.8","stresu":"mmHg","stnrlo":null,"stnrhi":null,"nrind":null,"pos":null,"loc":null,"dtc":"2024-01-16","dy":"-40","visit":"SCREENING","visitnum":"1.0","epoch":"SCREENING"},{"seq":"7","testcd":"TEMP","test":"Temperature","cat":null,"orres":"37.2","orresu":"C","stresc":"37.2","stresn":"37.2","stresu":"C","stnrlo":null,"stnrhi":null,"nrind":null,"pos":null,"loc":null,"dtc":"2024-01-16","dy":"-40","visit":"SCREENING","visitnum":"1.0","epoch":"SCREENING"},{"seq":"8","testcd":"WEIGHT","test":"Weight","cat":null,"orres":"42.0","orresu":"kg","stresc":"42.0","stresn":"42.0","stresu":"kg","stnrlo":null,"stnrhi":null,"nrind":null,"pos":null,"loc":null,"dtc":"2024-01-16","dy":"-40","visit":"SCREENING","visitnum":"1.0","epoch":"SCREENING"},{"seq":"9","testcd":"BMI","test":"BMI","cat":null,"orres":null,"orresu":null,"stresc":"16.3","stresn":"16.3","stresu":"kg/m2","stnrlo":null,"stnrhi":null,"nrind":null,"pos":null,"loc":null,"dtc":"2024-02-25","dy":"1","visit":"C1D1","visitnum":"2.0","epoch":"TREATMENT"},{"seq":"10","testcd":"DIABP","test":"Diastolic Blood Pressure","cat":null,"orres":"81.5","orresu":"mmHg","stresc":"81.5","stresn":"81.5","stresu":"mmHg","stnrlo":null,"stnrhi":null,"nrind":null,"pos":null,"loc":null,"dtc":"2024-02-25","dy":"1","visit":"C1D1","visitnum":"2.0","epoch":"TREATMENT"},{"seq":"11","testcd":"HEIGHT","test":"Height","cat":null,"orres":"162.0","orresu":"cm","stresc":"162.0","stresn":"162.0","stresu":"cm","stnrlo":null,"stnrhi":null,"nrind":null,"pos":null,"loc":null,"dtc":"2024-02-25","dy":"1","visit":"C1D1","visitnum":"2.0","epoch":"TREATMENT"},{"seq":"12","testcd":"PULSE","test":"Pulse Rate","cat":null,"orres":"69.6","orresu":"beats/min","stresc":"69.6","stresn":"69.6","stresu":"beats/min","stnrlo":null,"stnrhi":null,"nrind":null,"pos":null,"loc":null,"dtc":"2024-02-25","dy":"1","visit":"C1D1","visitnum":"2.0","epoch":"TREATMENT"},{"seq":"13","testcd":"RESP","test":"Respiratory Rate","cat":null,"orres":"21.3","orresu":"breaths/min","stresc":"21.3","stresn":"21.3","stresu":"breaths/min","stnrlo":null,"stnrhi":null,"nrind":null,"pos":null,"loc":null,"dtc":"2024-02-25","dy":"1","visit":"C1D1","visitnum":"2.0","epoch":"TREATMENT"},{"seq":"14","testcd":"SYSBP","test":"Systolic Blood Pressure","cat":null,"orres":"129.2","orresu":"mmHg","stresc":"129.2","stresn":"129.2","stresu":"mmHg","stnrlo":null,"stnrhi":null,"nrind":null,"pos":null,"loc":null,"dtc":"2024-02-25","dy":"1","visit":"C1D1","visitnum":"2.0","epoch":"TREATMENT"},{"seq":"15","testcd":"TEMP","test":"Temperature","cat":null,"orres":"37.1","orresu":"C","stresc":"37.1","stresn":"37.1","stresu":"C","stnrlo":null,"stnrhi":null,"nrind":null,"pos":null,"loc":null,"dtc":"2024-02-25","dy":"1","visit":"C1D1","visitnum":"2.0","epoch":"TREATMENT"},{"seq":"16","testcd":"WEIGHT","test":"Weight","cat":null,"orres":"42.8","orresu":"kg","stresc":"42.8","stresn":"42.8","stresu":"kg","stnrlo":null,"stnrhi":null,"nrind":null,"pos":null,"loc":null,"dtc":"2024-02-25","dy":"1","visit":"C1D1","visitnum":"2.0","epoch":"TREATMENT"},{"seq":"17","testcd":"BMI","test":"BMI","cat":null,"orres":null,"orresu":null,"stresc":"15.5","stresn":"15.5","stresu":"kg/m2","stnrlo":null,"stnrhi":null,"nrind":null,"pos":null,"loc":null,"dtc":"2024-03-10","dy":"15","visit":"C1D15","visitnum":"3.0","epoch":"TREATMENT"},{"seq":"18","testcd":"DIABP","test":"Diastolic Blood Pressure","cat":null,"orres":"82.6","orresu":"mmHg","stresc":"82.6","stresn":"82.6","stresu":"mmHg","stnrlo":null,"stnrhi":null,"nrind":null,"pos":null,"loc":null,"dtc":"2024-03-10","dy":"15","visit":"C1D15","visitnum":"3.0","epoch":"TREATMENT"},{"seq":"19","testcd":"HEIGHT","test":"Height","cat":null,"orres":"161.6","orresu":"cm","stresc":"161.6","stresn":"161.6","stresu":"cm","stnrlo":null,"stnrhi":null,"nrind":null,"pos":null,"loc":null,"dtc":"2024-03-10","dy":"15","visit":"C1D15","visitnum":"3.0","epoch":"TREATMENT"},{"seq":"20","testcd":"PULSE","test":"Pulse Rate","cat":null,"orres":"66.3","orresu":"beats/min","stresc":"66.3","stresn":"66.3","stresu":"beats/min","stnrlo":null,"stnrhi":null,"nrind":null,"pos":null,"loc":null,"dtc":"2024-03-10","dy":"15","visit":"C1D15","visitnum":"3.0","epoch":"TREATMENT"},{"seq":"21","testcd":"RESP","test":"Respiratory Rate","cat":null,"orres":"24.5","orresu":"breaths/min","stresc":"24.5","stresn":"24.5","stresu":"breaths/min","stnrlo":null,"stnrhi":null,"nrind":null,"pos":null,"loc":null,"dtc":"2024-03-10","dy":"15","visit":"C1D15","visitnum":"3.0","epoch":"TREATMENT"},{"seq":"22","testcd":"SYSBP","test":"Systolic Blood Pressure","cat":null,"orres":"132.7","orresu":"mmHg","stresc":"132.7","stresn":"132.7","stresu":"mmHg","stnrlo":null,"stnrhi":null,"nrind":null,"pos":null,"loc":null,"dtc":"2024-03-10","dy":"15","visit":"C1D15","visitnum":"3.0","epoch":"TREATMENT"},{"seq":"23","testcd":"TEMP","test":"Temperature","cat":null,"orres":"37.1","orresu":"C","stresc":"37.1","stresn":"37.1","stresu":"C","stnrlo":null,"stnrhi":null,"nrind":null,"pos":null,"loc":null,"dtc":"2024-03-10","dy":"15","visit":"C1D15","visitnum":"3.0","epoch":"TREATMENT"},{"seq":"24","testcd":"WEIGHT","test":"Weight","cat":null,"orres":"40.6","orresu":"kg","stresc":"40.6","stresn":"40.6","stresu":"kg","stnrlo":null,"stnrhi":null,"nrind":null,"pos":null,"loc":null,"dtc":"2024-03-10","dy":"15","visit":"C1D15","visitnum":"3.0","epoch":"TREATMENT"}]},"section_10_questionnaires_and_scores":{"questionnaires":[],"findings_about":[{"seq":"1","testcd":"LDIAM","test":"Longest Diameter","cat":"TUMOR ASSESSMENT","orres":"39.7","stresc":"39.7","stresn":"39.7","dtc":"2024-02-13","visit":"SCREENING"},{"seq":"2","testcd":"SAXIS","test":"Short Axis","cat":"TUMOR ASSESSMENT","orres":"12.0","stresc":"12.0","stresn":"12.0","dtc":"2024-02-13","visit":"SCREENING"},{"seq":"3","testcd":"LDIAM","test":"Longest Diameter","cat":"TUMOR ASSESSMENT","orres":"40.1","stresc":"40.1","stresn":"40.1","dtc":"2024-02-13","visit":"SCREENING"},{"seq":"4","testcd":"SAXIS","test":"Short Axis","cat":"TUMOR ASSESSMENT","orres":"6.6","stresc":"6.6","stresn":"6.6","dtc":"2024-02-13","visit":"SCREENING"},{"seq":"5","testcd":"LDIAM","test":"Longest Diameter","cat":"TUMOR ASSESSMENT","orres":"36.3","stresc":"36.3","stresn":"36.3","dtc":"2024-02-13","visit":"SCREENING"},{"seq":"6","testcd":"SAXIS","test":"Short Axis","cat":"TUMOR ASSESSMENT","orres":"11.9","stresc":"11.9","stresn":"11.9","dtc":"2024-02-13","visit":"SCREENING"},{"seq":"7","testcd":"LDIAM","test":"Longest Diameter","cat":"TUMOR ASSESSMENT","orres":"39.0","stresc":"39.0","stresn":"39.0","dtc":"2024-02-25","visit":"C1D1"},{"seq":"8","testcd":"SAXIS","test":"Short Axis","cat":"TUMOR ASSESSMENT","orres":"10.9","stresc":"10.9","stresn":"10.9","dtc":"2024-02-25","visit":"C1D1"},{"seq":"9","testcd":"LDIAM","test":"Longest Diameter","cat":"TUMOR ASSESSMENT","orres":"38.1","stresc":"38.1","stresn":"38.1","dtc":"2024-02-25","visit":"C1D1"},{"seq":"10","testcd":"SAXIS","test":"Short Axis","cat":"TUMOR ASSESSMENT","orres":"6.6","stresc":"6.6","stresn":"6.6","dtc":"2024-02-25","visit":"C1D1"},{"seq":"11","testcd":"LDIAM","test":"Longest Diameter","cat":"TUMOR ASSESSMENT","orres":"35.4","stresc":"35.4","stresn":"35.4","dtc":"2024-02-25","visit":"C1D1"},{"seq":"12","testcd":"SAXIS","test":"Short Axis","cat":"TUMOR ASSESSMENT","orres":"11.5","stresc":"11.5","stresn":"11.5","dtc":"2024-02-25","visit":"C1D1"},{"seq":"13","testcd":"LDIAM","test":"Longest Diameter","cat":"TUMOR ASSESSMENT","orres":"38.6","stresc":"38.6","stresn":"38.6","dtc":"2024-03-10","visit":"C1D15"},{"seq":"14","testcd":"SAXIS","test":"Short Axis","cat":"TUMOR ASSESSMENT","orres":"11.8","stresc":"11.8","stresn":"11.8","dtc":"2024-03-10","visit":"C1D15"},{"seq":"15","testcd":"LDIAM","test":"Longest Diameter","cat":"TUMOR ASSESSMENT","orres":"39.5","stresc":"39.5","stresn":"39.5","dtc":"2024-03-10","visit":"C1D15"},{"seq":"16","testcd":"SAXIS","test":"Short Axis","cat":"TUMOR ASSESSMENT","orres":"5.8","stresc":"5.8","stresn":"5.8","dtc":"2024-03-10","visit":"C1D15"},{"seq":"17","testcd":"LDIAM","test":"Longest Diameter","cat":"TUMOR ASSESSMENT","orres":"32.4","stresc":"32.4","stresn":"32.4","dtc":"2024-03-10","visit":"C1D15"},{"seq":"18","testcd":"SAXIS","test":"Short Axis","cat":"TUMOR ASSESSMENT","orres":"11.7","stresc":"11.7","stresn":"11.7","dtc":"2024-03-10","visit":"C1D15"}]},"section_11_protocol_deviations":{"deviations":[{"seq":"1","term":"Missed TEPOTINIB dose on 2024-02-25","decod":"MISSED DOSE","cat":"MINOR","scat":"DOSING","start_dtc":"2024-02-25","end_dtc":null,"visit":null},{"seq":"2","term":"Missed TEPOTINIB dose on 2024-02-27","decod":"MISSED DOSE","cat":"MINOR","scat":"DOSING","start_dtc":"2024-02-27","end_dtc":null,"visit":null}],"total":2},"section_12_disposition":{"completion_status":"INFORMED CONSENT OBTAINED","disposition_records":[{"seq":"1","term":"INFORMED CONSENT OBTAINED","decod":"INFORMED CONSENT OBTAINED","cat":"PROTOCOL MILESTONE","scat":null,"dtc":"2024-02-13","dy":null,"visit":null,"epoch":"SCREENING"},{"seq":"2","term":"RANDOMIZED","decod":"RANDOMIZED","cat":"PROTOCOL MILESTONE","scat":null,"dtc":"2024-02-25","dy":null,"visit":null,"epoch":"TREATMENT"},{"seq":"3","term":"ADVERSE EVENT","decod":"ADVERSE EVENT","cat":"DISPOSITION EVENT","scat":null,"dtc":"2024-03-10","dy":null,"visit":null,"epoch":"TREATMENT"}],"death":null},"section_13_hospitalizations":{"items":[],"total":0},"section_14_substance_use":{"items":[{"seq":"1","substance":"BEER/WINE/SPIRITS","decod":"ETHANOL","cat":"ALCOHOL","scat":null,"usage":"N","dose":null,"dosu":null,"freq":null,"start_dtc":null,"end_dtc":null},{"seq":"2","substance":"COFFEE","decod":"COFFEE","cat":"CAFFEINE","scat":null,"usage":"Y","dose":"2.0","dosu":"CUPS/DAY","freq":"QD","start_dtc":"2011-02-16","end_dtc":null},{"seq":"3","substance":"CIGARETTES","decod":"CIGARETTES","cat":"TOBACCO","scat":null,"usage":"Y","dose":null,"dosu":null,"freq":null,"start_dtc":"2010-02-16","end_dtc":"2016-02-15"}],"total":3},"section_15_subject_status":{"items":[],"total":0}}