STUDYID,DOMAIN,USUBJID,EXSEQ,EXTRT,EXDOSE,EXDOSU,EXDOSFRM,EXDOSFRQ,EXROUTE,EPOCH,EXSTDTC,EXENDTC,EXSTDY,EXENDY
P261-402-USL261,EX,P261-402-USL261-USA_SITE01-0007,1,MIDAZOLAM,5.0,mg,SPRAY,PRN,NASAL,TREATMENT,2024-07-28,2024-07-28,102,102
P261-402-USL261,EX,P261-402-USL261-USA_SITE01-0007,2,MIDAZOLAM,5.0,mg,SPRAY,PRN,NASAL,TREATMENT,2024-11-06,2024-11-06,203,203
P261-402-USL261,EX,P261-402-USL261-USA_SITE01-0007,3,MIDAZOLAM,5.0,mg,SPRAY,PRN,NASAL,TREATMENT,2025-02-15,2025-02-15,304,304
P261-402-USL261,EX,P261-402-USL261-USA_SITE01-0007,4,MIDAZOLAM,5.0,mg,SPRAY,PRN,NASAL,TREATMENT,2025-05-27,2025-05-27,405,405
P261-402-USL261,EX,P261-402-USL261-USA_SITE01-0007,5,MIDAZOLAM,5.0,mg,SPRAY,PRN,NASAL,TREATMENT,2025-09-04,2025-09-04,505,505
P261-402-USL261,EX,P261-402-USL261-USA_SITE01-0007,6,MIDAZOLAM,5.0,mg,SPRAY,PRN,NASAL,TREATMENT,2025-12-14,2025-12-14,606,606
P261-402-USL261,EX,P261-402-USL261-USA_SITE01-0007,7,MIDAZOLAM,5.0,mg,SPRAY,PRN,NASAL,TREATMENT,2026-03-25,2026-03-25,707,707
P261-402-USL261,EX,P261-402-USL261-USA_SITE01-0007,8,MIDAZOLAM,5.0,mg,SPRAY,PRN,NASAL,TREATMENT,2026-07-04,2026-07-04,808,808
P261-402-USL261,EX,P261-402-USL261-USA_SITE01-0019,1,MIDAZOLAM,5.0,mg,SPRAY,PRN,NASAL,TREATMENT,2024-02-21,2024-02-21,2,2
P261-402-USL261,EX,P261-402-USL261-USA_SITE01-0019,2,MIDAZOLAM,5.0,mg,SPRAY,PRN,NASAL,TREATMENT,2024-02-23,2024-02-23,4,4
P261-402-USL261,EX,P261-402-USL261-USA_SITE01-0019,3,MIDAZOLAM,5.0,mg,SPRAY,PRN,NASAL,TREATMENT,2024-02-24,2024-02-24,5,5
P261-402-USL261,EX,P261-402-USL261-USA_SITE01-0019,4,MIDAZOLAM,5.0,mg,SPRAY,PRN,NASAL,TREATMENT,2024-02-26,2024-02-26,7,7
P261-402-USL261,EX,P261-402-USL261-USA_SITE01-0019,5,MIDAZOLAM,5.0,mg,SPRAY,PRN,NASAL,TREATMENT,2024-02-27,2024-02-27,8,8
P261-402-USL261,EX,P261-402-USL261-USA_SITE01-0019,6,MIDAZOLAM,5.0,mg,SPRAY,PRN,NASAL,TREATMENT,2024-02-29,2024-02-29,10,10
P261-402-USL261,EX,P261-402-USL261-USA_SITE01-0019,7,MIDAZOLAM,5.0,mg,SPRAY,PRN,NASAL,TREATMENT,2024-03-01,2024-03-01,11,11
P261-402-USL261,EX,P261-402-USL261-USA_SITE01-0019,8,MIDAZOLAM,5.0,mg,SPRAY,PRN,NASAL,TREATMENT,2024-03-03,2024-03-03,13,13
P261-402-USL261,EX,P261-402-USL261-USA_SITE02-0015,1,MIDAZOLAM,5.0,mg,SPRAY,PRN,NASAL,TREATMENT,2024-03-15,2024-03-15,17,17
P261-402-USL261,EX,P261-402-USL261-USA_SITE02-0015,2,MIDAZOLAM,5.0,mg,SPRAY,PRN,NASAL,TREATMENT,2024-03-31,2024-03-31,33,33
P261-402-USL261,EX,P261-402-USL261-USA_SITE02-0015,3,MIDAZOLAM,5.0,mg,SPRAY,PRN,NASAL,TREATMENT,2024-04-16,2024-04-16,49,49
P261-402-USL261,EX,P261-402-USL261-USA_SITE02-0015,4,MIDAZOLAM,5.0,mg,SPRAY,PRN,NASAL,TREATMENT,2024-05-02,2024-05-02,65,65
P261-402-USL261,EX,P261-402-USL261-USA_SITE02-0015,5,MIDAZOLAM,5.0,mg,SPRAY,PRN,NASAL,TREATMENT,2024-05-17,2024-05-17,80,80
P261-402-USL261,EX,P261-402-USL261-USA_SITE02-0015,6,MIDAZOLAM,5.0,mg,SPRAY,PRN,NASAL,TREATMENT,2024-06-18,2024-06-18,112,112
P261-402-USL261,EX,P261-402-USL261-USA_SITE02-0015,7,MIDAZOLAM,5.0,mg,SPRAY,PRN,NASAL,TREATMENT,2024-07-04,2024-07-04,128,128
P261-402-USL261,EX,P261-402-USL261-USA_SITE02-0020,1,MIDAZOLAM,5.0,mg,SPRAY,PRN,NASAL,TREATMENT,2024-04-21,2024-04-21,9,9
P261-402-USL261,EX,P261-402-USL261-USA_SITE02-0020,2,MIDAZOLAM,5.0,mg,SPRAY,PRN,NASAL,TREATMENT,2024-04-28,2024-04-28,16,16
P261-402-USL261,EX,P261-402-USL261-USA_SITE02-0020,3,MIDAZOLAM,5.0,mg,SPRAY,PRN,NASAL,TREATMENT,2024-05-06,2024-05-06,24,24
P261-402-USL261,EX,P261-402-USL261-USA_SITE02-0020,4,MIDAZOLAM,5.0,mg,SPRAY,PRN,NASAL,TREATMENT,2024-05-14,2024-05-14,32,32
P261-402-USL261,EX,P261-402-USL261-USA_SITE02-0020,5,MIDAZOLAM,5.0,mg,SPRAY,PRN,NASAL,TREATMENT,2024-05-21,2024-05-21,39,39
P261-402-USL261,EX,P261-402-USL261-USA_SITE02-0020,6,MIDAZOLAM,5.0,mg,SPRAY,PRN,NASAL,TREATMENT,2024-06-06,2024-06-06,55,55
P261-402-USL261,EX,P261-402-USL261-USA_SITE03-0006,1,MIDAZOLAM,5.0,mg,SPRAY,PRN,NASAL,TREATMENT,2024-09-22,2024-09-22,160,160
P261-402-USL261,EX,P261-402-USL261-USA_SITE03-0006,2,MIDAZOLAM,5.0,mg,SPRAY,PRN,NASAL,TREATMENT,2025-02-28,2025-02-28,319,319
P261-402-USL261,EX,P261-402-USL261-USA_SITE03-0006,3,MIDAZOLAM,5.0,mg,SPRAY,PRN,NASAL,TREATMENT,2025-08-05,2025-08-05,477,477
P261-402-USL261,EX,P261-402-USL261-USA_SITE03-0006,4,MIDAZOLAM,5.0,mg,SPRAY,PRN,NASAL,TREATMENT,2026-01-11,2026-01-11,636,636
P261-402-USL261,EX,P261-402-USL261-USA_SITE03-0006,5,MIDAZOLAM,5.0,mg,SPRAY,PRN,NASAL,TREATMENT,2026-06-19,2026-06-19,795,795
P261-402-USL261,EX,P261-402-USL261-USA_SITE03-0006,6,MIDAZOLAM,5.0,mg,SPRAY,PRN,NASAL,TREATMENT,2026-11-25,2026-11-25,954,954
P261-402-USL261,EX,P261-402-USL261-USA_SITE03-0006,7,MIDAZOLAM,5.0,mg,SPRAY,PRN,NASAL,TREATMENT,2027-05-02,2027-05-02,1112,1112
P261-402-USL261,EX,P261-402-USL261-USA_SITE03-0006,8,MIDAZOLAM,5.0,mg,SPRAY,PRN,NASAL,TREATMENT,2027-10-08,2027-10-08,1271,1271
P261-402-USL261,EX,P261-402-USL261-USA_SITE03-0018,1,MIDAZOLAM,5.0,mg,SPRAY,PRN,NASAL,TREATMENT,2024-05-05,2024-05-05,2,2
P261-402-USL261,EX,P261-402-USL261-USA_SITE03-0018,2,MIDAZOLAM,5.0,mg,SPRAY,PRN,NASAL,TREATMENT,2024-05-06,2024-05-06,3,3
P261-402-USL261,EX,P261-402-USL261-USA_SITE03-0018,3,MIDAZOLAM,5.0,mg,SPRAY,PRN,NASAL,TREATMENT,2024-05-08,2024-05-08,5,5
P261-402-USL261,EX,P261-402-USL261-USA_SITE03-0018,4,MIDAZOLAM,5.0,mg,SPRAY,PRN,NASAL,TREATMENT,2024-05-09,2024-05-09,6,6
P261-402-USL261,EX,P261-402-USL261-USA_SITE03-0018,5,MIDAZOLAM,5.0,mg,SPRAY,PRN,NASAL,TREATMENT,2024-05-10,2024-05-10,7,7
P261-402-USL261,EX,P261-402-USL261-USA_SITE03-0018,6,MIDAZOLAM,5.0,mg,SPRAY,PRN,NASAL,TREATMENT,2024-05-11,2024-05-11,8,8
P261-402-USL261,EX,P261-402-USL261-USA_SITE03-0018,7,MIDAZOLAM,5.0,mg,SPRAY,PRN,NASAL,TREATMENT,2024-05-13,2024-05-13,10,10
P261-402-USL261,EX,P261-402-USL261-USA_SITE03-0018,8,MIDAZOLAM,5.0,mg,SPRAY,PRN,NASAL,TREATMENT,2024-05-14,2024-05-14,11,11
P261-402-USL261,EX,P261-402-USL261-USA_SITE05-0011,1,MIDAZOLAM,5.0,mg,SPRAY,PRN,NASAL,TREATMENT,2024-04-09,2024-04-09,3,3
P261-402-USL261,EX,P261-402-USL261-USA_SITE05-0011,2,MIDAZOLAM,5.0,mg,SPRAY,PRN,NASAL,TREATMENT,2024-04-12,2024-04-12,6,6
P261-402-USL261,EX,P261-402-USL261-USA_SITE05-0011,3,MIDAZOLAM,5.0,mg,SPRAY,PRN,NASAL,TREATMENT,2024-04-14,2024-04-14,8,8
P261-402-USL261,EX,P261-402-USL261-USA_SITE05-0011,4,MIDAZOLAM,5.0,mg,SPRAY,PRN,NASAL,TREATMENT,2024-04-16,2024-04-16,10,10
P261-402-USL261,EX,P261-402-USL261-USA_SITE05-0011,5,MIDAZOLAM,5.0,mg,SPRAY,PRN,NASAL,TREATMENT,2024-04-19,2024-04-19,13,13
P261-402-USL261,EX,P261-402-USL261-USA_SITE05-0011,6,MIDAZOLAM,5.0,mg,SPRAY,PRN,NASAL,TREATMENT,2024-04-21,2024-04-21,15,15
P261-402-USL261,EX,P261-402-USL261-USA_SITE05-0011,7,MIDAZOLAM,5.0,mg,SPRAY,PRN,NASAL,TREATMENT,2024-04-26,2024-04-26,20,20
P261-402-USL261,EX,P261-402-USL261-USA_SITE06-0005,1,MIDAZOLAM,5.0,mg,SPRAY,PRN,NASAL,TREATMENT,2024-05-14,2024-05-14,38,38
P261-402-USL261,EX,P261-402-USL261-USA_SITE06-0005,2,MIDAZOLAM,5.0,mg,SPRAY,PRN,NASAL,TREATMENT,2024-06-20,2024-06-20,75,75
P261-402-USL261,EX,P261-402-USL261-USA_SITE06-0005,3,MIDAZOLAM,5.0,mg,SPRAY,PRN,NASAL,TREATMENT,2024-07-27,2024-07-27,112,112
P261-402-USL261,EX,P261-402-USL261-USA_SITE06-0005,4,MIDAZOLAM,5.0,mg,SPRAY,PRN,NASAL,TREATMENT,2024-09-02,2024-09-02,149,149
P261-402-USL261,EX,P261-402-USL261-USA_SITE06-0005,5,MIDAZOLAM,5.0,mg,SPRAY,PRN,NASAL,TREATMENT,2024-10-09,2024-10-09,186,186
P261-402-USL261,EX,P261-402-USL261-USA_SITE06-0005,6,MIDAZOLAM,5.0,mg,SPRAY,PRN,NASAL,TREATMENT,2024-12-22,2024-12-22,260,260
P261-402-USL261,EX,P261-402-USL261-USA_SITE06-0017,1,MIDAZOLAM,5.0,mg,SPRAY,PRN,NASAL,TREATMENT,2024-03-22,2024-03-22,27,27
P261-402-USL261,EX,P261-402-USL261-USA_SITE06-0017,2,MIDAZOLAM,5.0,mg,SPRAY,PRN,NASAL,TREATMENT,2024-04-18,2024-04-18,54,54
P261-402-USL261,EX,P261-402-USL261-USA_SITE06-0017,3,MIDAZOLAM,5.0,mg,SPRAY,PRN,NASAL,TREATMENT,2024-05-14,2024-05-14,80,80
P261-402-USL261,EX,P261-402-USL261-USA_SITE06-0017,4,MIDAZOLAM,5.0,mg,SPRAY,PRN,NASAL,TREATMENT,2024-06-10,2024-06-10,107,107
P261-402-USL261,EX,P261-402-USL261-USA_SITE06-0017,5,MIDAZOLAM,5.0,mg,SPRAY,PRN,NASAL,TREATMENT,2024-07-06,2024-07-06,133,133
P261-402-USL261,EX,P261-402-USL261-USA_SITE06-0017,6,MIDAZOLAM,5.0,mg,SPRAY,PRN,NASAL,TREATMENT,2024-08-02,2024-08-02,160,160
P261-402-USL261,EX,P261-402-USL261-USA_SITE06-0017,7,MIDAZOLAM,5.0,mg,SPRAY,PRN,NASAL,TREATMENT,2024-09-24,2024-09-24,213,213
P261-402-USL261,EX,P261-402-USL261-USA_SITE07-0012,1,MIDAZOLAM,5.0,mg,SPRAY,PRN,NASAL,TREATMENT,2024-04-21,2024-04-21,2,2
P261-402-USL261,EX,P261-402-USL261-USA_SITE07-0012,2,MIDAZOLAM,5.0,mg,SPRAY,PRN,NASAL,TREATMENT,2024-04-22,2024-04-22,3,3
P261-402-USL261,EX,P261-402-USL261-USA_SITE07-0012,3,MIDAZOLAM,5.0,mg,SPRAY,PRN,NASAL,TREATMENT,2024-04-22,2024-04-22,3,3
P261-402-USL261,EX,P261-402-USL261-USA_SITE07-0012,4,MIDAZOLAM,5.0,mg,SPRAY,PRN,NASAL,TREATMENT,2024-04-23,2024-04-23,4,4
P261-402-USL261,EX,P261-402-USL261-USA_SITE07-0012,5,MIDAZOLAM,5.0,mg,SPRAY,PRN,NASAL,TREATMENT,2024-04-24,2024-04-24,5,5
P261-402-USL261,EX,P261-402-USL261-USA_SITE09-0008,1,MIDAZOLAM,5.0,mg,SPRAY,PRN,NASAL,TREATMENT,2024-09-07,2024-09-07,160,160
P261-402-USL261,EX,P261-402-USL261-USA_SITE09-0008,2,MIDAZOLAM,5.0,mg,SPRAY,PRN,NASAL,TREATMENT,2025-02-13,2025-02-13,319,319
P261-402-USL261,EX,P261-402-USL261-USA_SITE09-0008,3,MIDAZOLAM,5.0,mg,SPRAY,PRN,NASAL,TREATMENT,2025-12-27,2025-12-27,636,636
P261-402-USL261,EX,P261-402-USL261-USA_SITE09-0008,4,MIDAZOLAM,5.0,mg,SPRAY,PRN,NASAL,TREATMENT,2026-11-10,2026-11-10,954,954
P261-402-USL261,EX,P261-402-USL261-USA_SITE09-0008,5,MIDAZOLAM,5.0,mg,SPRAY,PRN,NASAL,TREATMENT,2027-04-17,2027-04-17,1112,1112
P261-402-USL261,EX,P261-402-USL261-USA_SITE09-0008,6,MIDAZOLAM,5.0,mg,SPRAY,PRN,NASAL,TREATMENT,2027-09-23,2027-09-23,1271,1271
P261-402-USL261,EX,P261-402-USL261-USA_SITE12-0013,1,MIDAZOLAM,5.0,mg,SPRAY,PRN,NASAL,TREATMENT,2024-04-18,2024-04-18,6,6
P261-402-USL261,EX,P261-402-USL261-USA_SITE12-0013,2,MIDAZOLAM,5.0,mg,SPRAY,PRN,NASAL,TREATMENT,2024-04-23,2024-04-23,11,11
P261-402-USL261,EX,P261-402-USL261-USA_SITE12-0013,3,MIDAZOLAM,5.0,mg,SPRAY,PRN,NASAL,TREATMENT,2024-04-28,2024-04-28,16,16
P261-402-USL261,EX,P261-402-USL261-USA_SITE12-0013,4,MIDAZOLAM,5.0,mg,SPRAY,PRN,NASAL,TREATMENT,2024-05-03,2024-05-03,21,21
P261-402-USL261,EX,P261-402-USL261-USA_SITE12-0013,5,MIDAZOLAM,5.0,mg,SPRAY,PRN,NASAL,TREATMENT,2024-05-08,2024-05-08,26,26
P261-402-USL261,EX,P261-402-USL261-USA_SITE12-0013,6,MIDAZOLAM,5.0,mg,SPRAY,PRN,NASAL,TREATMENT,2024-05-13,2024-05-13,31,31
P261-402-USL261,EX,P261-402-USL261-USA_SITE12-0013,7,MIDAZOLAM,5.0,mg,SPRAY,PRN,NASAL,TREATMENT,2024-05-18,2024-05-18,36,36
P261-402-USL261,EX,P261-402-USL261-USA_SITE12-0013,8,MIDAZOLAM,5.0,mg,SPRAY,PRN,NASAL,TREATMENT,2024-05-23,2024-05-23,41,41
P261-402-USL261,EX,P261-402-USL261-USA_SITE13-0002,1,MIDAZOLAM,5.0,mg,SPRAY,PRN,NASAL,TREATMENT,2024-10-01,2024-10-01,160,160
P261-402-USL261,EX,P261-402-USL261-USA_SITE13-0002,2,MIDAZOLAM,5.0,mg,SPRAY,PRN,NASAL,TREATMENT,2025-03-09,2025-03-09,319,319
P261-402-USL261,EX,P261-402-USL261-USA_SITE13-0002,3,MIDAZOLAM,5.0,mg,SPRAY,PRN,NASAL,TREATMENT,2025-08-14,2025-08-14,477,477
P261-402-USL261,EX,P261-402-USL261-USA_SITE13-0002,4,MIDAZOLAM,5.0,mg,SPRAY,PRN,NASAL,TREATMENT,2026-01-20,2026-01-20,636,636
P261-402-USL261,EX,P261-402-USL261-USA_SITE13-0002,5,MIDAZOLAM,5.0,mg,SPRAY,PRN,NASAL,TREATMENT,2026-06-28,2026-06-28,795,795
P261-402-USL261,EX,P261-402-USL261-USA_SITE13-0002,6,MIDAZOLAM,5.0,mg,SPRAY,PRN,NASAL,TREATMENT,2026-12-04,2026-12-04,954,954
P261-402-USL261,EX,P261-402-USL261-USA_SITE13-0002,7,MIDAZOLAM,5.0,mg,SPRAY,PRN,NASAL,TREATMENT,2027-05-11,2027-05-11,1112,1112
P261-402-USL261,EX,P261-402-USL261-USA_SITE13-0002,8,MIDAZOLAM,5.0,mg,SPRAY,PRN,NASAL,TREATMENT,2027-10-17,2027-10-17,1271,1271
P261-402-USL261,EX,P261-402-USL261-USA_SITE14-0001,1,MIDAZOLAM,5.0,mg,SPRAY,PRN,NASAL,TREATMENT,2024-03-30,2024-03-30,3,3
P261-402-USL261,EX,P261-402-USL261-USA_SITE14-0001,2,MIDAZOLAM,5.0,mg,SPRAY,PRN,NASAL,TREATMENT,2024-03-30,2024-03-30,3,3
P261-402-USL261,EX,P261-402-USL261-USA_SITE14-0001,3,MIDAZOLAM,5.0,mg,SPRAY,PRN,NASAL,TREATMENT,2024-03-31,2024-03-31,4,4
P261-402-USL261,EX,P261-402-USL261-USA_SITE14-0001,4,MIDAZOLAM,5.0,mg,SPRAY,PRN,NASAL,TREATMENT,2024-03-31,2024-03-31,4,4
P261-402-USL261,EX,P261-402-USL261-USA_SITE14-0001,5,MIDAZOLAM,5.0,mg,SPRAY,PRN,NASAL,TREATMENT,2024-04-01,2024-04-01,5,5
P261-402-USL261,EX,P261-402-USL261-USA_SITE14-0010,1,MIDAZOLAM,5.0,mg,SPRAY,PRN,NASAL,TREATMENT,2024-07-27,2024-07-27,106,106
P261-402-USL261,EX,P261-402-USL261-USA_SITE14-0010,2,MIDAZOLAM,5.0,mg,SPRAY,PRN,NASAL,TREATMENT,2024-09-17,2024-09-17,158,158
P261-402-USL261,EX,P261-402-USL261-USA_SITE14-0010,3,MIDAZOLAM,5.0,mg,SPRAY,PRN,NASAL,TREATMENT,2024-11-09,2024-11-09,211,211
P261-402-USL261,EX,P261-402-USL261-USA_SITE14-0010,4,MIDAZOLAM,5.0,mg,SPRAY,PRN,NASAL,TREATMENT,2024-12-31,2024-12-31,263,263
P261-402-USL261,EX,P261-402-USL261-USA_SITE14-0010,5,MIDAZOLAM,5.0,mg,SPRAY,PRN,NASAL,TREATMENT,2025-02-22,2025-02-22,316,316
P261-402-USL261,EX,P261-402-USL261-USA_SITE14-0010,6,MIDAZOLAM,5.0,mg,SPRAY,PRN,NASAL,TREATMENT,2025-04-15,2025-04-15,368,368
P261-402-USL261,EX,P261-402-USL261-USA_SITE14-0010,7,MIDAZOLAM,5.0,mg,SPRAY,PRN,NASAL,TREATMENT,2025-06-07,2025-06-07,421,421
P261-402-USL261,EX,P261-402-USL261-USA_SITE14-0016,1,MIDAZOLAM,5.0,mg,SPRAY,PRN,NASAL,TREATMENT,2024-04-30,2024-04-30,5,5
P261-402-USL261,EX,P261-402-USL261-USA_SITE14-0016,2,MIDAZOLAM,5.0,mg,SPRAY,PRN,NASAL,TREATMENT,2024-05-05,2024-05-05,10,10
P261-402-USL261,EX,P261-402-USL261-USA_SITE14-0016,3,MIDAZOLAM,5.0,mg,SPRAY,PRN,NASAL,TREATMENT,2024-05-07,2024-05-07,12,12
P261-402-USL261,EX,P261-402-USL261-USA_SITE14-0016,4,MIDAZOLAM,5.0,mg,SPRAY,PRN,NASAL,TREATMENT,2024-05-09,2024-05-09,14,14
P261-402-USL261,EX,P261-402-USL261-USA_SITE14-0016,5,MIDAZOLAM,5.0,mg,SPRAY,PRN,NASAL,TREATMENT,2024-05-12,2024-05-12,17,17
P261-402-USL261,EX,P261-402-USL261-USA_SITE14-0016,6,MIDAZOLAM,5.0,mg,SPRAY,PRN,NASAL,TREATMENT,2024-05-14,2024-05-14,19,19
P261-402-USL261,EX,P261-402-USL261-USA_SITE15-0003,1,MIDAZOLAM,5.0,mg,SPRAY,PRN,NASAL,TREATMENT,2024-08-16,2024-08-16,160,160
P261-402-USL261,EX,P261-402-USL261-USA_SITE15-0003,2,MIDAZOLAM,5.0,mg,SPRAY,PRN,NASAL,TREATMENT,2025-01-22,2025-01-22,319,319
P261-402-USL261,EX,P261-402-USL261-USA_SITE15-0003,3,MIDAZOLAM,5.0,mg,SPRAY,PRN,NASAL,TREATMENT,2025-06-29,2025-06-29,477,477
P261-402-USL261,EX,P261-402-USL261-USA_SITE15-0003,4,MIDAZOLAM,5.0,mg,SPRAY,PRN,NASAL,TREATMENT,2025-12-05,2025-12-05,636,636
P261-402-USL261,EX,P261-402-USL261-USA_SITE15-0003,5,MIDAZOLAM,5.0,mg,SPRAY,PRN,NASAL,TREATMENT,2026-05-13,2026-05-13,795,795
P261-402-USL261,EX,P261-402-USL261-USA_SITE15-0003,6,MIDAZOLAM,5.0,mg,SPRAY,PRN,NASAL,TREATMENT,2027-03-26,2027-03-26,1112,1112
P261-402-USL261,EX,P261-402-USL261-USA_SITE15-0003,7,MIDAZOLAM,5.0,mg,SPRAY,PRN,NASAL,TREATMENT,2027-09-01,2027-09-01,1271,1271
P261-402-USL261,EX,P261-402-USL261-USA_SITE15-0004,1,MIDAZOLAM,5.0,mg,SPRAY,PRN,NASAL,TREATMENT,2024-02-05,2024-02-05,4,4
P261-402-USL261,EX,P261-402-USL261-USA_SITE15-0004,2,MIDAZOLAM,5.0,mg,SPRAY,PRN,NASAL,TREATMENT,2024-02-08,2024-02-08,7,7
P261-402-USL261,EX,P261-402-USL261-USA_SITE15-0004,3,MIDAZOLAM,5.0,mg,SPRAY,PRN,NASAL,TREATMENT,2024-02-11,2024-02-11,10,10
P261-402-USL261,EX,P261-402-USL261-USA_SITE15-0004,4,MIDAZOLAM,5.0,mg,SPRAY,PRN,NASAL,TREATMENT,2024-02-14,2024-02-14,13,13
P261-402-USL261,EX,P261-402-USL261-USA_SITE15-0004,5,MIDAZOLAM,5.0,mg,SPRAY,PRN,NASAL,TREATMENT,2024-02-16,2024-02-16,15,15
P261-402-USL261,EX,P261-402-USL261-USA_SITE15-0004,6,MIDAZOLAM,5.0,mg,SPRAY,PRN,NASAL,TREATMENT,2024-02-19,2024-02-19,18,18
P261-402-USL261,EX,P261-402-USL261-USA_SITE15-0004,7,MIDAZOLAM,5.0,mg,SPRAY,PRN,NASAL,TREATMENT,2024-02-22,2024-02-22,21,21
P261-402-USL261,EX,P261-402-USL261-USA_SITE15-0004,8,MIDAZOLAM,5.0,mg,SPRAY,PRN,NASAL,TREATMENT,2024-02-25,2024-02-25,24,24
