{
  "generated_at": "2026-07-07T05:19:12.770837",
  "seed": 42,
  "mode": "compound",
  "source_dir": "/tmp/sdtm_uploads_3we8aqog",
  "profile": "all",
  "rate": 0.05,
  "density_cap": 5,
  "rules_available": 467,
  "rules_injectable": 33,
  "rules_skipped": 0,
  "rules_injected": 22,
  "total_mutations": 144,
  "skipped_rules": [
    {
      "rule_id": "SD1106",
      "reason": "destructive dataset rule \u2014 re-run in a separate batch"
    }
  ],
  "errors": [
    {
      "error_id": "INJ-SD1314-DS-001",
      "rule_id": "SD1314",
      "rule_message": "DSDECOD is not 'COMPLETED', when DSTERM='COMPLETED'",
      "category": "EVT2",
      "primitive": "set_invalid_value",
      "domain": "DS",
      "usubjid": "MS200095-0022-VISION-CHN_SITE01-0015",
      "row_index": 5,
      "csv_line": 7,
      "seq_value": "3",
      "variables_modified": {
        "DSDECOD": {
          "original": "COMPLETED",
          "injected": "INVALID"
        }
      },
      "re_derived": {},
      "expected_co_violations": [],
      "notes": null,
      "status": "injected",
      "failure_reason": null,
      "clean_row_index": 5
    },
    {
      "error_id": "INJ-SD1313-DS-001",
      "rule_id": "SD1313",
      "rule_message": "Missing EPOCH value, when DSCAT is 'DISPOSITION EVENT'",
      "category": "EVT2",
      "primitive": "blank_field",
      "domain": "DS",
      "usubjid": "MS200095-0022-VISION-JPN_SITE02-0019",
      "row_index": 43,
      "csv_line": 45,
      "seq_value": "3",
      "variables_modified": {
        "EPOCH": {
          "original": "FOLLOW-UP",
          "injected": ""
        }
      },
      "re_derived": {},
      "expected_co_violations": [],
      "notes": null,
      "status": "failed_self_validation",
      "failure_reason": "guard no longer holds: DSCAT == DISPOSITION EVENT",
      "clean_row_index": 43
    },
    {
      "error_id": "INJ-SD1332-AE-001",
      "rule_id": "SD1332",
      "rule_message": "AEOUT = NOT RECOVERED/NOT RESOLVED, but an end date is provided",
      "category": "EVT1",
      "primitive": "populate_forbidden",
      "domain": "AE",
      "usubjid": "MS200095-0022-VISION-ITA_SITE01-0011",
      "row_index": 163,
      "csv_line": 165,
      "seq_value": "14",
      "variables_modified": {
        "AEENDTC": {
          "original": "",
          "injected": "2024-06-01"
        }
      },
      "re_derived": {},
      "expected_co_violations": [],
      "notes": null,
      "status": "injected",
      "failure_reason": null,
      "clean_row_index": 163
    },
    {
      "error_id": "INJ-SD1332-AE-002",
      "rule_id": "SD1332",
      "rule_message": "AEOUT = NOT RECOVERED/NOT RESOLVED, but an end date is provided",
      "category": "EVT1",
      "primitive": "populate_forbidden",
      "domain": "AE",
      "usubjid": "MS200095-0022-VISION-JPN_SITE02-0012",
      "row_index": 238,
      "csv_line": 240,
      "seq_value": "17",
      "variables_modified": {
        "AEENDTC": {
          "original": "",
          "injected": "2024-06-01"
        }
      },
      "re_derived": {},
      "expected_co_violations": [],
      "notes": null,
      "status": "injected",
      "failure_reason": null,
      "clean_row_index": 238
    },
    {
      "error_id": "INJ-SD1332-AE-003",
      "rule_id": "SD1332",
      "rule_message": "AEOUT = NOT RECOVERED/NOT RESOLVED, but an end date is provided",
      "category": "EVT1",
      "primitive": "populate_forbidden",
      "domain": "AE",
      "usubjid": "MS200095-0022-VISION-USA_SITE02-0014",
      "row_index": 433,
      "csv_line": 435,
      "seq_value": "25",
      "variables_modified": {
        "AEENDTC": {
          "original": "",
          "injected": "2024-06-01"
        }
      },
      "re_derived": {},
      "expected_co_violations": [],
      "notes": null,
      "status": "injected",
      "failure_reason": null,
      "clean_row_index": 433
    },
    {
      "error_id": "INJ-SD1144-MH-001",
      "rule_id": "SD1144",
      "rule_message": "MHSTDTC date is after RFSTDTC",
      "category": "EVT1",
      "primitive": "cross_domain_mismatch",
      "domain": "MH",
      "usubjid": "MS200095-0022-VISION-JPN_SITE02-0012",
      "row_index": 28,
      "csv_line": 30,
      "seq_value": "2",
      "variables_modified": {
        "MHSTDTC": {
          "original": "2013-01-21",
          "injected": "2024-03-10"
        }
      },
      "re_derived": {},
      "expected_co_violations": [],
      "notes": "vs DM.RFSTDTC (date_after_target); DM.RFSTDTC=2024-02-09",
      "status": "injected",
      "failure_reason": null,
      "clean_row_index": 28
    },
    {
      "error_id": "INJ-SD1144-MH-002",
      "rule_id": "SD1144",
      "rule_message": "MHSTDTC date is after RFSTDTC",
      "category": "EVT1",
      "primitive": "cross_domain_mismatch",
      "domain": "MH",
      "usubjid": "MS200095-0022-VISION-DEU_SITE01-0009",
      "row_index": 8,
      "csv_line": 10,
      "seq_value": "2",
      "variables_modified": {
        "MHSTDTC": {
          "original": "2022-01",
          "injected": "2024-03-08"
        }
      },
      "re_derived": {},
      "expected_co_violations": [],
      "notes": "vs DM.RFSTDTC (date_after_target); DM.RFSTDTC=2024-02-07",
      "status": "injected",
      "failure_reason": null,
      "clean_row_index": 8
    },
    {
      "error_id": "INJ-SD1144-MH-003",
      "rule_id": "SD1144",
      "rule_message": "MHSTDTC date is after RFSTDTC",
      "category": "EVT1",
      "primitive": "cross_domain_mismatch",
      "domain": "MH",
      "usubjid": "MS200095-0022-VISION-CHN_SITE01-0015",
      "row_index": 4,
      "csv_line": 6,
      "seq_value": "3",
      "variables_modified": {
        "MHSTDTC": {
          "original": "2017-04-03",
          "injected": "2024-06-02"
        }
      },
      "re_derived": {},
      "expected_co_violations": [],
      "notes": "vs DM.RFSTDTC (date_after_target); DM.RFSTDTC=2024-05-03",
      "status": "injected",
      "failure_reason": null,
      "clean_row_index": 4
    },
    {
      "error_id": "INJ-SD1144-MH-004",
      "rule_id": "SD1144",
      "rule_message": "MHSTDTC date is after RFSTDTC",
      "category": "EVT1",
      "primitive": "cross_domain_mismatch",
      "domain": "MH",
      "usubjid": "MS200095-0022-VISION-JPN_SITE02-0005",
      "row_index": 23,
      "csv_line": 25,
      "seq_value": "1",
      "variables_modified": {
        "MHSTDTC": {
          "original": "2017-03",
          "injected": "2024-04-20"
        }
      },
      "re_derived": {},
      "expected_co_violations": [],
      "notes": "vs DM.RFSTDTC (date_after_target); DM.RFSTDTC=2024-03-21",
      "status": "injected",
      "failure_reason": null,
      "clean_row_index": 23
    },
    {
      "error_id": "INJ-SD1035-DS-001",
      "rule_id": "SD1035",
      "rule_message": "Missing value for DSCAT",
      "category": "EVT2",
      "primitive": "blank_field",
      "domain": "DS",
      "usubjid": "MS200095-0022-VISION-DEU_SITE01-0004",
      "row_index": 7,
      "csv_line": 9,
      "seq_value": "2",
      "variables_modified": {
        "DSCAT": {
          "original": "PROTOCOL MILESTONE",
          "injected": ""
        }
      },
      "re_derived": {},
      "expected_co_violations": [],
      "notes": null,
      "status": "injected",
      "failure_reason": null,
      "clean_row_index": 7
    },
    {
      "error_id": "INJ-SD1035-DS-002",
      "rule_id": "SD1035",
      "rule_message": "Missing value for DSCAT",
      "category": "EVT2",
      "primitive": "blank_field",
      "domain": "DS",
      "usubjid": "MS200095-0022-VISION-JPN_SITE02-0017",
      "row_index": 38,
      "csv_line": 40,
      "seq_value": "1",
      "variables_modified": {
        "DSCAT": {
          "original": "PROTOCOL MILESTONE",
          "injected": ""
        }
      },
      "re_derived": {},
      "expected_co_violations": [],
      "notes": null,
      "status": "injected",
      "failure_reason": null,
      "clean_row_index": 38
    },
    {
      "error_id": "INJ-SD1035-DS-003",
      "rule_id": "SD1035",
      "rule_message": "Missing value for DSCAT",
      "category": "EVT2",
      "primitive": "blank_field",
      "domain": "DS",
      "usubjid": "MS200095-0022-VISION-JPN_SITE02-0019",
      "row_index": 43,
      "csv_line": 45,
      "seq_value": "3",
      "variables_modified": {
        "DSCAT": {
          "original": "DISPOSITION EVENT",
          "injected": ""
        }
      },
      "re_derived": {},
      "expected_co_violations": [],
      "notes": null,
      "status": "injected",
      "failure_reason": null,
      "clean_row_index": 43
    },
    {
      "error_id": "INJ-SD1035-DS-004",
      "rule_id": "SD1035",
      "rule_message": "Missing value for DSCAT",
      "category": "EVT2",
      "primitive": "blank_field",
      "domain": "DS",
      "usubjid": "MS200095-0022-VISION-USA_SITE01-0007",
      "row_index": 48,
      "csv_line": 50,
      "seq_value": "3",
      "variables_modified": {
        "DSCAT": {
          "original": "DISPOSITION EVENT",
          "injected": ""
        }
      },
      "re_derived": {},
      "expected_co_violations": [],
      "notes": null,
      "status": "injected",
      "failure_reason": null,
      "clean_row_index": 48
    },
    {
      "error_id": "INJ-SD1035-DS-005",
      "rule_id": "SD1035",
      "rule_message": "Missing value for DSCAT",
      "category": "EVT2",
      "primitive": "blank_field",
      "domain": "DS",
      "usubjid": "MS200095-0022-VISION-JPN_SITE01-0016",
      "row_index": 28,
      "csv_line": 30,
      "seq_value": "3",
      "variables_modified": {
        "DSCAT": {
          "original": "DISPOSITION EVENT",
          "injected": ""
        }
      },
      "re_derived": {},
      "expected_co_violations": [],
      "notes": null,
      "status": "injected",
      "failure_reason": null,
      "clean_row_index": 28
    },
    {
      "error_id": "INJ-SD1118-DS-001",
      "rule_id": "SD1118",
      "rule_message": "Neither --STDTC, --DTC nor  --STDY are populated",
      "category": "EVT2",
      "primitive": "blank_field",
      "domain": "DS",
      "usubjid": "MS200095-0022-VISION-USA_SITE01-0007",
      "row_index": 47,
      "csv_line": 49,
      "seq_value": "2",
      "variables_modified": {
        "DSSTDTC": {
          "original": "2024-04-20",
          "injected": ""
        }
      },
      "re_derived": {},
      "expected_co_violations": [],
      "notes": null,
      "status": "injected",
      "failure_reason": null,
      "clean_row_index": 47
    },
    {
      "error_id": "INJ-SD1118-DS-001",
      "rule_id": "SD1118",
      "rule_message": "Neither --STDTC, --DTC nor  --STDY are populated",
      "category": "EVT2",
      "primitive": "blank_field",
      "domain": "DS",
      "usubjid": "MS200095-0022-VISION-USA_SITE01-0007",
      "row_index": 47,
      "csv_line": 49,
      "seq_value": "2",
      "variables_modified": {
        "DSSTDY": {
          "original": "1",
          "injected": ""
        }
      },
      "re_derived": {},
      "expected_co_violations": [],
      "notes": null,
      "status": "injected",
      "failure_reason": null,
      "clean_row_index": 47
    },
    {
      "error_id": "INJ-SD1118-DS-002",
      "rule_id": "SD1118",
      "rule_message": "Neither --STDTC, --DTC nor  --STDY are populated",
      "category": "EVT2",
      "primitive": "blank_field",
      "domain": "DS",
      "usubjid": "MS200095-0022-VISION-USA_SITE01-0018",
      "row_index": 50,
      "csv_line": 52,
      "seq_value": "2",
      "variables_modified": {
        "DSSTDTC": {
          "original": "2024-03-13",
          "injected": ""
        }
      },
      "re_derived": {},
      "expected_co_violations": [],
      "notes": null,
      "status": "injected",
      "failure_reason": null,
      "clean_row_index": 50
    },
    {
      "error_id": "INJ-SD1118-DS-002",
      "rule_id": "SD1118",
      "rule_message": "Neither --STDTC, --DTC nor  --STDY are populated",
      "category": "EVT2",
      "primitive": "blank_field",
      "domain": "DS",
      "usubjid": "MS200095-0022-VISION-USA_SITE01-0018",
      "row_index": 50,
      "csv_line": 52,
      "seq_value": "2",
      "variables_modified": {
        "DSSTDY": {
          "original": "1",
          "injected": ""
        }
      },
      "re_derived": {},
      "expected_co_violations": [],
      "notes": null,
      "status": "injected",
      "failure_reason": null,
      "clean_row_index": 50
    },
    {
      "error_id": "INJ-SD1118-DS-003",
      "rule_id": "SD1118",
      "rule_message": "Neither --STDTC, --DTC nor  --STDY are populated",
      "category": "EVT2",
      "primitive": "blank_field",
      "domain": "DS",
      "usubjid": "MS200095-0022-VISION-ITA_SITE01-0006",
      "row_index": 22,
      "csv_line": 24,
      "seq_value": "3",
      "variables_modified": {
        "DSSTDTC": {
          "original": "2025-09-22",
          "injected": ""
        }
      },
      "re_derived": {},
      "expected_co_violations": [],
      "notes": null,
      "status": "injected",
      "failure_reason": null,
      "clean_row_index": 22
    },
    {
      "error_id": "INJ-SD1118-DS-003",
      "rule_id": "SD1118",
      "rule_message": "Neither --STDTC, --DTC nor  --STDY are populated",
      "category": "EVT2",
      "primitive": "blank_field",
      "domain": "DS",
      "usubjid": "MS200095-0022-VISION-ITA_SITE01-0006",
      "row_index": 22,
      "csv_line": 24,
      "seq_value": "3",
      "variables_modified": {
        "DSSTDY": {
          "original": "562",
          "injected": ""
        }
      },
      "re_derived": {},
      "expected_co_violations": [],
      "notes": null,
      "status": "injected",
      "failure_reason": null,
      "clean_row_index": 22
    },
    {
      "error_id": "INJ-SD1118-DS-004",
      "rule_id": "SD1118",
      "rule_message": "Neither --STDTC, --DTC nor  --STDY are populated",
      "category": "EVT2",
      "primitive": "blank_field",
      "domain": "DS",
      "usubjid": "MS200095-0022-VISION-JPN_SITE02-0019",
      "row_index": 42,
      "csv_line": 44,
      "seq_value": "2",
      "variables_modified": {
        "DSSTDTC": {
          "original": "2024-02-24",
          "injected": ""
        }
      },
      "re_derived": {},
      "expected_co_violations": [],
      "notes": null,
      "status": "injected",
      "failure_reason": null,
      "clean_row_index": 42
    },
    {
      "error_id": "INJ-SD1118-DS-004",
      "rule_id": "SD1118",
      "rule_message": "Neither --STDTC, --DTC nor  --STDY are populated",
      "category": "EVT2",
      "primitive": "blank_field",
      "domain": "DS",
      "usubjid": "MS200095-0022-VISION-JPN_SITE02-0019",
      "row_index": 42,
      "csv_line": 44,
      "seq_value": "2",
      "variables_modified": {
        "DSSTDY": {
          "original": "1",
          "injected": ""
        }
      },
      "re_derived": {},
      "expected_co_violations": [],
      "notes": null,
      "status": "injected",
      "failure_reason": null,
      "clean_row_index": 42
    },
    {
      "error_id": "INJ-SD1118-DS-005",
      "rule_id": "SD1118",
      "rule_message": "Neither --STDTC, --DTC nor  --STDY are populated",
      "category": "EVT2",
      "primitive": "blank_field",
      "domain": "DS",
      "usubjid": "MS200095-0022-VISION-JPN_SITE02-0012",
      "row_index": 36,
      "csv_line": 38,
      "seq_value": "2",
      "variables_modified": {
        "DSSTDTC": {
          "original": "2024-02-09",
          "injected": ""
        }
      },
      "re_derived": {},
      "expected_co_violations": [],
      "notes": null,
      "status": "injected",
      "failure_reason": null,
      "clean_row_index": 36
    },
    {
      "error_id": "INJ-SD1118-DS-005",
      "rule_id": "SD1118",
      "rule_message": "Neither --STDTC, --DTC nor  --STDY are populated",
      "category": "EVT2",
      "primitive": "blank_field",
      "domain": "DS",
      "usubjid": "MS200095-0022-VISION-JPN_SITE02-0012",
      "row_index": 36,
      "csv_line": 38,
      "seq_value": "2",
      "variables_modified": {
        "DSSTDY": {
          "original": "1",
          "injected": ""
        }
      },
      "re_derived": {},
      "expected_co_violations": [],
      "notes": null,
      "status": "injected",
      "failure_reason": null,
      "clean_row_index": 36
    },
    {
      "error_id": "INJ-SD1256-DS-001",
      "rule_id": "SD1256",
      "rule_message": "DTHFL does not equal 'Y' when DS.DSDECOD = 'DEATH'",
      "category": "EVT2",
      "primitive": "cross_domain_mismatch",
      "domain": "DS",
      "usubjid": "MS200095-0022-VISION-USA_SITE01-0018",
      "row_index": 49,
      "csv_line": 51,
      "seq_value": "1",
      "variables_modified": {
        "DSDECOD": {
          "original": "INFORMED CONSENT OBTAINED",
          "injected": "DEATH"
        }
      },
      "re_derived": {},
      "expected_co_violations": [],
      "notes": "vs DM.DTHFL (set_source_expect_target); DM.DTHFL='' (expected 'Y')",
      "status": "injected",
      "failure_reason": null,
      "clean_row_index": 49
    },
    {
      "error_id": "INJ-SD1256-DS-002",
      "rule_id": "SD1256",
      "rule_message": "DTHFL does not equal 'Y' when DS.DSDECOD = 'DEATH'",
      "category": "EVT2",
      "primitive": "cross_domain_mismatch",
      "domain": "DS",
      "usubjid": "MS200095-0022-VISION-CHN_SITE01-0015",
      "row_index": 4,
      "csv_line": 6,
      "seq_value": "2",
      "variables_modified": {
        "DSDECOD": {
          "original": "RANDOMIZED",
          "injected": "DEATH"
        }
      },
      "re_derived": {},
      "expected_co_violations": [],
      "notes": "vs DM.DTHFL (set_source_expect_target); DM.DTHFL='' (expected 'Y')",
      "status": "injected",
      "failure_reason": null,
      "clean_row_index": 4
    },
    {
      "error_id": "INJ-SD1256-DS-003",
      "rule_id": "SD1256",
      "rule_message": "DTHFL does not equal 'Y' when DS.DSDECOD = 'DEATH'",
      "category": "EVT2",
      "primitive": "cross_domain_mismatch",
      "domain": "DS",
      "usubjid": "MS200095-0022-VISION-CHN_SITE01-0015",
      "row_index": 3,
      "csv_line": 5,
      "seq_value": "1",
      "variables_modified": {
        "DSDECOD": {
          "original": "INFORMED CONSENT OBTAINED",
          "injected": "DEATH"
        }
      },
      "re_derived": {},
      "expected_co_violations": [],
      "notes": "vs DM.DTHFL (set_source_expect_target); DM.DTHFL='' (expected 'Y')",
      "status": "injected",
      "failure_reason": null,
      "clean_row_index": 3
    },
    {
      "error_id": "INJ-SD1256-DS-004",
      "rule_id": "SD1256",
      "rule_message": "DTHFL does not equal 'Y' when DS.DSDECOD = 'DEATH'",
      "category": "EVT2",
      "primitive": "cross_domain_mismatch",
      "domain": "DS",
      "usubjid": "MS200095-0022-VISION-JPN_SITE02-0005",
      "row_index": 30,
      "csv_line": 32,
      "seq_value": "2",
      "variables_modified": {
        "DSDECOD": {
          "original": "RANDOMIZED",
          "injected": "DEATH"
        }
      },
      "re_derived": {},
      "expected_co_violations": [],
      "notes": "vs DM.DTHFL (set_source_expect_target); DM.DTHFL='' (expected 'Y')",
      "status": "injected",
      "failure_reason": null,
      "clean_row_index": 30
    },
    {
      "error_id": "INJ-SD1256-DS-005",
      "rule_id": "SD1256",
      "rule_message": "DTHFL does not equal 'Y' when DS.DSDECOD = 'DEATH'",
      "category": "EVT2",
      "primitive": "cross_domain_mismatch",
      "domain": "DS",
      "usubjid": "MS200095-0022-VISION-USA_SITE02-0014",
      "row_index": 57,
      "csv_line": 59,
      "seq_value": "3",
      "variables_modified": {
        "DSDECOD": {
          "original": "ADVERSE EVENT",
          "injected": "DEATH"
        }
      },
      "re_derived": {},
      "expected_co_violations": [],
      "notes": "vs DM.DTHFL (set_source_expect_target); DM.DTHFL='' (expected 'Y')",
      "status": "injected",
      "failure_reason": null,
      "clean_row_index": 57
    },
    {
      "error_id": "INJ-SD0009-AE-001",
      "rule_id": "SD0009",
      "rule_message": "No qualifiers set to 'Y', when AE is Serious",
      "category": "EVT1",
      "primitive": "blank_field",
      "domain": "AE",
      "usubjid": "MS200095-0022-VISION-JPN_SITE02-0010",
      "row_index": 216,
      "csv_line": 218,
      "seq_value": "2",
      "variables_modified": {
        "AESCONG": {
          "original": "N",
          "injected": ""
        }
      },
      "re_derived": {},
      "expected_co_violations": [],
      "notes": null,
      "status": "injected",
      "failure_reason": null,
      "clean_row_index": 216
    },
    {
      "error_id": "INJ-SD0009-AE-001",
      "rule_id": "SD0009",
      "rule_message": "No qualifiers set to 'Y', when AE is Serious",
      "category": "EVT1",
      "primitive": "blank_field",
      "domain": "AE",
      "usubjid": "MS200095-0022-VISION-JPN_SITE02-0010",
      "row_index": 216,
      "csv_line": 218,
      "seq_value": "2",
      "variables_modified": {
        "AESDISAB": {
          "original": "N",
          "injected": ""
        }
      },
      "re_derived": {},
      "expected_co_violations": [],
      "notes": null,
      "status": "injected",
      "failure_reason": null,
      "clean_row_index": 216
    },
    {
      "error_id": "INJ-SD0009-AE-001",
      "rule_id": "SD0009",
      "rule_message": "No qualifiers set to 'Y', when AE is Serious",
      "category": "EVT1",
      "primitive": "blank_field",
      "domain": "AE",
      "usubjid": "MS200095-0022-VISION-JPN_SITE02-0010",
      "row_index": 216,
      "csv_line": 218,
      "seq_value": "2",
      "variables_modified": {
        "AESDTH": {
          "original": "N",
          "injected": ""
        }
      },
      "re_derived": {},
      "expected_co_violations": [],
      "notes": null,
      "status": "injected",
      "failure_reason": null,
      "clean_row_index": 216
    },
    {
      "error_id": "INJ-SD0009-AE-001",
      "rule_id": "SD0009",
      "rule_message": "No qualifiers set to 'Y', when AE is Serious",
      "category": "EVT1",
      "primitive": "blank_field",
      "domain": "AE",
      "usubjid": "MS200095-0022-VISION-JPN_SITE02-0010",
      "row_index": 216,
      "csv_line": 218,
      "seq_value": "2",
      "variables_modified": {
        "AESHOSP": {
          "original": "Y",
          "injected": ""
        }
      },
      "re_derived": {},
      "expected_co_violations": [],
      "notes": null,
      "status": "injected",
      "failure_reason": null,
      "clean_row_index": 216
    },
    {
      "error_id": "INJ-SD0009-AE-001",
      "rule_id": "SD0009",
      "rule_message": "No qualifiers set to 'Y', when AE is Serious",
      "category": "EVT1",
      "primitive": "blank_field",
      "domain": "AE",
      "usubjid": "MS200095-0022-VISION-JPN_SITE02-0010",
      "row_index": 216,
      "csv_line": 218,
      "seq_value": "2",
      "variables_modified": {
        "AESLIFE": {
          "original": "N",
          "injected": ""
        }
      },
      "re_derived": {},
      "expected_co_violations": [],
      "notes": null,
      "status": "injected",
      "failure_reason": null,
      "clean_row_index": 216
    },
    {
      "error_id": "INJ-SD0009-AE-001",
      "rule_id": "SD0009",
      "rule_message": "No qualifiers set to 'Y', when AE is Serious",
      "category": "EVT1",
      "primitive": "blank_field",
      "domain": "AE",
      "usubjid": "MS200095-0022-VISION-JPN_SITE02-0010",
      "row_index": 216,
      "csv_line": 218,
      "seq_value": "2",
      "variables_modified": {
        "AESMIE": {
          "original": "N",
          "injected": ""
        }
      },
      "re_derived": {},
      "expected_co_violations": [],
      "notes": null,
      "status": "injected",
      "failure_reason": null,
      "clean_row_index": 216
    },
    {
      "error_id": "INJ-SD0009-AE-002",
      "rule_id": "SD0009",
      "rule_message": "No qualifiers set to 'Y', when AE is Serious",
      "category": "EVT1",
      "primitive": "blank_field",
      "domain": "AE",
      "usubjid": "MS200095-0022-VISION-JPN_SITE02-0019",
      "row_index": 349,
      "csv_line": 351,
      "seq_value": "62",
      "variables_modified": {
        "AESCONG": {
          "original": "N",
          "injected": ""
        }
      },
      "re_derived": {},
      "expected_co_violations": [],
      "notes": null,
      "status": "injected",
      "failure_reason": null,
      "clean_row_index": 349
    },
    {
      "error_id": "INJ-SD0009-AE-002",
      "rule_id": "SD0009",
      "rule_message": "No qualifiers set to 'Y', when AE is Serious",
      "category": "EVT1",
      "primitive": "blank_field",
      "domain": "AE",
      "usubjid": "MS200095-0022-VISION-JPN_SITE02-0019",
      "row_index": 349,
      "csv_line": 351,
      "seq_value": "62",
      "variables_modified": {
        "AESDISAB": {
          "original": "N",
          "injected": ""
        }
      },
      "re_derived": {},
      "expected_co_violations": [],
      "notes": null,
      "status": "injected",
      "failure_reason": null,
      "clean_row_index": 349
    },
    {
      "error_id": "INJ-SD0009-AE-002",
      "rule_id": "SD0009",
      "rule_message": "No qualifiers set to 'Y', when AE is Serious",
      "category": "EVT1",
      "primitive": "blank_field",
      "domain": "AE",
      "usubjid": "MS200095-0022-VISION-JPN_SITE02-0019",
      "row_index": 349,
      "csv_line": 351,
      "seq_value": "62",
      "variables_modified": {
        "AESDTH": {
          "original": "N",
          "injected": ""
        }
      },
      "re_derived": {},
      "expected_co_violations": [],
      "notes": null,
      "status": "injected",
      "failure_reason": null,
      "clean_row_index": 349
    },
    {
      "error_id": "INJ-SD0009-AE-002",
      "rule_id": "SD0009",
      "rule_message": "No qualifiers set to 'Y', when AE is Serious",
      "category": "EVT1",
      "primitive": "blank_field",
      "domain": "AE",
      "usubjid": "MS200095-0022-VISION-JPN_SITE02-0019",
      "row_index": 349,
      "csv_line": 351,
      "seq_value": "62",
      "variables_modified": {
        "AESHOSP": {
          "original": "Y",
          "injected": ""
        }
      },
      "re_derived": {},
      "expected_co_violations": [],
      "notes": null,
      "status": "injected",
      "failure_reason": null,
      "clean_row_index": 349
    },
    {
      "error_id": "INJ-SD0009-AE-002",
      "rule_id": "SD0009",
      "rule_message": "No qualifiers set to 'Y', when AE is Serious",
      "category": "EVT1",
      "primitive": "blank_field",
      "domain": "AE",
      "usubjid": "MS200095-0022-VISION-JPN_SITE02-0019",
      "row_index": 349,
      "csv_line": 351,
      "seq_value": "62",
      "variables_modified": {
        "AESLIFE": {
          "original": "N",
          "injected": ""
        }
      },
      "re_derived": {},
      "expected_co_violations": [],
      "notes": null,
      "status": "injected",
      "failure_reason": null,
      "clean_row_index": 349
    },
    {
      "error_id": "INJ-SD0009-AE-002",
      "rule_id": "SD0009",
      "rule_message": "No qualifiers set to 'Y', when AE is Serious",
      "category": "EVT1",
      "primitive": "blank_field",
      "domain": "AE",
      "usubjid": "MS200095-0022-VISION-JPN_SITE02-0019",
      "row_index": 349,
      "csv_line": 351,
      "seq_value": "62",
      "variables_modified": {
        "AESMIE": {
          "original": "N",
          "injected": ""
        }
      },
      "re_derived": {},
      "expected_co_violations": [],
      "notes": null,
      "status": "injected",
      "failure_reason": null,
      "clean_row_index": 349
    },
    {
      "error_id": "INJ-SD0009-AE-003",
      "rule_id": "SD0009",
      "rule_message": "No qualifiers set to 'Y', when AE is Serious",
      "category": "EVT1",
      "primitive": "blank_field",
      "domain": "AE",
      "usubjid": "MS200095-0022-VISION-CHN_SITE01-0015",
      "row_index": 37,
      "csv_line": 39,
      "seq_value": "36",
      "variables_modified": {
        "AESCONG": {
          "original": "N",
          "injected": ""
        }
      },
      "re_derived": {},
      "expected_co_violations": [],
      "notes": null,
      "status": "injected",
      "failure_reason": null,
      "clean_row_index": 37
    },
    {
      "error_id": "INJ-SD0009-AE-003",
      "rule_id": "SD0009",
      "rule_message": "No qualifiers set to 'Y', when AE is Serious",
      "category": "EVT1",
      "primitive": "blank_field",
      "domain": "AE",
      "usubjid": "MS200095-0022-VISION-CHN_SITE01-0015",
      "row_index": 37,
      "csv_line": 39,
      "seq_value": "36",
      "variables_modified": {
        "AESDISAB": {
          "original": "N",
          "injected": ""
        }
      },
      "re_derived": {},
      "expected_co_violations": [],
      "notes": null,
      "status": "injected",
      "failure_reason": null,
      "clean_row_index": 37
    },
    {
      "error_id": "INJ-SD0009-AE-003",
      "rule_id": "SD0009",
      "rule_message": "No qualifiers set to 'Y', when AE is Serious",
      "category": "EVT1",
      "primitive": "blank_field",
      "domain": "AE",
      "usubjid": "MS200095-0022-VISION-CHN_SITE01-0015",
      "row_index": 37,
      "csv_line": 39,
      "seq_value": "36",
      "variables_modified": {
        "AESDTH": {
          "original": "N",
          "injected": ""
        }
      },
      "re_derived": {},
      "expected_co_violations": [],
      "notes": null,
      "status": "injected",
      "failure_reason": null,
      "clean_row_index": 37
    },
    {
      "error_id": "INJ-SD0009-AE-003",
      "rule_id": "SD0009",
      "rule_message": "No qualifiers set to 'Y', when AE is Serious",
      "category": "EVT1",
      "primitive": "blank_field",
      "domain": "AE",
      "usubjid": "MS200095-0022-VISION-CHN_SITE01-0015",
      "row_index": 37,
      "csv_line": 39,
      "seq_value": "36",
      "variables_modified": {
        "AESHOSP": {
          "original": "Y",
          "injected": ""
        }
      },
      "re_derived": {},
      "expected_co_violations": [],
      "notes": null,
      "status": "injected",
      "failure_reason": null,
      "clean_row_index": 37
    },
    {
      "error_id": "INJ-SD0009-AE-003",
      "rule_id": "SD0009",
      "rule_message": "No qualifiers set to 'Y', when AE is Serious",
      "category": "EVT1",
      "primitive": "blank_field",
      "domain": "AE",
      "usubjid": "MS200095-0022-VISION-CHN_SITE01-0015",
      "row_index": 37,
      "csv_line": 39,
      "seq_value": "36",
      "variables_modified": {
        "AESLIFE": {
          "original": "N",
          "injected": ""
        }
      },
      "re_derived": {},
      "expected_co_violations": [],
      "notes": null,
      "status": "injected",
      "failure_reason": null,
      "clean_row_index": 37
    },
    {
      "error_id": "INJ-SD0009-AE-003",
      "rule_id": "SD0009",
      "rule_message": "No qualifiers set to 'Y', when AE is Serious",
      "category": "EVT1",
      "primitive": "blank_field",
      "domain": "AE",
      "usubjid": "MS200095-0022-VISION-CHN_SITE01-0015",
      "row_index": 37,
      "csv_line": 39,
      "seq_value": "36",
      "variables_modified": {
        "AESMIE": {
          "original": "N",
          "injected": ""
        }
      },
      "re_derived": {},
      "expected_co_violations": [],
      "notes": null,
      "status": "injected",
      "failure_reason": null,
      "clean_row_index": 37
    },
    {
      "error_id": "INJ-SD0009-AE-004",
      "rule_id": "SD0009",
      "rule_message": "No qualifiers set to 'Y', when AE is Serious",
      "category": "EVT1",
      "primitive": "blank_field",
      "domain": "AE",
      "usubjid": "MS200095-0022-VISION-USA_SITE02-0014",
      "row_index": 451,
      "csv_line": 453,
      "seq_value": "43",
      "variables_modified": {
        "AESCONG": {
          "original": "N",
          "injected": ""
        }
      },
      "re_derived": {},
      "expected_co_violations": [],
      "notes": null,
      "status": "injected",
      "failure_reason": null,
      "clean_row_index": 451
    },
    {
      "error_id": "INJ-SD0009-AE-004",
      "rule_id": "SD0009",
      "rule_message": "No qualifiers set to 'Y', when AE is Serious",
      "category": "EVT1",
      "primitive": "blank_field",
      "domain": "AE",
      "usubjid": "MS200095-0022-VISION-USA_SITE02-0014",
      "row_index": 451,
      "csv_line": 453,
      "seq_value": "43",
      "variables_modified": {
        "AESDISAB": {
          "original": "N",
          "injected": ""
        }
      },
      "re_derived": {},
      "expected_co_violations": [],
      "notes": null,
      "status": "injected",
      "failure_reason": null,
      "clean_row_index": 451
    },
    {
      "error_id": "INJ-SD0009-AE-004",
      "rule_id": "SD0009",
      "rule_message": "No qualifiers set to 'Y', when AE is Serious",
      "category": "EVT1",
      "primitive": "blank_field",
      "domain": "AE",
      "usubjid": "MS200095-0022-VISION-USA_SITE02-0014",
      "row_index": 451,
      "csv_line": 453,
      "seq_value": "43",
      "variables_modified": {
        "AESDTH": {
          "original": "N",
          "injected": ""
        }
      },
      "re_derived": {},
      "expected_co_violations": [],
      "notes": null,
      "status": "injected",
      "failure_reason": null,
      "clean_row_index": 451
    },
    {
      "error_id": "INJ-SD0009-AE-004",
      "rule_id": "SD0009",
      "rule_message": "No qualifiers set to 'Y', when AE is Serious",
      "category": "EVT1",
      "primitive": "blank_field",
      "domain": "AE",
      "usubjid": "MS200095-0022-VISION-USA_SITE02-0014",
      "row_index": 451,
      "csv_line": 453,
      "seq_value": "43",
      "variables_modified": {
        "AESHOSP": {
          "original": "Y",
          "injected": ""
        }
      },
      "re_derived": {},
      "expected_co_violations": [],
      "notes": null,
      "status": "injected",
      "failure_reason": null,
      "clean_row_index": 451
    },
    {
      "error_id": "INJ-SD0009-AE-004",
      "rule_id": "SD0009",
      "rule_message": "No qualifiers set to 'Y', when AE is Serious",
      "category": "EVT1",
      "primitive": "blank_field",
      "domain": "AE",
      "usubjid": "MS200095-0022-VISION-USA_SITE02-0014",
      "row_index": 451,
      "csv_line": 453,
      "seq_value": "43",
      "variables_modified": {
        "AESLIFE": {
          "original": "N",
          "injected": ""
        }
      },
      "re_derived": {},
      "expected_co_violations": [],
      "notes": null,
      "status": "injected",
      "failure_reason": null,
      "clean_row_index": 451
    },
    {
      "error_id": "INJ-SD0009-AE-004",
      "rule_id": "SD0009",
      "rule_message": "No qualifiers set to 'Y', when AE is Serious",
      "category": "EVT1",
      "primitive": "blank_field",
      "domain": "AE",
      "usubjid": "MS200095-0022-VISION-USA_SITE02-0014",
      "row_index": 451,
      "csv_line": 453,
      "seq_value": "43",
      "variables_modified": {
        "AESMIE": {
          "original": "N",
          "injected": ""
        }
      },
      "re_derived": {},
      "expected_co_violations": [],
      "notes": null,
      "status": "injected",
      "failure_reason": null,
      "clean_row_index": 451
    },
    {
      "error_id": "INJ-SD0009-AE-005",
      "rule_id": "SD0009",
      "rule_message": "No qualifiers set to 'Y', when AE is Serious",
      "category": "EVT1",
      "primitive": "blank_field",
      "domain": "AE",
      "usubjid": "MS200095-0022-VISION-JPN_SITE02-0019",
      "row_index": 342,
      "csv_line": 344,
      "seq_value": "55",
      "variables_modified": {
        "AESCONG": {
          "original": "N",
          "injected": ""
        }
      },
      "re_derived": {},
      "expected_co_violations": [],
      "notes": null,
      "status": "injected",
      "failure_reason": null,
      "clean_row_index": 342
    },
    {
      "error_id": "INJ-SD0009-AE-005",
      "rule_id": "SD0009",
      "rule_message": "No qualifiers set to 'Y', when AE is Serious",
      "category": "EVT1",
      "primitive": "blank_field",
      "domain": "AE",
      "usubjid": "MS200095-0022-VISION-JPN_SITE02-0019",
      "row_index": 342,
      "csv_line": 344,
      "seq_value": "55",
      "variables_modified": {
        "AESDISAB": {
          "original": "N",
          "injected": ""
        }
      },
      "re_derived": {},
      "expected_co_violations": [],
      "notes": null,
      "status": "injected",
      "failure_reason": null,
      "clean_row_index": 342
    },
    {
      "error_id": "INJ-SD0009-AE-005",
      "rule_id": "SD0009",
      "rule_message": "No qualifiers set to 'Y', when AE is Serious",
      "category": "EVT1",
      "primitive": "blank_field",
      "domain": "AE",
      "usubjid": "MS200095-0022-VISION-JPN_SITE02-0019",
      "row_index": 342,
      "csv_line": 344,
      "seq_value": "55",
      "variables_modified": {
        "AESDTH": {
          "original": "N",
          "injected": ""
        }
      },
      "re_derived": {},
      "expected_co_violations": [],
      "notes": null,
      "status": "injected",
      "failure_reason": null,
      "clean_row_index": 342
    },
    {
      "error_id": "INJ-SD0009-AE-005",
      "rule_id": "SD0009",
      "rule_message": "No qualifiers set to 'Y', when AE is Serious",
      "category": "EVT1",
      "primitive": "blank_field",
      "domain": "AE",
      "usubjid": "MS200095-0022-VISION-JPN_SITE02-0019",
      "row_index": 342,
      "csv_line": 344,
      "seq_value": "55",
      "variables_modified": {
        "AESHOSP": {
          "original": "Y",
          "injected": ""
        }
      },
      "re_derived": {},
      "expected_co_violations": [],
      "notes": null,
      "status": "injected",
      "failure_reason": null,
      "clean_row_index": 342
    },
    {
      "error_id": "INJ-SD0009-AE-005",
      "rule_id": "SD0009",
      "rule_message": "No qualifiers set to 'Y', when AE is Serious",
      "category": "EVT1",
      "primitive": "blank_field",
      "domain": "AE",
      "usubjid": "MS200095-0022-VISION-JPN_SITE02-0019",
      "row_index": 342,
      "csv_line": 344,
      "seq_value": "55",
      "variables_modified": {
        "AESLIFE": {
          "original": "N",
          "injected": ""
        }
      },
      "re_derived": {},
      "expected_co_violations": [],
      "notes": null,
      "status": "injected",
      "failure_reason": null,
      "clean_row_index": 342
    },
    {
      "error_id": "INJ-SD0009-AE-005",
      "rule_id": "SD0009",
      "rule_message": "No qualifiers set to 'Y', when AE is Serious",
      "category": "EVT1",
      "primitive": "blank_field",
      "domain": "AE",
      "usubjid": "MS200095-0022-VISION-JPN_SITE02-0019",
      "row_index": 342,
      "csv_line": 344,
      "seq_value": "55",
      "variables_modified": {
        "AESMIE": {
          "original": "N",
          "injected": ""
        }
      },
      "re_derived": {},
      "expected_co_violations": [],
      "notes": null,
      "status": "injected",
      "failure_reason": null,
      "clean_row_index": 342
    },
    {
      "error_id": "INJ-SD0009-AE-006",
      "rule_id": "SD0009",
      "rule_message": "No qualifiers set to 'Y', when AE is Serious",
      "category": "EVT1",
      "primitive": "blank_field",
      "domain": "AE",
      "usubjid": "MS200095-0022-VISION-JPN_SITE02-0019",
      "row_index": 339,
      "csv_line": 341,
      "seq_value": "52",
      "variables_modified": {
        "AESCONG": {
          "original": "N",
          "injected": ""
        }
      },
      "re_derived": {},
      "expected_co_violations": [],
      "notes": null,
      "status": "injected",
      "failure_reason": null,
      "clean_row_index": 339
    },
    {
      "error_id": "INJ-SD0009-AE-006",
      "rule_id": "SD0009",
      "rule_message": "No qualifiers set to 'Y', when AE is Serious",
      "category": "EVT1",
      "primitive": "blank_field",
      "domain": "AE",
      "usubjid": "MS200095-0022-VISION-JPN_SITE02-0019",
      "row_index": 339,
      "csv_line": 341,
      "seq_value": "52",
      "variables_modified": {
        "AESDISAB": {
          "original": "N",
          "injected": ""
        }
      },
      "re_derived": {},
      "expected_co_violations": [],
      "notes": null,
      "status": "injected",
      "failure_reason": null,
      "clean_row_index": 339
    },
    {
      "error_id": "INJ-SD0009-AE-006",
      "rule_id": "SD0009",
      "rule_message": "No qualifiers set to 'Y', when AE is Serious",
      "category": "EVT1",
      "primitive": "blank_field",
      "domain": "AE",
      "usubjid": "MS200095-0022-VISION-JPN_SITE02-0019",
      "row_index": 339,
      "csv_line": 341,
      "seq_value": "52",
      "variables_modified": {
        "AESDTH": {
          "original": "N",
          "injected": ""
        }
      },
      "re_derived": {},
      "expected_co_violations": [],
      "notes": null,
      "status": "injected",
      "failure_reason": null,
      "clean_row_index": 339
    },
    {
      "error_id": "INJ-SD0009-AE-006",
      "rule_id": "SD0009",
      "rule_message": "No qualifiers set to 'Y', when AE is Serious",
      "category": "EVT1",
      "primitive": "blank_field",
      "domain": "AE",
      "usubjid": "MS200095-0022-VISION-JPN_SITE02-0019",
      "row_index": 339,
      "csv_line": 341,
      "seq_value": "52",
      "variables_modified": {
        "AESHOSP": {
          "original": "N",
          "injected": ""
        }
      },
      "re_derived": {},
      "expected_co_violations": [],
      "notes": null,
      "status": "injected",
      "failure_reason": null,
      "clean_row_index": 339
    },
    {
      "error_id": "INJ-SD0009-AE-006",
      "rule_id": "SD0009",
      "rule_message": "No qualifiers set to 'Y', when AE is Serious",
      "category": "EVT1",
      "primitive": "blank_field",
      "domain": "AE",
      "usubjid": "MS200095-0022-VISION-JPN_SITE02-0019",
      "row_index": 339,
      "csv_line": 341,
      "seq_value": "52",
      "variables_modified": {
        "AESLIFE": {
          "original": "N",
          "injected": ""
        }
      },
      "re_derived": {},
      "expected_co_violations": [],
      "notes": null,
      "status": "injected",
      "failure_reason": null,
      "clean_row_index": 339
    },
    {
      "error_id": "INJ-SD0009-AE-006",
      "rule_id": "SD0009",
      "rule_message": "No qualifiers set to 'Y', when AE is Serious",
      "category": "EVT1",
      "primitive": "blank_field",
      "domain": "AE",
      "usubjid": "MS200095-0022-VISION-JPN_SITE02-0019",
      "row_index": 339,
      "csv_line": 341,
      "seq_value": "52",
      "variables_modified": {
        "AESMIE": {
          "original": "Y",
          "injected": ""
        }
      },
      "re_derived": {},
      "expected_co_violations": [],
      "notes": null,
      "status": "injected",
      "failure_reason": null,
      "clean_row_index": 339
    },
    {
      "error_id": "INJ-SD0009-AE-007",
      "rule_id": "SD0009",
      "rule_message": "No qualifiers set to 'Y', when AE is Serious",
      "category": "EVT1",
      "primitive": "blank_field",
      "domain": "AE",
      "usubjid": "MS200095-0022-VISION-JPN_SITE02-0012",
      "row_index": 248,
      "csv_line": 250,
      "seq_value": "27",
      "variables_modified": {
        "AESCONG": {
          "original": "N",
          "injected": ""
        }
      },
      "re_derived": {},
      "expected_co_violations": [],
      "notes": null,
      "status": "injected",
      "failure_reason": null,
      "clean_row_index": 248
    },
    {
      "error_id": "INJ-SD0009-AE-007",
      "rule_id": "SD0009",
      "rule_message": "No qualifiers set to 'Y', when AE is Serious",
      "category": "EVT1",
      "primitive": "blank_field",
      "domain": "AE",
      "usubjid": "MS200095-0022-VISION-JPN_SITE02-0012",
      "row_index": 248,
      "csv_line": 250,
      "seq_value": "27",
      "variables_modified": {
        "AESDISAB": {
          "original": "N",
          "injected": ""
        }
      },
      "re_derived": {},
      "expected_co_violations": [],
      "notes": null,
      "status": "injected",
      "failure_reason": null,
      "clean_row_index": 248
    },
    {
      "error_id": "INJ-SD0009-AE-007",
      "rule_id": "SD0009",
      "rule_message": "No qualifiers set to 'Y', when AE is Serious",
      "category": "EVT1",
      "primitive": "blank_field",
      "domain": "AE",
      "usubjid": "MS200095-0022-VISION-JPN_SITE02-0012",
      "row_index": 248,
      "csv_line": 250,
      "seq_value": "27",
      "variables_modified": {
        "AESDTH": {
          "original": "N",
          "injected": ""
        }
      },
      "re_derived": {},
      "expected_co_violations": [],
      "notes": null,
      "status": "injected",
      "failure_reason": null,
      "clean_row_index": 248
    },
    {
      "error_id": "INJ-SD0009-AE-007",
      "rule_id": "SD0009",
      "rule_message": "No qualifiers set to 'Y', when AE is Serious",
      "category": "EVT1",
      "primitive": "blank_field",
      "domain": "AE",
      "usubjid": "MS200095-0022-VISION-JPN_SITE02-0012",
      "row_index": 248,
      "csv_line": 250,
      "seq_value": "27",
      "variables_modified": {
        "AESHOSP": {
          "original": "Y",
          "injected": ""
        }
      },
      "re_derived": {},
      "expected_co_violations": [],
      "notes": null,
      "status": "injected",
      "failure_reason": null,
      "clean_row_index": 248
    },
    {
      "error_id": "INJ-SD0009-AE-007",
      "rule_id": "SD0009",
      "rule_message": "No qualifiers set to 'Y', when AE is Serious",
      "category": "EVT1",
      "primitive": "blank_field",
      "domain": "AE",
      "usubjid": "MS200095-0022-VISION-JPN_SITE02-0012",
      "row_index": 248,
      "csv_line": 250,
      "seq_value": "27",
      "variables_modified": {
        "AESLIFE": {
          "original": "N",
          "injected": ""
        }
      },
      "re_derived": {},
      "expected_co_violations": [],
      "notes": null,
      "status": "injected",
      "failure_reason": null,
      "clean_row_index": 248
    },
    {
      "error_id": "INJ-SD0009-AE-007",
      "rule_id": "SD0009",
      "rule_message": "No qualifiers set to 'Y', when AE is Serious",
      "category": "EVT1",
      "primitive": "blank_field",
      "domain": "AE",
      "usubjid": "MS200095-0022-VISION-JPN_SITE02-0012",
      "row_index": 248,
      "csv_line": 250,
      "seq_value": "27",
      "variables_modified": {
        "AESMIE": {
          "original": "N",
          "injected": ""
        }
      },
      "re_derived": {},
      "expected_co_violations": [],
      "notes": null,
      "status": "injected",
      "failure_reason": null,
      "clean_row_index": 248
    },
    {
      "error_id": "INJ-SD0009-AE-008",
      "rule_id": "SD0009",
      "rule_message": "No qualifiers set to 'Y', when AE is Serious",
      "category": "EVT1",
      "primitive": "blank_field",
      "domain": "AE",
      "usubjid": "MS200095-0022-VISION-USA_SITE02-0014",
      "row_index": 417,
      "csv_line": 419,
      "seq_value": "9",
      "variables_modified": {
        "AESCONG": {
          "original": "N",
          "injected": ""
        }
      },
      "re_derived": {},
      "expected_co_violations": [],
      "notes": null,
      "status": "injected",
      "failure_reason": null,
      "clean_row_index": 417
    },
    {
      "error_id": "INJ-SD0009-AE-008",
      "rule_id": "SD0009",
      "rule_message": "No qualifiers set to 'Y', when AE is Serious",
      "category": "EVT1",
      "primitive": "blank_field",
      "domain": "AE",
      "usubjid": "MS200095-0022-VISION-USA_SITE02-0014",
      "row_index": 417,
      "csv_line": 419,
      "seq_value": "9",
      "variables_modified": {
        "AESDISAB": {
          "original": "N",
          "injected": ""
        }
      },
      "re_derived": {},
      "expected_co_violations": [],
      "notes": null,
      "status": "injected",
      "failure_reason": null,
      "clean_row_index": 417
    },
    {
      "error_id": "INJ-SD0009-AE-008",
      "rule_id": "SD0009",
      "rule_message": "No qualifiers set to 'Y', when AE is Serious",
      "category": "EVT1",
      "primitive": "blank_field",
      "domain": "AE",
      "usubjid": "MS200095-0022-VISION-USA_SITE02-0014",
      "row_index": 417,
      "csv_line": 419,
      "seq_value": "9",
      "variables_modified": {
        "AESDTH": {
          "original": "N",
          "injected": ""
        }
      },
      "re_derived": {},
      "expected_co_violations": [],
      "notes": null,
      "status": "injected",
      "failure_reason": null,
      "clean_row_index": 417
    },
    {
      "error_id": "INJ-SD0009-AE-008",
      "rule_id": "SD0009",
      "rule_message": "No qualifiers set to 'Y', when AE is Serious",
      "category": "EVT1",
      "primitive": "blank_field",
      "domain": "AE",
      "usubjid": "MS200095-0022-VISION-USA_SITE02-0014",
      "row_index": 417,
      "csv_line": 419,
      "seq_value": "9",
      "variables_modified": {
        "AESHOSP": {
          "original": "Y",
          "injected": ""
        }
      },
      "re_derived": {},
      "expected_co_violations": [],
      "notes": null,
      "status": "injected",
      "failure_reason": null,
      "clean_row_index": 417
    },
    {
      "error_id": "INJ-SD0009-AE-008",
      "rule_id": "SD0009",
      "rule_message": "No qualifiers set to 'Y', when AE is Serious",
      "category": "EVT1",
      "primitive": "blank_field",
      "domain": "AE",
      "usubjid": "MS200095-0022-VISION-USA_SITE02-0014",
      "row_index": 417,
      "csv_line": 419,
      "seq_value": "9",
      "variables_modified": {
        "AESLIFE": {
          "original": "N",
          "injected": ""
        }
      },
      "re_derived": {},
      "expected_co_violations": [],
      "notes": null,
      "status": "injected",
      "failure_reason": null,
      "clean_row_index": 417
    },
    {
      "error_id": "INJ-SD0009-AE-008",
      "rule_id": "SD0009",
      "rule_message": "No qualifiers set to 'Y', when AE is Serious",
      "category": "EVT1",
      "primitive": "blank_field",
      "domain": "AE",
      "usubjid": "MS200095-0022-VISION-USA_SITE02-0014",
      "row_index": 417,
      "csv_line": 419,
      "seq_value": "9",
      "variables_modified": {
        "AESMIE": {
          "original": "N",
          "injected": ""
        }
      },
      "re_derived": {},
      "expected_co_violations": [],
      "notes": null,
      "status": "injected",
      "failure_reason": null,
      "clean_row_index": 417
    },
    {
      "error_id": "INJ-SD1333-AE-001",
      "rule_id": "SD1333",
      "rule_message": "AEOUT = RECOVERED/RESOLVED, but an end date or collected duration is not provided",
      "category": "EVT1",
      "primitive": "blank_field",
      "domain": "AE",
      "usubjid": "MS200095-0022-VISION-ITA_SITE01-0011",
      "row_index": 159,
      "csv_line": 161,
      "seq_value": "10",
      "variables_modified": {
        "AEENDTC": {
          "original": "2024-07-28",
          "injected": ""
        }
      },
      "re_derived": {},
      "expected_co_violations": [],
      "notes": null,
      "status": "injected",
      "failure_reason": null,
      "clean_row_index": 159
    },
    {
      "error_id": "INJ-SD1333-AE-002",
      "rule_id": "SD1333",
      "rule_message": "AEOUT = RECOVERED/RESOLVED, but an end date or collected duration is not provided",
      "category": "EVT1",
      "primitive": "blank_field",
      "domain": "AE",
      "usubjid": "MS200095-0022-VISION-FRA_SITE01-0013",
      "row_index": 82,
      "csv_line": 84,
      "seq_value": "3",
      "variables_modified": {
        "AEENDTC": {
          "original": "2024-03-28",
          "injected": ""
        }
      },
      "re_derived": {},
      "expected_co_violations": [],
      "notes": null,
      "status": "injected",
      "failure_reason": null,
      "clean_row_index": 82
    },
    {
      "error_id": "INJ-SD1333-AE-003",
      "rule_id": "SD1333",
      "rule_message": "AEOUT = RECOVERED/RESOLVED, but an end date or collected duration is not provided",
      "category": "EVT1",
      "primitive": "blank_field",
      "domain": "AE",
      "usubjid": "MS200095-0022-VISION-USA_SITE01-0018",
      "row_index": 377,
      "csv_line": 379,
      "seq_value": "5",
      "variables_modified": {
        "AEENDTC": {
          "original": "2024-06-09",
          "injected": ""
        }
      },
      "re_derived": {},
      "expected_co_violations": [],
      "notes": null,
      "status": "injected",
      "failure_reason": null,
      "clean_row_index": 377
    },
    {
      "error_id": "INJ-SD1333-AE-004",
      "rule_id": "SD1333",
      "rule_message": "AEOUT = RECOVERED/RESOLVED, but an end date or collected duration is not provided",
      "category": "EVT1",
      "primitive": "blank_field",
      "domain": "AE",
      "usubjid": "MS200095-0022-VISION-ITA_SITE01-0011",
      "row_index": 156,
      "csv_line": 158,
      "seq_value": "7",
      "variables_modified": {
        "AEENDTC": {
          "original": "2024-04-19",
          "injected": ""
        }
      },
      "re_derived": {},
      "expected_co_violations": [],
      "notes": null,
      "status": "injected",
      "failure_reason": null,
      "clean_row_index": 156
    },
    {
      "error_id": "INJ-SD1333-AE-005",
      "rule_id": "SD1333",
      "rule_message": "AEOUT = RECOVERED/RESOLVED, but an end date or collected duration is not provided",
      "category": "EVT1",
      "primitive": "blank_field",
      "domain": "AE",
      "usubjid": "MS200095-0022-VISION-JPN_SITE02-0005",
      "row_index": 203,
      "csv_line": 205,
      "seq_value": "18",
      "variables_modified": {
        "AEENDTC": {
          "original": "2024-08-17",
          "injected": ""
        }
      },
      "re_derived": {},
      "expected_co_violations": [],
      "notes": null,
      "status": "injected",
      "failure_reason": null,
      "clean_row_index": 203
    },
    {
      "error_id": "INJ-SD1333-AE-006",
      "rule_id": "SD1333",
      "rule_message": "AEOUT = RECOVERED/RESOLVED, but an end date or collected duration is not provided",
      "category": "EVT1",
      "primitive": "blank_field",
      "domain": "AE",
      "usubjid": "MS200095-0022-VISION-JPN_SITE02-0005",
      "row_index": 194,
      "csv_line": 196,
      "seq_value": "9",
      "variables_modified": {
        "AEENDTC": {
          "original": "2024-05-14",
          "injected": ""
        }
      },
      "re_derived": {},
      "expected_co_violations": [],
      "notes": null,
      "status": "injected",
      "failure_reason": null,
      "clean_row_index": 194
    },
    {
      "error_id": "INJ-SD1333-AE-007",
      "rule_id": "SD1333",
      "rule_message": "AEOUT = RECOVERED/RESOLVED, but an end date or collected duration is not provided",
      "category": "EVT1",
      "primitive": "blank_field",
      "domain": "AE",
      "usubjid": "MS200095-0022-VISION-GBR_SITE01-0008",
      "row_index": 100,
      "csv_line": 102,
      "seq_value": "18",
      "variables_modified": {
        "AEENDTC": {
          "original": "2025-02-24",
          "injected": ""
        }
      },
      "re_derived": {},
      "expected_co_violations": [],
      "notes": null,
      "status": "injected",
      "failure_reason": null,
      "clean_row_index": 100
    },
    {
      "error_id": "INJ-SD1333-AE-008",
      "rule_id": "SD1333",
      "rule_message": "AEOUT = RECOVERED/RESOLVED, but an end date or collected duration is not provided",
      "category": "EVT1",
      "primitive": "blank_field",
      "domain": "AE",
      "usubjid": "MS200095-0022-VISION-FRA_SITE01-0003",
      "row_index": 65,
      "csv_line": 67,
      "seq_value": "3",
      "variables_modified": {
        "AEENDTC": {
          "original": "2024-05-17",
          "injected": ""
        }
      },
      "re_derived": {},
      "expected_co_violations": [],
      "notes": null,
      "status": "injected",
      "failure_reason": null,
      "clean_row_index": 65
    },
    {
      "error_id": "INJ-SD1333-AE-009",
      "rule_id": "SD1333",
      "rule_message": "AEOUT = RECOVERED/RESOLVED, but an end date or collected duration is not provided",
      "category": "EVT1",
      "primitive": "blank_field",
      "domain": "AE",
      "usubjid": "MS200095-0022-VISION-JPN_SITE01-0016",
      "row_index": 176,
      "csv_line": 178,
      "seq_value": "10",
      "variables_modified": {
        "AEENDTC": {
          "original": "2024-09-04",
          "injected": ""
        }
      },
      "re_derived": {},
      "expected_co_violations": [],
      "notes": null,
      "status": "injected",
      "failure_reason": null,
      "clean_row_index": 176
    },
    {
      "error_id": "INJ-SD1333-AE-010",
      "rule_id": "SD1333",
      "rule_message": "AEOUT = RECOVERED/RESOLVED, but an end date or collected duration is not provided",
      "category": "EVT1",
      "primitive": "blank_field",
      "domain": "AE",
      "usubjid": "MS200095-0022-VISION-USA_SITE01-0018",
      "row_index": 389,
      "csv_line": 391,
      "seq_value": "17",
      "variables_modified": {
        "AEENDTC": {
          "original": "2024-07-10",
          "injected": ""
        }
      },
      "re_derived": {},
      "expected_co_violations": [],
      "notes": null,
      "status": "injected",
      "failure_reason": null,
      "clean_row_index": 389
    },
    {
      "error_id": "INJ-SD1333-AE-011",
      "rule_id": "SD1333",
      "rule_message": "AEOUT = RECOVERED/RESOLVED, but an end date or collected duration is not provided",
      "category": "EVT1",
      "primitive": "blank_field",
      "domain": "AE",
      "usubjid": "MS200095-0022-VISION-JPN_SITE02-0017",
      "row_index": 254,
      "csv_line": 256,
      "seq_value": "3",
      "variables_modified": {
        "AEENDTC": {
          "original": "2024-05-23",
          "injected": ""
        }
      },
      "re_derived": {},
      "expected_co_violations": [],
      "notes": null,
      "status": "injected",
      "failure_reason": null,
      "clean_row_index": 254
    },
    {
      "error_id": "INJ-SD1333-AE-012",
      "rule_id": "SD1333",
      "rule_message": "AEOUT = RECOVERED/RESOLVED, but an end date or collected duration is not provided",
      "category": "EVT1",
      "primitive": "blank_field",
      "domain": "AE",
      "usubjid": "MS200095-0022-VISION-ITA_SITE01-0006",
      "row_index": 149,
      "csv_line": 151,
      "seq_value": "44",
      "variables_modified": {
        "AEENDTC": {
          "original": "2025-06-18",
          "injected": ""
        }
      },
      "re_derived": {},
      "expected_co_violations": [],
      "notes": null,
      "status": "injected",
      "failure_reason": null,
      "clean_row_index": 149
    },
    {
      "error_id": "INJ-SD1333-AE-013",
      "rule_id": "SD1333",
      "rule_message": "AEOUT = RECOVERED/RESOLVED, but an end date or collected duration is not provided",
      "category": "EVT1",
      "primitive": "blank_field",
      "domain": "AE",
      "usubjid": "MS200095-0022-VISION-ITA_SITE01-0006",
      "row_index": 141,
      "csv_line": 143,
      "seq_value": "36",
      "variables_modified": {
        "AEENDTC": {
          "original": "2025-02-04",
          "injected": ""
        }
      },
      "re_derived": {},
      "expected_co_violations": [],
      "notes": null,
      "status": "injected",
      "failure_reason": null,
      "clean_row_index": 141
    },
    {
      "error_id": "INJ-SD1333-AE-014",
      "rule_id": "SD1333",
      "rule_message": "AEOUT = RECOVERED/RESOLVED, but an end date or collected duration is not provided",
      "category": "EVT1",
      "primitive": "blank_field",
      "domain": "AE",
      "usubjid": "MS200095-0022-VISION-JPN_SITE02-0005",
      "row_index": 210,
      "csv_line": 212,
      "seq_value": "25",
      "variables_modified": {
        "AEENDTC": {
          "original": "2024-10-03",
          "injected": ""
        }
      },
      "re_derived": {},
      "expected_co_violations": [],
      "notes": null,
      "status": "injected",
      "failure_reason": null,
      "clean_row_index": 210
    },
    {
      "error_id": "INJ-SD1333-AE-015",
      "rule_id": "SD1333",
      "rule_message": "AEOUT = RECOVERED/RESOLVED, but an end date or collected duration is not provided",
      "category": "EVT1",
      "primitive": "blank_field",
      "domain": "AE",
      "usubjid": "MS200095-0022-VISION-FRA_SITE01-0003",
      "row_index": 71,
      "csv_line": 73,
      "seq_value": "9",
      "variables_modified": {
        "AEENDTC": {
          "original": "2024-08-06",
          "injected": ""
        }
      },
      "re_derived": {},
      "expected_co_violations": [],
      "notes": null,
      "status": "injected",
      "failure_reason": null,
      "clean_row_index": 71
    },
    {
      "error_id": "INJ-SD1333-AE-016",
      "rule_id": "SD1333",
      "rule_message": "AEOUT = RECOVERED/RESOLVED, but an end date or collected duration is not provided",
      "category": "EVT1",
      "primitive": "blank_field",
      "domain": "AE",
      "usubjid": "MS200095-0022-VISION-DEU_SITE01-0009",
      "row_index": 55,
      "csv_line": 57,
      "seq_value": "8",
      "variables_modified": {
        "AEENDTC": {
          "original": "2024-09-05",
          "injected": ""
        }
      },
      "re_derived": {},
      "expected_co_violations": [],
      "notes": null,
      "status": "injected",
      "failure_reason": null,
      "clean_row_index": 55
    },
    {
      "error_id": "INJ-SD1319-DS-001",
      "rule_id": "SD1319",
      "rule_message": "--STDTC is before RFICDTC",
      "category": "EVT2",
      "primitive": "cross_domain_mismatch",
      "domain": "DS",
      "usubjid": "MS200095-0022-VISION-ITA_SITE01-0011",
      "row_index": 25,
      "csv_line": 27,
      "seq_value": "3",
      "variables_modified": {
        "DSSTDTC": {
          "original": "2025-08-10",
          "injected": "2023-12-21"
        }
      },
      "re_derived": {},
      "expected_co_violations": [],
      "notes": "vs DM.RFICDTC (date_before_target); DM.RFICDTC=2024-01-20",
      "status": "injected",
      "failure_reason": null,
      "clean_row_index": 25
    },
    {
      "error_id": "INJ-SD1319-DS-002",
      "rule_id": "SD1319",
      "rule_message": "--STDTC is before RFICDTC",
      "category": "EVT2",
      "primitive": "cross_domain_mismatch",
      "domain": "DS",
      "usubjid": "MS200095-0022-VISION-JPN_SITE01-0016",
      "row_index": 28,
      "csv_line": 30,
      "seq_value": "3",
      "variables_modified": {
        "DSSTDTC": {
          "original": "2025-01-02",
          "injected": "2024-02-12"
        }
      },
      "re_derived": {},
      "expected_co_violations": [],
      "notes": "vs DM.RFICDTC (date_before_target); DM.RFICDTC=2024-03-13",
      "status": "injected",
      "failure_reason": null,
      "clean_row_index": 28
    },
    {
      "error_id": "INJ-SD1319-DV-003",
      "rule_id": "SD1319",
      "rule_message": "--STDTC is before RFICDTC",
      "category": "EVT2",
      "primitive": "cross_domain_mismatch",
      "domain": "DV",
      "usubjid": "MS200095-0022-VISION-JPN_SITE02-0017",
      "row_index": 275,
      "csv_line": 277,
      "seq_value": "36",
      "variables_modified": {
        "DVSTDTC": {
          "original": "2024-11-07",
          "injected": "2024-02-06"
        }
      },
      "re_derived": {},
      "expected_co_violations": [],
      "notes": "vs DM.RFICDTC (date_before_target); DM.RFICDTC=2024-03-07",
      "status": "injected",
      "failure_reason": null,
      "clean_row_index": 275
    },
    {
      "error_id": "INJ-SD1319-DV-004",
      "rule_id": "SD1319",
      "rule_message": "--STDTC is before RFICDTC",
      "category": "EVT2",
      "primitive": "cross_domain_mismatch",
      "domain": "DV",
      "usubjid": "MS200095-0022-VISION-ITA_SITE01-0006",
      "row_index": 116,
      "csv_line": 118,
      "seq_value": "29",
      "variables_modified": {
        "DVSTDTC": {
          "original": "2024-10-04",
          "injected": "2024-01-08"
        }
      },
      "re_derived": {},
      "expected_co_violations": [],
      "notes": "vs DM.RFICDTC (date_before_target); DM.RFICDTC=2024-02-07",
      "status": "injected",
      "failure_reason": null,
      "clean_row_index": 116
    },
    {
      "error_id": "INJ-SD1319-DV-005",
      "rule_id": "SD1319",
      "rule_message": "--STDTC is before RFICDTC",
      "category": "EVT2",
      "primitive": "cross_domain_mismatch",
      "domain": "DV",
      "usubjid": "MS200095-0022-VISION-JPN_SITE02-0017",
      "row_index": 263,
      "csv_line": 265,
      "seq_value": "24",
      "variables_modified": {
        "DVSTDTC": {
          "original": "2024-07-29",
          "injected": "2024-02-06"
        }
      },
      "re_derived": {},
      "expected_co_violations": [],
      "notes": "vs DM.RFICDTC (date_before_target); DM.RFICDTC=2024-03-07",
      "status": "injected",
      "failure_reason": null,
      "clean_row_index": 263
    },
    {
      "error_id": "INJ-SD1319-DV-006",
      "rule_id": "SD1319",
      "rule_message": "--STDTC is before RFICDTC",
      "category": "EVT2",
      "primitive": "cross_domain_mismatch",
      "domain": "DV",
      "usubjid": "MS200095-0022-VISION-GBR_SITE01-0008",
      "row_index": 80,
      "csv_line": 82,
      "seq_value": "25",
      "variables_modified": {
        "DVSTDTC": {
          "original": "2025-02-13",
          "injected": "2024-01-24"
        }
      },
      "re_derived": {},
      "expected_co_violations": [],
      "notes": "vs DM.RFICDTC (date_before_target); DM.RFICDTC=2024-02-23",
      "status": "injected",
      "failure_reason": null,
      "clean_row_index": 80
    },
    {
      "error_id": "INJ-SD1319-DV-007",
      "rule_id": "SD1319",
      "rule_message": "--STDTC is before RFICDTC",
      "category": "EVT2",
      "primitive": "cross_domain_mismatch",
      "domain": "DV",
      "usubjid": "MS200095-0022-VISION-ITA_SITE01-0011",
      "row_index": 139,
      "csv_line": 141,
      "seq_value": "19",
      "variables_modified": {
        "DVSTDTC": {
          "original": "2024-07-15",
          "injected": "2023-12-21"
        }
      },
      "re_derived": {},
      "expected_co_violations": [],
      "notes": "vs DM.RFICDTC (date_before_target); DM.RFICDTC=2024-01-20",
      "status": "injected",
      "failure_reason": null,
      "clean_row_index": 139
    },
    {
      "error_id": "INJ-SD1319-DV-008",
      "rule_id": "SD1319",
      "rule_message": "--STDTC is before RFICDTC",
      "category": "EVT2",
      "primitive": "cross_domain_mismatch",
      "domain": "DV",
      "usubjid": "MS200095-0022-VISION-ITA_SITE01-0011",
      "row_index": 147,
      "csv_line": 149,
      "seq_value": "27",
      "variables_modified": {
        "DVSTDTC": {
          "original": "2024-11-20",
          "injected": "2023-12-21"
        }
      },
      "re_derived": {},
      "expected_co_violations": [],
      "notes": "vs DM.RFICDTC (date_before_target); DM.RFICDTC=2024-01-20",
      "status": "injected",
      "failure_reason": null,
      "clean_row_index": 147
    },
    {
      "error_id": "INJ-SD1319-DV-009",
      "rule_id": "SD1319",
      "rule_message": "--STDTC is before RFICDTC",
      "category": "EVT2",
      "primitive": "cross_domain_mismatch",
      "domain": "DV",
      "usubjid": "MS200095-0022-VISION-ITA_SITE01-0011",
      "row_index": 151,
      "csv_line": 153,
      "seq_value": "31",
      "variables_modified": {
        "DVSTDTC": {
          "original": "2024-12-14",
          "injected": "2023-12-21"
        }
      },
      "re_derived": {},
      "expected_co_violations": [],
      "notes": "vs DM.RFICDTC (date_before_target); DM.RFICDTC=2024-01-20",
      "status": "injected",
      "failure_reason": null,
      "clean_row_index": 151
    },
    {
      "error_id": "INJ-SD1319-DV-010",
      "rule_id": "SD1319",
      "rule_message": "--STDTC is before RFICDTC",
      "category": "EVT2",
      "primitive": "cross_domain_mismatch",
      "domain": "DV",
      "usubjid": "MS200095-0022-VISION-DEU_SITE01-0009",
      "row_index": 29,
      "csv_line": 31,
      "seq_value": "1",
      "variables_modified": {
        "DVSTDTC": {
          "original": "2024-03-31",
          "injected": "2023-12-26"
        }
      },
      "re_derived": {},
      "expected_co_violations": [],
      "notes": "vs DM.RFICDTC (date_before_target); DM.RFICDTC=2024-01-25",
      "status": "injected",
      "failure_reason": null,
      "clean_row_index": 29
    },
    {
      "error_id": "INJ-SD1319-DV-011",
      "rule_id": "SD1319",
      "rule_message": "--STDTC is before RFICDTC",
      "category": "EVT2",
      "primitive": "cross_domain_mismatch",
      "domain": "DV",
      "usubjid": "MS200095-0022-VISION-ITA_SITE01-0006",
      "row_index": 101,
      "csv_line": 103,
      "seq_value": "14",
      "variables_modified": {
        "DVSTDTC": {
          "original": "2024-06-21",
          "injected": "2024-01-08"
        }
      },
      "re_derived": {},
      "expected_co_violations": [],
      "notes": "vs DM.RFICDTC (date_before_target); DM.RFICDTC=2024-02-07",
      "status": "injected",
      "failure_reason": null,
      "clean_row_index": 101
    },
    {
      "error_id": "INJ-SD1319-DV-012",
      "rule_id": "SD1319",
      "rule_message": "--STDTC is before RFICDTC",
      "category": "EVT2",
      "primitive": "cross_domain_mismatch",
      "domain": "DV",
      "usubjid": "MS200095-0022-VISION-GBR_SITE01-0008",
      "row_index": 72,
      "csv_line": 74,
      "seq_value": "17",
      "variables_modified": {
        "DVSTDTC": {
          "original": "2024-10-26",
          "injected": "2024-01-24"
        }
      },
      "re_derived": {},
      "expected_co_violations": [],
      "notes": "vs DM.RFICDTC (date_before_target); DM.RFICDTC=2024-02-23",
      "status": "injected",
      "failure_reason": null,
      "clean_row_index": 72
    },
    {
      "error_id": "INJ-SD1319-DV-013",
      "rule_id": "SD1319",
      "rule_message": "--STDTC is before RFICDTC",
      "category": "EVT2",
      "primitive": "cross_domain_mismatch",
      "domain": "DV",
      "usubjid": "MS200095-0022-VISION-JPN_SITE02-0017",
      "row_index": 248,
      "csv_line": 250,
      "seq_value": "9",
      "variables_modified": {
        "DVSTDTC": {
          "original": "2024-05-02",
          "injected": "2024-02-06"
        }
      },
      "re_derived": {},
      "expected_co_violations": [],
      "notes": "vs DM.RFICDTC (date_before_target); DM.RFICDTC=2024-03-07",
      "status": "injected",
      "failure_reason": null,
      "clean_row_index": 248
    },
    {
      "error_id": "INJ-SD1319-DV-014",
      "rule_id": "SD1319",
      "rule_message": "--STDTC is before RFICDTC",
      "category": "EVT2",
      "primitive": "cross_domain_mismatch",
      "domain": "DV",
      "usubjid": "MS200095-0022-VISION-ITA_SITE01-0006",
      "row_index": 94,
      "csv_line": 96,
      "seq_value": "7",
      "variables_modified": {
        "DVSTDTC": {
          "original": "2024-04-12",
          "injected": "2024-01-08"
        }
      },
      "re_derived": {},
      "expected_co_violations": [],
      "notes": "vs DM.RFICDTC (date_before_target); DM.RFICDTC=2024-02-07",
      "status": "injected",
      "failure_reason": null,
      "clean_row_index": 94
    },
    {
      "error_id": "INJ-SD0080-AE-001",
      "rule_id": "SD0080",
      "rule_message": "AE start date is after the latest Disposition date",
      "category": "EVT1",
      "primitive": "cross_domain_mismatch",
      "domain": "AE",
      "usubjid": "MS200095-0022-VISION-FRA_SITE01-0003",
      "row_index": 65,
      "csv_line": 67,
      "seq_value": "3",
      "variables_modified": {
        "AESTDTC": {
          "original": "2024-05-06",
          "injected": "2025-01-06"
        }
      },
      "re_derived": {},
      "expected_co_violations": [],
      "notes": "vs DS.DSSTDTC (date_after_target); DS.DSSTDTC=2024-12-07",
      "status": "injected",
      "failure_reason": null,
      "clean_row_index": 65
    },
    {
      "error_id": "INJ-SD0080-AE-003",
      "rule_id": "SD0080",
      "rule_message": "AE start date is after the latest Disposition date",
      "category": "EVT1",
      "primitive": "cross_domain_mismatch",
      "domain": "AE",
      "usubjid": "MS200095-0022-VISION-DEU_SITE01-0009",
      "row_index": 52,
      "csv_line": 54,
      "seq_value": "5",
      "variables_modified": {
        "AESTDTC": {
          "original": "2024-05-30",
          "injected": "2025-09-20"
        }
      },
      "re_derived": {},
      "expected_co_violations": [],
      "notes": "vs DS.DSSTDTC (date_after_target); DS.DSSTDTC=2025-08-21",
      "status": "injected",
      "failure_reason": null,
      "clean_row_index": 52
    },
    {
      "error_id": "INJ-SD0080-AE-004",
      "rule_id": "SD0080",
      "rule_message": "AE start date is after the latest Disposition date",
      "category": "EVT1",
      "primitive": "cross_domain_mismatch",
      "domain": "AE",
      "usubjid": "MS200095-0022-VISION-FRA_SITE01-0003",
      "row_index": 72,
      "csv_line": 74,
      "seq_value": "10",
      "variables_modified": {
        "AESTDTC": {
          "original": "2024-08-06",
          "injected": "2025-01-06"
        }
      },
      "re_derived": {},
      "expected_co_violations": [],
      "notes": "vs DS.DSSTDTC (date_after_target); DS.DSSTDTC=2024-12-07",
      "status": "injected",
      "failure_reason": null,
      "clean_row_index": 72
    },
    {
      "error_id": "INJ-SD0080-AE-005",
      "rule_id": "SD0080",
      "rule_message": "AE start date is after the latest Disposition date",
      "category": "EVT1",
      "primitive": "cross_domain_mismatch",
      "domain": "AE",
      "usubjid": "MS200095-0022-VISION-GBR_SITE01-0008",
      "row_index": 104,
      "csv_line": 106,
      "seq_value": "22",
      "variables_modified": {
        "AESTDTC": {
          "original": "2025-05-29",
          "injected": "2025-11-02"
        }
      },
      "re_derived": {},
      "expected_co_violations": [],
      "notes": "vs DS.DSSTDTC (date_after_target); DS.DSSTDTC=2025-10-03",
      "status": "injected",
      "failure_reason": null,
      "clean_row_index": 104
    },
    {
      "error_id": "INJ-SD0080-AE-006",
      "rule_id": "SD0080",
      "rule_message": "AE start date is after the latest Disposition date",
      "category": "EVT1",
      "primitive": "cross_domain_mismatch",
      "domain": "AE",
      "usubjid": "MS200095-0022-VISION-FRA_SITE01-0003",
      "row_index": 69,
      "csv_line": 71,
      "seq_value": "7",
      "variables_modified": {
        "AESTDTC": {
          "original": "2024-07-01",
          "injected": "2025-01-06"
        }
      },
      "re_derived": {},
      "expected_co_violations": [],
      "notes": "vs DS.DSSTDTC (date_after_target); DS.DSSTDTC=2024-12-07",
      "status": "injected",
      "failure_reason": null,
      "clean_row_index": 69
    },
    {
      "error_id": "INJ-SD1143-AE-001",
      "rule_id": "SD1143",
      "rule_message": "No Details info for AESMIE Adverse Event in SUPPAE domain",
      "category": "EVT1",
      "primitive": "cross_domain_orphan",
      "domain": "AE",
      "usubjid": "MS200095-0022-VISION-DEU_SITE01-0009",
      "row_index": 48,
      "csv_line": 50,
      "seq_value": null,
      "variables_modified": {
        "SUPPAE": {
          "original": "462 rows",
          "injected": "447 rows (15 removed)"
        }
      },
      "re_derived": {},
      "expected_co_violations": [],
      "notes": null,
      "status": "injected",
      "failure_reason": null,
      "clean_row_index": 48
    },
    {
      "error_id": "INJ-SD1143-AE-002",
      "rule_id": "SD1143",
      "rule_message": "No Details info for AESMIE Adverse Event in SUPPAE domain",
      "category": "EVT1",
      "primitive": "cross_domain_orphan",
      "domain": "AE",
      "usubjid": "MS200095-0022-VISION-FRA_SITE01-0013",
      "row_index": 80,
      "csv_line": 82,
      "seq_value": null,
      "variables_modified": {
        "SUPPAE": {
          "original": "447 rows",
          "injected": "444 rows (3 removed)"
        }
      },
      "re_derived": {},
      "expected_co_violations": [],
      "notes": null,
      "status": "injected",
      "failure_reason": null,
      "clean_row_index": 80
    },
    {
      "error_id": "INJ-SD1143-AE-003",
      "rule_id": "SD1143",
      "rule_message": "No Details info for AESMIE Adverse Event in SUPPAE domain",
      "category": "EVT1",
      "primitive": "cross_domain_orphan",
      "domain": "AE",
      "usubjid": "MS200095-0022-VISION-USA_SITE01-0007",
      "row_index": 351,
      "csv_line": 353,
      "seq_value": null,
      "variables_modified": {
        "SUPPAE": {
          "original": "444 rows",
          "injected": "422 rows (22 removed)"
        }
      },
      "re_derived": {},
      "expected_co_violations": [],
      "notes": null,
      "status": "injected",
      "failure_reason": null,
      "clean_row_index": 351
    },
    {
      "error_id": "INJ-SD1143-AE-004",
      "rule_id": "SD1143",
      "rule_message": "No Details info for AESMIE Adverse Event in SUPPAE domain",
      "category": "EVT1",
      "primitive": "cross_domain_orphan",
      "domain": "AE",
      "usubjid": "MS200095-0022-VISION-USA_SITE02-0002",
      "row_index": 407,
      "csv_line": 409,
      "seq_value": null,
      "variables_modified": {
        "SUPPAE": {
          "original": "422 rows",
          "injected": "420 rows (2 removed)"
        }
      },
      "re_derived": {},
      "expected_co_violations": [],
      "notes": null,
      "status": "injected",
      "failure_reason": null,
      "clean_row_index": 407
    },
    {
      "error_id": "INJ-SD1254-AE-001",
      "rule_id": "SD1254",
      "rule_message": "DTHFL does not equal 'Y' when AE.AEOUT = 'FATAL'",
      "category": "EVT1",
      "primitive": "cross_domain_mismatch",
      "domain": "AE",
      "usubjid": "MS200095-0022-VISION-GBR_SITE01-0008",
      "row_index": 101,
      "csv_line": 103,
      "seq_value": "19",
      "variables_modified": {
        "AEOUT": {
          "original": "RECOVERED/RESOLVED",
          "injected": "FATAL"
        }
      },
      "re_derived": {},
      "expected_co_violations": [],
      "notes": "vs DM.DTHFL (set_source_expect_target); DM.DTHFL='' (expected 'Y')",
      "status": "injected",
      "failure_reason": null,
      "clean_row_index": 101
    },
    {
      "error_id": "INJ-SD1254-AE-002",
      "rule_id": "SD1254",
      "rule_message": "DTHFL does not equal 'Y' when AE.AEOUT = 'FATAL'",
      "category": "EVT1",
      "primitive": "cross_domain_mismatch",
      "domain": "AE",
      "usubjid": "MS200095-0022-VISION-USA_SITE01-0007",
      "row_index": 355,
      "csv_line": 357,
      "seq_value": "5",
      "variables_modified": {
        "AEOUT": {
          "original": "RECOVERED/RESOLVED",
          "injected": "FATAL"
        }
      },
      "re_derived": {},
      "expected_co_violations": [],
      "notes": "vs DM.DTHFL (set_source_expect_target); DM.DTHFL='' (expected 'Y')",
      "status": "injected",
      "failure_reason": null,
      "clean_row_index": 355
    },
    {
      "error_id": "INJ-SD1254-AE-003",
      "rule_id": "SD1254",
      "rule_message": "DTHFL does not equal 'Y' when AE.AEOUT = 'FATAL'",
      "category": "EVT1",
      "primitive": "cross_domain_mismatch",
      "domain": "AE",
      "usubjid": "MS200095-0022-VISION-USA_SITE01-0007",
      "row_index": 363,
      "csv_line": 365,
      "seq_value": "13",
      "variables_modified": {
        "AEOUT": {
          "original": "RECOVERED/RESOLVED",
          "injected": "FATAL"
        }
      },
      "re_derived": {},
      "expected_co_violations": [],
      "notes": "vs DM.DTHFL (set_source_expect_target); DM.DTHFL='' (expected 'Y')",
      "status": "injected",
      "failure_reason": null,
      "clean_row_index": 363
    },
    {
      "error_id": "INJ-SD1254-AE-004",
      "rule_id": "SD1254",
      "rule_message": "DTHFL does not equal 'Y' when AE.AEOUT = 'FATAL'",
      "category": "EVT1",
      "primitive": "cross_domain_mismatch",
      "domain": "AE",
      "usubjid": "MS200095-0022-VISION-GBR_SITE01-0008",
      "row_index": 89,
      "csv_line": 91,
      "seq_value": "7",
      "variables_modified": {
        "AEOUT": {
          "original": "RECOVERED/RESOLVED",
          "injected": "FATAL"
        }
      },
      "re_derived": {},
      "expected_co_violations": [],
      "notes": "vs DM.DTHFL (set_source_expect_target); DM.DTHFL='' (expected 'Y')",
      "status": "injected",
      "failure_reason": null,
      "clean_row_index": 89
    },
    {
      "error_id": "INJ-SD1254-AE-005",
      "rule_id": "SD1254",
      "rule_message": "DTHFL does not equal 'Y' when AE.AEOUT = 'FATAL'",
      "category": "EVT1",
      "primitive": "cross_domain_mismatch",
      "domain": "AE",
      "usubjid": "MS200095-0022-VISION-GBR_SITE01-0008",
      "row_index": 98,
      "csv_line": 100,
      "seq_value": "16",
      "variables_modified": {
        "AEOUT": {
          "original": "RECOVERED/RESOLVED",
          "injected": "FATAL"
        }
      },
      "re_derived": {},
      "expected_co_violations": [],
      "notes": "vs DM.DTHFL (set_source_expect_target); DM.DTHFL='' (expected 'Y')",
      "status": "injected",
      "failure_reason": null,
      "clean_row_index": 98
    },
    {
      "error_id": "INJ-SD1254-AE-006",
      "rule_id": "SD1254",
      "rule_message": "DTHFL does not equal 'Y' when AE.AEOUT = 'FATAL'",
      "category": "EVT1",
      "primitive": "cross_domain_mismatch",
      "domain": "AE",
      "usubjid": "MS200095-0022-VISION-FRA_SITE01-0013",
      "row_index": 81,
      "csv_line": 83,
      "seq_value": "2",
      "variables_modified": {
        "AEOUT": {
          "original": "RECOVERED/RESOLVED",
          "injected": "FATAL"
        }
      },
      "re_derived": {},
      "expected_co_violations": [],
      "notes": "vs DM.DTHFL (set_source_expect_target); DM.DTHFL='' (expected 'Y')",
      "status": "injected",
      "failure_reason": null,
      "clean_row_index": 81
    },
    {
      "error_id": "INJ-SD1449-AE-001",
      "rule_id": "SD1449",
      "rule_message": "Missing values for one or more variables subject to MedDRA: --LLT, --LLTCD, --DECOD, --PTCD, --HLT, --HLTCD, --HLGT, --HLGTCD, --BODSYS, --BDSYCD, --SOC, --SOCCD",
      "category": "EVT1",
      "primitive": "blank_field",
      "domain": "AE",
      "usubjid": "MS200095-0022-VISION-JPN_SITE01-0016",
      "row_index": 170,
      "csv_line": 172,
      "seq_value": "4",
      "variables_modified": {
        "AELLT": {
          "original": "Fatigue",
          "injected": ""
        }
      },
      "re_derived": {},
      "expected_co_violations": [],
      "notes": null,
      "status": "injected",
      "failure_reason": null,
      "clean_row_index": 170
    },
    {
      "error_id": "INJ-SD1449-AE-001",
      "rule_id": "SD1449",
      "rule_message": "Missing values for one or more variables subject to MedDRA: --LLT, --LLTCD, --DECOD, --PTCD, --HLT, --HLTCD, --HLGT, --HLGTCD, --BODSYS, --BDSYCD, --SOC, --SOCCD",
      "category": "EVT1",
      "primitive": "blank_field",
      "domain": "AE",
      "usubjid": "MS200095-0022-VISION-JPN_SITE01-0016",
      "row_index": 170,
      "csv_line": 172,
      "seq_value": "4",
      "variables_modified": {
        "AEDECOD": {
          "original": "Fatigue",
          "injected": ""
        }
      },
      "re_derived": {},
      "expected_co_violations": [],
      "notes": null,
      "status": "injected",
      "failure_reason": null,
      "clean_row_index": 170
    },
    {
      "error_id": "INJ-SD1449-AE-001",
      "rule_id": "SD1449",
      "rule_message": "Missing values for one or more variables subject to MedDRA: --LLT, --LLTCD, --DECOD, --PTCD, --HLT, --HLTCD, --HLGT, --HLGTCD, --BODSYS, --BDSYCD, --SOC, --SOCCD",
      "category": "EVT1",
      "primitive": "blank_field",
      "domain": "AE",
      "usubjid": "MS200095-0022-VISION-JPN_SITE01-0016",
      "row_index": 170,
      "csv_line": 172,
      "seq_value": "4",
      "variables_modified": {
        "AEPTCD": {
          "original": "10016256",
          "injected": ""
        }
      },
      "re_derived": {},
      "expected_co_violations": [],
      "notes": null,
      "status": "injected",
      "failure_reason": null,
      "clean_row_index": 170
    },
    {
      "error_id": "INJ-SD1449-AE-001",
      "rule_id": "SD1449",
      "rule_message": "Missing values for one or more variables subject to MedDRA: --LLT, --LLTCD, --DECOD, --PTCD, --HLT, --HLTCD, --HLGT, --HLGTCD, --BODSYS, --BDSYCD, --SOC, --SOCCD",
      "category": "EVT1",
      "primitive": "blank_field",
      "domain": "AE",
      "usubjid": "MS200095-0022-VISION-JPN_SITE01-0016",
      "row_index": 170,
      "csv_line": 172,
      "seq_value": "4",
      "variables_modified": {
        "AEHLT": {
          "original": "Asthenic conditions",
          "injected": ""
        }
      },
      "re_derived": {},
      "expected_co_violations": [],
      "notes": null,
      "status": "injected",
      "failure_reason": null,
      "clean_row_index": 170
    },
    {
      "error_id": "INJ-SD1449-AE-001",
      "rule_id": "SD1449",
      "rule_message": "Missing values for one or more variables subject to MedDRA: --LLT, --LLTCD, --DECOD, --PTCD, --HLT, --HLTCD, --HLGT, --HLGTCD, --BODSYS, --BDSYCD, --SOC, --SOCCD",
      "category": "EVT1",
      "primitive": "blank_field",
      "domain": "AE",
      "usubjid": "MS200095-0022-VISION-JPN_SITE01-0016",
      "row_index": 170,
      "csv_line": 172,
      "seq_value": "4",
      "variables_modified": {
        "AEHLTCD": {
          "original": "10003550",
          "injected": ""
        }
      },
      "re_derived": {},
      "expected_co_violations": [],
      "notes": null,
      "status": "injected",
      "failure_reason": null,
      "clean_row_index": 170
    },
    {
      "error_id": "INJ-SD1449-AE-001",
      "rule_id": "SD1449",
      "rule_message": "Missing values for one or more variables subject to MedDRA: --LLT, --LLTCD, --DECOD, --PTCD, --HLT, --HLTCD, --HLGT, --HLGTCD, --BODSYS, --BDSYCD, --SOC, --SOCCD",
      "category": "EVT1",
      "primitive": "blank_field",
      "domain": "AE",
      "usubjid": "MS200095-0022-VISION-JPN_SITE01-0016",
      "row_index": 170,
      "csv_line": 172,
      "seq_value": "4",
      "variables_modified": {
        "AEHLGT": {
          "original": "General system disorders NEC",
          "injected": ""
        }
      },
      "re_derived": {},
      "expected_co_violations": [],
      "notes": null,
      "status": "injected",
      "failure_reason": null,
      "clean_row_index": 170
    },
    {
      "error_id": "INJ-SD1449-AE-001",
      "rule_id": "SD1449",
      "rule_message": "Missing values for one or more variables subject to MedDRA: --LLT, --LLTCD, --DECOD, --PTCD, --HLT, --HLTCD, --HLGT, --HLGTCD, --BODSYS, --BDSYCD, --SOC, --SOCCD",
      "category": "EVT1",
      "primitive": "blank_field",
      "domain": "AE",
      "usubjid": "MS200095-0022-VISION-JPN_SITE01-0016",
      "row_index": 170,
      "csv_line": 172,
      "seq_value": "4",
      "variables_modified": {
        "AEHLGTCD": {
          "original": "10060892",
          "injected": ""
        }
      },
      "re_derived": {},
      "expected_co_violations": [],
      "notes": null,
      "status": "injected",
      "failure_reason": null,
      "clean_row_index": 170
    },
    {
      "error_id": "INJ-SD1449-AE-001",
      "rule_id": "SD1449",
      "rule_message": "Missing values for one or more variables subject to MedDRA: --LLT, --LLTCD, --DECOD, --PTCD, --HLT, --HLTCD, --HLGT, --HLGTCD, --BODSYS, --BDSYCD, --SOC, --SOCCD",
      "category": "EVT1",
      "primitive": "blank_field",
      "domain": "AE",
      "usubjid": "MS200095-0022-VISION-JPN_SITE01-0016",
      "row_index": 170,
      "csv_line": 172,
      "seq_value": "4",
      "variables_modified": {
        "AEBODSYS": {
          "original": "General disorders and administration site conditions",
          "injected": ""
        }
      },
      "re_derived": {},
      "expected_co_violations": [],
      "notes": null,
      "status": "injected",
      "failure_reason": null,
      "clean_row_index": 170
    },
    {
      "error_id": "INJ-SD1449-AE-001",
      "rule_id": "SD1449",
      "rule_message": "Missing values for one or more variables subject to MedDRA: --LLT, --LLTCD, --DECOD, --PTCD, --HLT, --HLTCD, --HLGT, --HLGTCD, --BODSYS, --BDSYCD, --SOC, --SOCCD",
      "category": "EVT1",
      "primitive": "blank_field",
      "domain": "AE",
      "usubjid": "MS200095-0022-VISION-JPN_SITE01-0016",
      "row_index": 170,
      "csv_line": 172,
      "seq_value": "4",
      "variables_modified": {
        "AEBDSYCD": {
          "original": "10018065",
          "injected": ""
        }
      },
      "re_derived": {},
      "expected_co_violations": [],
      "notes": null,
      "status": "injected",
      "failure_reason": null,
      "clean_row_index": 170
    },
    {
      "error_id": "INJ-SD1449-AE-001",
      "rule_id": "SD1449",
      "rule_message": "Missing values for one or more variables subject to MedDRA: --LLT, --LLTCD, --DECOD, --PTCD, --HLT, --HLTCD, --HLGT, --HLGTCD, --BODSYS, --BDSYCD, --SOC, --SOCCD",
      "category": "EVT1",
      "primitive": "blank_field",
      "domain": "AE",
      "usubjid": "MS200095-0022-VISION-JPN_SITE01-0016",
      "row_index": 170,
      "csv_line": 172,
      "seq_value": "4",
      "variables_modified": {
        "AESOC": {
          "original": "General disorders and administration site conditions",
          "injected": ""
        }
      },
      "re_derived": {},
      "expected_co_violations": [],
      "notes": null,
      "status": "injected",
      "failure_reason": null,
      "clean_row_index": 170
    },
    {
      "error_id": "INJ-SD1449-AE-001",
      "rule_id": "SD1449",
      "rule_message": "Missing values for one or more variables subject to MedDRA: --LLT, --LLTCD, --DECOD, --PTCD, --HLT, --HLTCD, --HLGT, --HLGTCD, --BODSYS, --BDSYCD, --SOC, --SOCCD",
      "category": "EVT1",
      "primitive": "blank_field",
      "domain": "AE",
      "usubjid": "MS200095-0022-VISION-JPN_SITE01-0016",
      "row_index": 170,
      "csv_line": 172,
      "seq_value": "4",
      "variables_modified": {
        "AESOCCD": {
          "original": "10018065",
          "injected": ""
        }
      },
      "re_derived": {},
      "expected_co_violations": [],
      "notes": null,
      "status": "injected",
      "failure_reason": null,
      "clean_row_index": 170
    },
    {
      "error_id": "INJ-SD1241-AE-001",
      "rule_id": "SD1241",
      "rule_message": "--BODSYS is not populated when --BDSYCD is populated",
      "category": "EVT1",
      "primitive": "blank_field",
      "domain": "AE",
      "usubjid": "MS200095-0022-VISION-FRA_SITE01-0013",
      "row_index": 81,
      "csv_line": 83,
      "seq_value": "2",
      "variables_modified": {
        "AEBODSYS": {
          "original": "Investigations",
          "injected": ""
        }
      },
      "re_derived": {},
      "expected_co_violations": [],
      "notes": null,
      "status": "injected",
      "failure_reason": null,
      "clean_row_index": 81
    },
    {
      "error_id": "INJ-SD1242-AE-001",
      "rule_id": "SD1242",
      "rule_message": "Inconsistent value for --BODSYS within --BDSYCD",
      "category": "EVT1",
      "primitive": "duplicate_with_mutation",
      "domain": "AE",
      "usubjid": "MS200095-0022-VISION-FRA_SITE01-0013",
      "row_index": 82,
      "csv_line": 84,
      "seq_value": "3",
      "variables_modified": {
        "AEBODSYS": {
          "original": "Gastrointestinal disorders",
          "injected": "INCONSISTENT BODSYS"
        }
      },
      "re_derived": {},
      "expected_co_violations": [],
      "notes": "duplicated row with AEBODSYS changed on the copy",
      "status": "injected",
      "failure_reason": null,
      "clean_row_index": 82
    },
    {
      "error_id": "INJ-SD1440-AE-001",
      "rule_id": "SD1440",
      "rule_message": "Inconsistent value for --DECOD within --TERM",
      "category": "EVT1",
      "primitive": "duplicate_with_mutation",
      "domain": "AE",
      "usubjid": "MS200095-0022-VISION-USA_SITE02-0002",
      "row_index": 408,
      "csv_line": 410,
      "seq_value": "2",
      "variables_modified": {
        "AEDECOD": {
          "original": "Oedema peripheral",
          "injected": "INCONSISTENT TERM"
        }
      },
      "re_derived": {},
      "expected_co_violations": [],
      "notes": "duplicated row with AEDECOD changed on the copy",
      "status": "injected",
      "failure_reason": null,
      "clean_row_index": 408
    },
    {
      "error_id": "INJ-SD1096-AE-001",
      "rule_id": "SD1096",
      "rule_message": "High risk of truncated value for --TERM variable",
      "category": "EVT2",
      "primitive": "set_invalid_value",
      "domain": "AE",
      "usubjid": "MS200095-0022-VISION-USA_SITE02-0002",
      "row_index": 408,
      "csv_line": 410,
      "seq_value": "2",
      "variables_modified": {
        "AETERM": {
          "original": "OEDEMA PERIPHERAL",
          "injected": "XXXXXXXXXXXXXXXXXXXXXXXXXXXXXXXXXXXXXXXXXXXXXXXXXXXXXXXXXXXXXXXXXXXXXXXXXXXXXXXXXXXXXXXXXXXXXXXXXXXXXXXXXXXXXXXXXXXXXXXXXXXXXXXXXXXXXXXXXXXXXXXXXXXXXXXXXXXXXXXXXXXXXXXXXXXXXXXXXXXXXXXXXXXXXXXXXXXXXXXX"
        }
      },
      "re_derived": {},
      "expected_co_violations": [],
      "notes": null,
      "status": "injected",
      "failure_reason": null,
      "clean_row_index": 408
    },
    {
      "error_id": "INJ-SD1096-DV-002",
      "rule_id": "SD1096",
      "rule_message": "High risk of truncated value for --TERM variable",
      "category": "EVT2",
      "primitive": "set_invalid_value",
      "domain": "DV",
      "usubjid": "MS200095-0022-VISION-CHN_SITE01-0001",
      "row_index": 1,
      "csv_line": 3,
      "seq_value": "2",
      "variables_modified": {
        "DVTERM": {
          "original": "Missed TEPOTINIB dose on 2024-02-27",
          "injected": "XXXXXXXXXXXXXXXXXXXXXXXXXXXXXXXXXXXXXXXXXXXXXXXXXXXXXXXXXXXXXXXXXXXXXXXXXXXXXXXXXXXXXXXXXXXXXXXXXXXXXXXXXXXXXXXXXXXXXXXXXXXXXXXXXXXXXXXXXXXXXXXXXXXXXXXXXXXXXXXXXXXXXXXXXXXXXXXXXXXXXXXXXXXXXXXXXXXXXXXX"
        }
      },
      "re_derived": {},
      "expected_co_violations": [],
      "notes": null,
      "status": "injected",
      "failure_reason": null,
      "clean_row_index": 1
    },
    {
      "error_id": "INJ-SD1096-MH-003",
      "rule_id": "SD1096",
      "rule_message": "High risk of truncated value for --TERM variable",
      "category": "EVT2",
      "primitive": "set_invalid_value",
      "domain": "MH",
      "usubjid": "MS200095-0022-VISION-CHN_SITE01-0001",
      "row_index": 0,
      "csv_line": 2,
      "seq_value": "1",
      "variables_modified": {
        "MHTERM": {
          "original": "HYPERTENSION",
          "injected": "XXXXXXXXXXXXXXXXXXXXXXXXXXXXXXXXXXXXXXXXXXXXXXXXXXXXXXXXXXXXXXXXXXXXXXXXXXXXXXXXXXXXXXXXXXXXXXXXXXXXXXXXXXXXXXXXXXXXXXXXXXXXXXXXXXXXXXXXXXXXXXXXXXXXXXXXXXXXXXXXXXXXXXXXXXXXXXXXXXXXXXXXXXXXXXXXXXXXXXXX"
        }
      },
      "re_derived": {},
      "expected_co_violations": [],
      "notes": null,
      "status": "injected",
      "failure_reason": null,
      "clean_row_index": 0
    },
    {
      "error_id": "INJ-SD1201-AE-001",
      "rule_id": "SD1201",
      "rule_message": "Duplicate records in domain",
      "category": "EVT2",
      "primitive": "duplicate_record",
      "domain": "AE",
      "usubjid": "MS200095-0022-VISION-CHN_SITE01-0001",
      "row_index": 1,
      "csv_line": 3,
      "seq_value": "2",
      "variables_modified": {
        "__row__": {
          "original": "unique",
          "injected": "duplicated"
        }
      },
      "re_derived": {},
      "expected_co_violations": [],
      "notes": "duplicated key_fields=['USUBJID', '--TERM', '--DECOD', '--CAT', '--SCAT', '--OCCUR', '--LOC', '--LAT', '--DIR', '--SEV', '--TOXGR', 'VISITNUM', 'VISITDY', '--STTPT', '--STDTC']",
      "status": "injected",
      "failure_reason": null,
      "clean_row_index": 1
    },
    {
      "error_id": "INJ-SD1201-DS-002",
      "rule_id": "SD1201",
      "rule_message": "Duplicate records in domain",
      "category": "EVT2",
      "primitive": "duplicate_record",
      "domain": "DS",
      "usubjid": "MS200095-0022-VISION-DEU_SITE01-0004",
      "row_index": 7,
      "csv_line": 9,
      "seq_value": "2",
      "variables_modified": {
        "__row__": {
          "original": "unique",
          "injected": "duplicated"
        }
      },
      "re_derived": {},
      "expected_co_violations": [],
      "notes": "duplicated key_fields=['USUBJID', '--TERM', '--DECOD', '--CAT', '--SCAT', '--OCCUR', '--LOC', '--LAT', '--DIR', '--SEV', '--TOXGR', 'VISITNUM', 'VISITDY', '--STTPT', '--STDTC']",
      "status": "injected",
      "failure_reason": null,
      "clean_row_index": 7
    },
    {
      "error_id": "INJ-SD1277-AE-001",
      "rule_id": "SD1277",
      "rule_message": "--TERM equals 'MULTIPLE'",
      "category": "EVT2",
      "primitive": "set_invalid_value",
      "domain": "AE",
      "usubjid": "MS200095-0022-VISION-CHN_SITE01-0001",
      "row_index": 1,
      "csv_line": 3,
      "seq_value": "2",
      "variables_modified": {
        "AETERM": {
          "original": "DYSPNOEA",
          "injected": "MULTIPLE"
        }
      },
      "re_derived": {},
      "expected_co_violations": [],
      "notes": null,
      "status": "injected",
      "failure_reason": null,
      "clean_row_index": 1
    },
    {
      "error_id": "INJ-SD1289-AE-001",
      "rule_id": "SD1289",
      "rule_message": "Missing value for --DECOD, when --PTCD is populated",
      "category": "EVT2",
      "primitive": "blank_field",
      "domain": "AE",
      "usubjid": "MS200095-0022-VISION-CHN_SITE01-0001",
      "row_index": 1,
      "csv_line": 3,
      "seq_value": "2",
      "variables_modified": {
        "AEDECOD": {
          "original": "Dyspnoea",
          "injected": ""
        }
      },
      "re_derived": {},
      "expected_co_violations": [],
      "notes": null,
      "status": "injected",
      "failure_reason": null,
      "clean_row_index": 1
    },
    {
      "error_id": "INJ-SD1075-AE-001",
      "rule_id": "SD1075",
      "rule_message": "Variable not recommended for use",
      "category": "ALL2",
      "primitive": "add_column",
      "domain": "AE",
      "usubjid": null,
      "row_index": null,
      "csv_line": null,
      "seq_value": null,
      "variables_modified": {
        "AEMODIFY": {
          "original": "absent",
          "injected": "X"
        }
      },
      "re_derived": {},
      "expected_co_violations": [],
      "notes": null,
      "status": "injected",
      "failure_reason": null,
      "clean_row_index": null
    }
  ],
  "summary_by_rule": {
    "SD1314": 1,
    "SD1313": 1,
    "SD1332": 3,
    "SD1144": 4,
    "SD1035": 5,
    "SD1118": 10,
    "SD1256": 5,
    "SD0009": 48,
    "SD1333": 16,
    "SD1319": 14,
    "SD0080": 5,
    "SD1143": 4,
    "SD1254": 6,
    "SD1449": 11,
    "SD1241": 1,
    "SD1242": 1,
    "SD1440": 1,
    "SD1096": 3,
    "SD1201": 2,
    "SD1277": 1,
    "SD1289": 1,
    "SD1075": 1
  },
  "summary_by_category": {
    "EVT2": 43,
    "EVT1": 100,
    "ALL2": 1
  },
  "summary_by_domain": {
    "DS": 25,
    "AE": 101,
    "MH": 5,
    "DV": 13
  },
  "summary_status": {
    "injected": 143,
    "overwritten": 0,
    "failed_self_validation": 1
  },
  "warnings": [
    "Re-derivation skipped: ConformanceLayer not importable. Derived fields (--DY, EPOCH) may not reflect injected errors.",
    "0 mutations overwritten by later rules; 1 failed self-validation. See per-record status."
  ]
}