error_id,rule_id,status,domain,USUBJID,row_index,primitive,variables_modified,re_derived,failure_reason
INJ-SD0006-LB-001-row8,SD0006,injected,LB,MS200095-0022-VISION-ITA_SITE01-0011,385,blank_field,"{""LBBLFL"": {""original"": ""Y"", ""injected"": """"}}",,
INJ-SD0006-LB-001-row9,SD0006,injected,LB,MS200095-0022-VISION-ITA_SITE01-0011,386,blank_field,"{""LBBLFL"": {""original"": ""Y"", ""injected"": """"}}",,
INJ-SD0006-LB-001-row10,SD0006,injected,LB,MS200095-0022-VISION-ITA_SITE01-0011,387,blank_field,"{""LBBLFL"": {""original"": ""Y"", ""injected"": """"}}",,
INJ-SD0006-LB-001-row11,SD0006,injected,LB,MS200095-0022-VISION-ITA_SITE01-0011,388,blank_field,"{""LBBLFL"": {""original"": ""Y"", ""injected"": """"}}",,
INJ-SD0006-LB-001-row12,SD0006,injected,LB,MS200095-0022-VISION-ITA_SITE01-0011,389,blank_field,"{""LBBLFL"": {""original"": ""Y"", ""injected"": """"}}",,
INJ-SD0006-LB-001-row13,SD0006,injected,LB,MS200095-0022-VISION-ITA_SITE01-0011,390,blank_field,"{""LBBLFL"": {""original"": ""Y"", ""injected"": """"}}",,
INJ-SD0006-LB-001-row14,SD0006,injected,LB,MS200095-0022-VISION-ITA_SITE01-0011,391,blank_field,"{""LBBLFL"": {""original"": ""Y"", ""injected"": """"}}",,
INJ-SD0006-LB-002-row8,SD0006,injected,LB,MS200095-0022-VISION-JPN_SITE01-0016,462,blank_field,"{""LBBLFL"": {""original"": ""Y"", ""injected"": """"}}",,
INJ-SD0006-LB-002-row9,SD0006,injected,LB,MS200095-0022-VISION-JPN_SITE01-0016,463,blank_field,"{""LBBLFL"": {""original"": ""Y"", ""injected"": """"}}",,
INJ-SD0006-LB-002-row10,SD0006,injected,LB,MS200095-0022-VISION-JPN_SITE01-0016,464,blank_field,"{""LBBLFL"": {""original"": ""Y"", ""injected"": """"}}",,
INJ-SD0006-LB-002-row11,SD0006,injected,LB,MS200095-0022-VISION-JPN_SITE01-0016,465,blank_field,"{""LBBLFL"": {""original"": ""Y"", ""injected"": """"}}",,
INJ-SD0006-LB-002-row12,SD0006,injected,LB,MS200095-0022-VISION-JPN_SITE01-0016,466,blank_field,"{""LBBLFL"": {""original"": ""Y"", ""injected"": """"}}",,
INJ-SD0006-LB-002-row13,SD0006,injected,LB,MS200095-0022-VISION-JPN_SITE01-0016,467,blank_field,"{""LBBLFL"": {""original"": ""Y"", ""injected"": """"}}",,
INJ-SD0006-LB-002-row14,SD0006,injected,LB,MS200095-0022-VISION-JPN_SITE01-0016,468,blank_field,"{""LBBLFL"": {""original"": ""Y"", ""injected"": """"}}",,
INJ-SD0006-LB-004-row8,SD0006,injected,LB,MS200095-0022-VISION-CHN_SITE01-0015,28,blank_field,"{""LBBLFL"": {""original"": ""Y"", ""injected"": """"}}",,
INJ-SD0006-LB-004-row9,SD0006,injected,LB,MS200095-0022-VISION-CHN_SITE01-0015,29,blank_field,"{""LBBLFL"": {""original"": ""Y"", ""injected"": """"}}",,
INJ-SD0006-LB-004-row10,SD0006,injected,LB,MS200095-0022-VISION-CHN_SITE01-0015,30,blank_field,"{""LBBLFL"": {""original"": ""Y"", ""injected"": """"}}",,
INJ-SD0006-LB-004-row11,SD0006,injected,LB,MS200095-0022-VISION-CHN_SITE01-0015,31,blank_field,"{""LBBLFL"": {""original"": ""Y"", ""injected"": """"}}",,
INJ-SD0006-LB-004-row12,SD0006,injected,LB,MS200095-0022-VISION-CHN_SITE01-0015,32,blank_field,"{""LBBLFL"": {""original"": ""Y"", ""injected"": """"}}",,
INJ-SD0006-LB-004-row13,SD0006,injected,LB,MS200095-0022-VISION-CHN_SITE01-0015,33,blank_field,"{""LBBLFL"": {""original"": ""Y"", ""injected"": """"}}",,
INJ-SD0006-LB-004-row14,SD0006,injected,LB,MS200095-0022-VISION-CHN_SITE01-0015,34,blank_field,"{""LBBLFL"": {""original"": ""Y"", ""injected"": """"}}",,
INJ-SD0006-LB-005-row3,SD0006,injected,LB,MS200095-0022-VISION-JPN_SITE02-0019,758,blank_field,"{""LBBLFL"": {""original"": ""Y"", ""injected"": """"}}",,
INJ-SD0006-LB-005-row8,SD0006,injected,LB,MS200095-0022-VISION-JPN_SITE02-0019,763,blank_field,"{""LBBLFL"": {""original"": ""Y"", ""injected"": """"}}",,
INJ-SD0006-LB-005-row9,SD0006,injected,LB,MS200095-0022-VISION-JPN_SITE02-0019,764,blank_field,"{""LBBLFL"": {""original"": ""Y"", ""injected"": """"}}",,
INJ-SD0006-LB-005-row11,SD0006,injected,LB,MS200095-0022-VISION-JPN_SITE02-0019,766,blank_field,"{""LBBLFL"": {""original"": ""Y"", ""injected"": """"}}",,
INJ-SD0006-LB-005-row12,SD0006,injected,LB,MS200095-0022-VISION-JPN_SITE02-0019,767,blank_field,"{""LBBLFL"": {""original"": ""Y"", ""injected"": """"}}",,
INJ-SD0006-LB-005-row13,SD0006,injected,LB,MS200095-0022-VISION-JPN_SITE02-0019,768,blank_field,"{""LBBLFL"": {""original"": ""Y"", ""injected"": """"}}",,
INJ-SD0006-LB-005-row14,SD0006,injected,LB,MS200095-0022-VISION-JPN_SITE02-0019,769,blank_field,"{""LBBLFL"": {""original"": ""Y"", ""injected"": """"}}",,
INJ-SD0006-LB-006-row8,SD0006,injected,LB,MS200095-0022-VISION-USA_SITE02-0014,959,blank_field,"{""LBBLFL"": {""original"": ""Y"", ""injected"": """"}}",,
INJ-SD0006-LB-006-row9,SD0006,injected,LB,MS200095-0022-VISION-USA_SITE02-0014,960,blank_field,"{""LBBLFL"": {""original"": ""Y"", ""injected"": """"}}",,
INJ-SD0006-LB-006-row10,SD0006,injected,LB,MS200095-0022-VISION-USA_SITE02-0014,961,blank_field,"{""LBBLFL"": {""original"": ""Y"", ""injected"": """"}}",,
INJ-SD0006-LB-006-row11,SD0006,injected,LB,MS200095-0022-VISION-USA_SITE02-0014,962,blank_field,"{""LBBLFL"": {""original"": ""Y"", ""injected"": """"}}",,
INJ-SD0006-LB-006-row12,SD0006,injected,LB,MS200095-0022-VISION-USA_SITE02-0014,963,blank_field,"{""LBBLFL"": {""original"": ""Y"", ""injected"": """"}}",,
INJ-SD0006-LB-006-row13,SD0006,injected,LB,MS200095-0022-VISION-USA_SITE02-0014,964,blank_field,"{""LBBLFL"": {""original"": ""Y"", ""injected"": """"}}",,
INJ-SD0006-LB-006-row14,SD0006,injected,LB,MS200095-0022-VISION-USA_SITE02-0014,965,blank_field,"{""LBBLFL"": {""original"": ""Y"", ""injected"": """"}}",,
INJ-SD0006-LB-007-row1,SD0006,injected,LB,MS200095-0022-VISION-JPN_SITE02-0012,588,blank_field,"{""LBBLFL"": {""original"": ""Y"", ""injected"": """"}}",,
INJ-SD0006-LB-007-row5,SD0006,injected,LB,MS200095-0022-VISION-JPN_SITE02-0012,592,blank_field,"{""LBBLFL"": {""original"": ""Y"", ""injected"": """"}}",,
INJ-SD0006-LB-007-row9,SD0006,injected,LB,MS200095-0022-VISION-JPN_SITE02-0012,596,blank_field,"{""LBBLFL"": {""original"": ""Y"", ""injected"": """"}}",,
INJ-SD0006-LB-007-row10,SD0006,injected,LB,MS200095-0022-VISION-JPN_SITE02-0012,597,blank_field,"{""LBBLFL"": {""original"": ""Y"", ""injected"": """"}}",,
INJ-SD0006-LB-007-row11,SD0006,injected,LB,MS200095-0022-VISION-JPN_SITE02-0012,598,blank_field,"{""LBBLFL"": {""original"": ""Y"", ""injected"": """"}}",,
INJ-SD0006-LB-007-row13,SD0006,injected,LB,MS200095-0022-VISION-JPN_SITE02-0012,600,blank_field,"{""LBBLFL"": {""original"": ""Y"", ""injected"": """"}}",,
INJ-SD0006-LB-007-row14,SD0006,injected,LB,MS200095-0022-VISION-JPN_SITE02-0012,601,blank_field,"{""LBBLFL"": {""original"": ""Y"", ""injected"": """"}}",,
INJ-SD0006-LB-008-row8,SD0006,injected,LB,MS200095-0022-VISION-JPN_SITE02-0017,679,blank_field,"{""LBBLFL"": {""original"": ""Y"", ""injected"": """"}}",,
INJ-SD0006-LB-008-row9,SD0006,injected,LB,MS200095-0022-VISION-JPN_SITE02-0017,680,blank_field,"{""LBBLFL"": {""original"": ""Y"", ""injected"": """"}}",,
INJ-SD0006-LB-008-row10,SD0006,injected,LB,MS200095-0022-VISION-JPN_SITE02-0017,681,blank_field,"{""LBBLFL"": {""original"": ""Y"", ""injected"": """"}}",,
INJ-SD0006-LB-008-row11,SD0006,injected,LB,MS200095-0022-VISION-JPN_SITE02-0017,682,blank_field,"{""LBBLFL"": {""original"": ""Y"", ""injected"": """"}}",,
INJ-SD0006-LB-008-row12,SD0006,injected,LB,MS200095-0022-VISION-JPN_SITE02-0017,683,blank_field,"{""LBBLFL"": {""original"": ""Y"", ""injected"": """"}}",,
INJ-SD0006-LB-008-row13,SD0006,injected,LB,MS200095-0022-VISION-JPN_SITE02-0017,684,blank_field,"{""LBBLFL"": {""original"": ""Y"", ""injected"": """"}}",,
INJ-SD0006-LB-008-row14,SD0006,injected,LB,MS200095-0022-VISION-JPN_SITE02-0017,685,blank_field,"{""LBBLFL"": {""original"": ""Y"", ""injected"": """"}}",,
INJ-SD0006-LB-009-row7,SD0006,injected,LB,MS200095-0022-VISION-GBR_SITE01-0008,230,blank_field,"{""LBBLFL"": {""original"": ""Y"", ""injected"": """"}}",,
INJ-SD0006-LB-009-row8,SD0006,injected,LB,MS200095-0022-VISION-GBR_SITE01-0008,231,blank_field,"{""LBBLFL"": {""original"": ""Y"", ""injected"": """"}}",,
INJ-SD0006-LB-009-row9,SD0006,injected,LB,MS200095-0022-VISION-GBR_SITE01-0008,232,blank_field,"{""LBBLFL"": {""original"": ""Y"", ""injected"": """"}}",,
INJ-SD0006-LB-009-row10,SD0006,injected,LB,MS200095-0022-VISION-GBR_SITE01-0008,233,blank_field,"{""LBBLFL"": {""original"": ""Y"", ""injected"": """"}}",,
INJ-SD0006-LB-009-row11,SD0006,injected,LB,MS200095-0022-VISION-GBR_SITE01-0008,234,blank_field,"{""LBBLFL"": {""original"": ""Y"", ""injected"": """"}}",,
INJ-SD0006-LB-009-row12,SD0006,injected,LB,MS200095-0022-VISION-GBR_SITE01-0008,235,blank_field,"{""LBBLFL"": {""original"": ""Y"", ""injected"": """"}}",,
INJ-SD0006-LB-009-row13,SD0006,injected,LB,MS200095-0022-VISION-GBR_SITE01-0008,236,blank_field,"{""LBBLFL"": {""original"": ""Y"", ""injected"": """"}}",,
INJ-SD0006-LB-011-row6,SD0006,injected,LB,MS200095-0022-VISION-ITA_SITE01-0006,320,blank_field,"{""LBBLFL"": {""original"": ""Y"", ""injected"": """"}}",,
INJ-SD0006-LB-011-row8,SD0006,injected,LB,MS200095-0022-VISION-ITA_SITE01-0006,322,blank_field,"{""LBBLFL"": {""original"": ""Y"", ""injected"": """"}}",,
INJ-SD0006-LB-011-row9,SD0006,injected,LB,MS200095-0022-VISION-ITA_SITE01-0006,323,blank_field,"{""LBBLFL"": {""original"": ""Y"", ""injected"": """"}}",,
INJ-SD0006-LB-011-row10,SD0006,injected,LB,MS200095-0022-VISION-ITA_SITE01-0006,324,blank_field,"{""LBBLFL"": {""original"": ""Y"", ""injected"": """"}}",,
INJ-SD0006-LB-011-row11,SD0006,injected,LB,MS200095-0022-VISION-ITA_SITE01-0006,325,blank_field,"{""LBBLFL"": {""original"": ""Y"", ""injected"": """"}}",,
INJ-SD0006-LB-011-row12,SD0006,injected,LB,MS200095-0022-VISION-ITA_SITE01-0006,326,blank_field,"{""LBBLFL"": {""original"": ""Y"", ""injected"": """"}}",,
INJ-SD0006-LB-011-row14,SD0006,injected,LB,MS200095-0022-VISION-ITA_SITE01-0006,328,blank_field,"{""LBBLFL"": {""original"": ""Y"", ""injected"": """"}}",,
INJ-SD0006-LB-016-row8,SD0006,injected,LB,MS200095-0022-VISION-JPN_SITE02-0005,511,blank_field,"{""LBBLFL"": {""original"": ""Y"", ""injected"": """"}}",,
INJ-SD0006-LB-016-row9,SD0006,injected,LB,MS200095-0022-VISION-JPN_SITE02-0005,512,blank_field,"{""LBBLFL"": {""original"": ""Y"", ""injected"": """"}}",,
INJ-SD0006-LB-016-row10,SD0006,injected,LB,MS200095-0022-VISION-JPN_SITE02-0005,513,blank_field,"{""LBBLFL"": {""original"": ""Y"", ""injected"": """"}}",,
INJ-SD0006-LB-016-row11,SD0006,injected,LB,MS200095-0022-VISION-JPN_SITE02-0005,514,blank_field,"{""LBBLFL"": {""original"": ""Y"", ""injected"": """"}}",,
INJ-SD0006-LB-016-row12,SD0006,injected,LB,MS200095-0022-VISION-JPN_SITE02-0005,515,blank_field,"{""LBBLFL"": {""original"": ""Y"", ""injected"": """"}}",,
INJ-SD0006-LB-016-row13,SD0006,injected,LB,MS200095-0022-VISION-JPN_SITE02-0005,516,blank_field,"{""LBBLFL"": {""original"": ""Y"", ""injected"": """"}}",,
INJ-SD0006-LB-016-row14,SD0006,injected,LB,MS200095-0022-VISION-JPN_SITE02-0005,517,blank_field,"{""LBBLFL"": {""original"": ""Y"", ""injected"": """"}}",,
INJ-SD0006-LB-019-row5,SD0006,injected,LB,MS200095-0022-VISION-FRA_SITE01-0003,172,blank_field,"{""LBBLFL"": {""original"": ""Y"", ""injected"": """"}}",,
INJ-SD0006-LB-019-row8,SD0006,injected,LB,MS200095-0022-VISION-FRA_SITE01-0003,175,blank_field,"{""LBBLFL"": {""original"": ""Y"", ""injected"": """"}}",,
INJ-SD0006-LB-019-row9,SD0006,injected,LB,MS200095-0022-VISION-FRA_SITE01-0003,176,blank_field,"{""LBBLFL"": {""original"": ""Y"", ""injected"": """"}}",,
INJ-SD0006-LB-019-row11,SD0006,injected,LB,MS200095-0022-VISION-FRA_SITE01-0003,178,blank_field,"{""LBBLFL"": {""original"": ""Y"", ""injected"": """"}}",,
INJ-SD0006-LB-019-row13,SD0006,injected,LB,MS200095-0022-VISION-FRA_SITE01-0003,180,blank_field,"{""LBBLFL"": {""original"": ""Y"", ""injected"": """"}}",,
INJ-SD0006-LB-019-row14,SD0006,injected,LB,MS200095-0022-VISION-FRA_SITE01-0003,181,blank_field,"{""LBBLFL"": {""original"": ""Y"", ""injected"": """"}}",,
INJ-SD0006-LB-023-row8,SD0006,injected,LB,MS200095-0022-VISION-DEU_SITE01-0009,98,blank_field,"{""LBBLFL"": {""original"": ""Y"", ""injected"": """"}}",,
INJ-SD0006-LB-023-row9,SD0006,injected,LB,MS200095-0022-VISION-DEU_SITE01-0009,99,blank_field,"{""LBBLFL"": {""original"": ""Y"", ""injected"": """"}}",,
INJ-SD0006-LB-023-row10,SD0006,injected,LB,MS200095-0022-VISION-DEU_SITE01-0009,100,blank_field,"{""LBBLFL"": {""original"": ""Y"", ""injected"": """"}}",,
INJ-SD0006-LB-023-row11,SD0006,injected,LB,MS200095-0022-VISION-DEU_SITE01-0009,101,blank_field,"{""LBBLFL"": {""original"": ""Y"", ""injected"": """"}}",,
INJ-SD0006-LB-023-row12,SD0006,injected,LB,MS200095-0022-VISION-DEU_SITE01-0009,102,blank_field,"{""LBBLFL"": {""original"": ""Y"", ""injected"": """"}}",,
INJ-SD0006-LB-023-row13,SD0006,injected,LB,MS200095-0022-VISION-DEU_SITE01-0009,103,blank_field,"{""LBBLFL"": {""original"": ""Y"", ""injected"": """"}}",,
INJ-SD0006-LB-023-row14,SD0006,injected,LB,MS200095-0022-VISION-DEU_SITE01-0009,104,blank_field,"{""LBBLFL"": {""original"": ""Y"", ""injected"": """"}}",,
INJ-SD0006-LB-025-row2,SD0006,injected,LB,MS200095-0022-VISION-USA_SITE01-0007,827,blank_field,"{""LBBLFL"": {""original"": ""Y"", ""injected"": """"}}",,
INJ-SD0006-LB-025-row8,SD0006,injected,LB,MS200095-0022-VISION-USA_SITE01-0007,833,blank_field,"{""LBBLFL"": {""original"": ""Y"", ""injected"": """"}}",,
INJ-SD0006-LB-025-row10,SD0006,injected,LB,MS200095-0022-VISION-USA_SITE01-0007,835,blank_field,"{""LBBLFL"": {""original"": ""Y"", ""injected"": """"}}",,
INJ-SD0006-LB-025-row11,SD0006,injected,LB,MS200095-0022-VISION-USA_SITE01-0007,836,blank_field,"{""LBBLFL"": {""original"": ""Y"", ""injected"": """"}}",,
INJ-SD0006-LB-025-row12,SD0006,injected,LB,MS200095-0022-VISION-USA_SITE01-0007,837,blank_field,"{""LBBLFL"": {""original"": ""Y"", ""injected"": """"}}",,
INJ-SD0006-LB-025-row13,SD0006,injected,LB,MS200095-0022-VISION-USA_SITE01-0007,838,blank_field,"{""LBBLFL"": {""original"": ""Y"", ""injected"": """"}}",,
INJ-SD0006-LB-025-row14,SD0006,injected,LB,MS200095-0022-VISION-USA_SITE01-0007,839,blank_field,"{""LBBLFL"": {""original"": ""Y"", ""injected"": """"}}",,
INJ-SD0006-LB-026-row8,SD0006,injected,LB,MS200095-0022-VISION-USA_SITE01-0018,889,blank_field,"{""LBBLFL"": {""original"": ""Y"", ""injected"": """"}}",,
INJ-SD0006-LB-026-row9,SD0006,injected,LB,MS200095-0022-VISION-USA_SITE01-0018,890,blank_field,"{""LBBLFL"": {""original"": ""Y"", ""injected"": """"}}",,
INJ-SD0006-LB-026-row10,SD0006,injected,LB,MS200095-0022-VISION-USA_SITE01-0018,891,blank_field,"{""LBBLFL"": {""original"": ""Y"", ""injected"": """"}}",,
INJ-SD0006-LB-026-row11,SD0006,injected,LB,MS200095-0022-VISION-USA_SITE01-0018,892,blank_field,"{""LBBLFL"": {""original"": ""Y"", ""injected"": """"}}",,
INJ-SD0006-LB-026-row12,SD0006,injected,LB,MS200095-0022-VISION-USA_SITE01-0018,893,blank_field,"{""LBBLFL"": {""original"": ""Y"", ""injected"": """"}}",,
INJ-SD0006-LB-026-row13,SD0006,injected,LB,MS200095-0022-VISION-USA_SITE01-0018,894,blank_field,"{""LBBLFL"": {""original"": ""Y"", ""injected"": """"}}",,
INJ-SD0006-LB-026-row14,SD0006,injected,LB,MS200095-0022-VISION-USA_SITE01-0018,895,blank_field,"{""LBBLFL"": {""original"": ""Y"", ""injected"": """"}}",,
INJ-SD0006-LB-035-row8,SD0006,injected,LB,MS200095-0022-VISION-USA_SITE02-0002,945,blank_field,"{""LBBLFL"": {""original"": ""Y"", ""injected"": """"}}",,
INJ-SD0006-LB-035-row9,SD0006,injected,LB,MS200095-0022-VISION-USA_SITE02-0002,946,blank_field,"{""LBBLFL"": {""original"": ""Y"", ""injected"": """"}}",,
INJ-SD0006-LB-035-row10,SD0006,injected,LB,MS200095-0022-VISION-USA_SITE02-0002,947,blank_field,"{""LBBLFL"": {""original"": ""Y"", ""injected"": """"}}",,
INJ-SD0006-LB-035-row11,SD0006,injected,LB,MS200095-0022-VISION-USA_SITE02-0002,948,blank_field,"{""LBBLFL"": {""original"": ""Y"", ""injected"": """"}}",,
INJ-SD0006-LB-035-row12,SD0006,injected,LB,MS200095-0022-VISION-USA_SITE02-0002,949,blank_field,"{""LBBLFL"": {""original"": ""Y"", ""injected"": """"}}",,
INJ-SD0006-LB-035-row13,SD0006,injected,LB,MS200095-0022-VISION-USA_SITE02-0002,950,blank_field,"{""LBBLFL"": {""original"": ""Y"", ""injected"": """"}}",,
INJ-SD0006-LB-035-row14,SD0006,injected,LB,MS200095-0022-VISION-USA_SITE02-0002,951,blank_field,"{""LBBLFL"": {""original"": ""Y"", ""injected"": """"}}",,
INJ-SD0006-LB-042-row8,SD0006,injected,LB,MS200095-0022-VISION-FRA_SITE01-0013,217,blank_field,"{""LBBLFL"": {""original"": ""Y"", ""injected"": """"}}",,
INJ-SD0006-LB-042-row9,SD0006,injected,LB,MS200095-0022-VISION-FRA_SITE01-0013,218,blank_field,"{""LBBLFL"": {""original"": ""Y"", ""injected"": """"}}",,
INJ-SD0006-LB-042-row10,SD0006,injected,LB,MS200095-0022-VISION-FRA_SITE01-0013,219,blank_field,"{""LBBLFL"": {""original"": ""Y"", ""injected"": """"}}",,
INJ-SD0006-LB-042-row11,SD0006,injected,LB,MS200095-0022-VISION-FRA_SITE01-0013,220,blank_field,"{""LBBLFL"": {""original"": ""Y"", ""injected"": """"}}",,
INJ-SD0006-LB-042-row12,SD0006,injected,LB,MS200095-0022-VISION-FRA_SITE01-0013,221,blank_field,"{""LBBLFL"": {""original"": ""Y"", ""injected"": """"}}",,
INJ-SD0006-LB-042-row13,SD0006,injected,LB,MS200095-0022-VISION-FRA_SITE01-0013,222,blank_field,"{""LBBLFL"": {""original"": ""Y"", ""injected"": """"}}",,
INJ-SD0006-LB-042-row14,SD0006,injected,LB,MS200095-0022-VISION-FRA_SITE01-0013,223,blank_field,"{""LBBLFL"": {""original"": ""Y"", ""injected"": """"}}",,
INJ-SD0006-VS-051-row9,SD0006,injected,VS,MS200095-0022-VISION-CHN_SITE01-0001,8,blank_field,"{""VSBLFL"": {""original"": ""Y"", ""injected"": """"}}",,
INJ-SD0006-VS-051-row10,SD0006,injected,VS,MS200095-0022-VISION-CHN_SITE01-0001,9,blank_field,"{""VSBLFL"": {""original"": ""Y"", ""injected"": """"}}",,
INJ-SD0006-VS-051-row11,SD0006,injected,VS,MS200095-0022-VISION-CHN_SITE01-0001,10,blank_field,"{""VSBLFL"": {""original"": ""Y"", ""injected"": """"}}",,
INJ-SD0006-VS-051-row12,SD0006,injected,VS,MS200095-0022-VISION-CHN_SITE01-0001,11,blank_field,"{""VSBLFL"": {""original"": ""Y"", ""injected"": """"}}",,
INJ-SD0006-VS-051-row13,SD0006,injected,VS,MS200095-0022-VISION-CHN_SITE01-0001,12,blank_field,"{""VSBLFL"": {""original"": ""Y"", ""injected"": """"}}",,
INJ-SD0006-VS-051-row14,SD0006,injected,VS,MS200095-0022-VISION-CHN_SITE01-0001,13,blank_field,"{""VSBLFL"": {""original"": ""Y"", ""injected"": """"}}",,
INJ-SD0006-VS-051-row15,SD0006,injected,VS,MS200095-0022-VISION-CHN_SITE01-0001,14,blank_field,"{""VSBLFL"": {""original"": ""Y"", ""injected"": """"}}",,
INJ-SD0006-VS-051-row16,SD0006,injected,VS,MS200095-0022-VISION-CHN_SITE01-0001,15,blank_field,"{""VSBLFL"": {""original"": ""Y"", ""injected"": """"}}",,
INJ-SD0006-VS-052-row9,SD0006,injected,VS,MS200095-0022-VISION-JPN_SITE02-0010,685,blank_field,"{""VSBLFL"": {""original"": ""Y"", ""injected"": """"}}",,
INJ-SD0006-VS-052-row10,SD0006,injected,VS,MS200095-0022-VISION-JPN_SITE02-0010,686,blank_field,"{""VSBLFL"": {""original"": ""Y"", ""injected"": """"}}",,
INJ-SD0006-VS-052-row11,SD0006,injected,VS,MS200095-0022-VISION-JPN_SITE02-0010,687,blank_field,"{""VSBLFL"": {""original"": ""Y"", ""injected"": """"}}",,
INJ-SD0006-VS-052-row12,SD0006,injected,VS,MS200095-0022-VISION-JPN_SITE02-0010,688,blank_field,"{""VSBLFL"": {""original"": ""Y"", ""injected"": """"}}",,
INJ-SD0006-VS-052-row13,SD0006,injected,VS,MS200095-0022-VISION-JPN_SITE02-0010,689,blank_field,"{""VSBLFL"": {""original"": ""Y"", ""injected"": """"}}",,
INJ-SD0006-VS-052-row14,SD0006,injected,VS,MS200095-0022-VISION-JPN_SITE02-0010,690,blank_field,"{""VSBLFL"": {""original"": ""Y"", ""injected"": """"}}",,
INJ-SD0006-VS-052-row15,SD0006,injected,VS,MS200095-0022-VISION-JPN_SITE02-0010,691,blank_field,"{""VSBLFL"": {""original"": ""Y"", ""injected"": """"}}",,
INJ-SD0006-VS-052-row16,SD0006,injected,VS,MS200095-0022-VISION-JPN_SITE02-0010,692,blank_field,"{""VSBLFL"": {""original"": ""Y"", ""injected"": """"}}",,
INJ-SD0065-IE-001,SD0065,injected,IE,MS200095-0022-VISION-DEU_SITE01-0004,0,cross_domain_mismatch,"{""VISITNUM"": {""original"": ""1.0"", ""injected"": ""99""}}",,
INJ-SD0065-IE-002,SD0065,injected,IE,MS200095-0022-VISION-JPN_SITE02-0020,1,cross_domain_mismatch,"{""VISITNUM"": {""original"": ""1.0"", ""injected"": ""99""}}",,
INJ-SD0051-SV-001,SD0051,injected,SV,MS200095-0022-VISION-JPN_SITE02-0020,141,duplicate_with_mutation,"{""VISIT"": {""original"": ""SCREENING"", ""injected"": ""AMBIGUOUS VISIT""}}",,
INJ-SD0051-IE-002,SD0051,injected,IE,MS200095-0022-VISION-DEU_SITE01-0004,0,duplicate_with_mutation,"{""VISIT"": {""original"": ""SCREENING"", ""injected"": ""AMBIGUOUS VISIT""}}",,
INJ-SD0052-IE-001,SD0052,injected,IE,MS200095-0022-VISION-DEU_SITE01-0004,2,duplicate_with_mutation,"{""VISITNUM"": {""original"": ""99"", ""injected"": ""99""}}",,
INJ-SD0036-IE-001,SD0036,injected,IE,MS200095-0022-VISION-DEU_SITE01-0004,2,blank_field,"{""IESTRESC"": {""original"": ""N"", ""injected"": """"}}",,
INJ-SD1339-IE-001,SD1339,injected,IE,MS200095-0022-VISION-DEU_SITE01-0004,0,blank_field,"{""EPOCH"": {""original"": ""SCREENING"", ""injected"": """"}}",,
INJ-SD1015-SV-001,SD1015,injected,SV,MS200095-0022-VISION-JPN_SITE02-0020,172,cross_domain_mismatch,"{""EPOCH"": {""original"": ""SCREENING"", ""injected"": ""WASHOUT""}}",,
INJ-SD0005-DM-001,SD0005,injected,DM,MS200095-0022-VISION-JPN_SITE02-0020,15,duplicate_record,"{""__row__"": {""original"": ""unique"", ""injected"": ""duplicated""}}",,
INJ-SD0005-SV-002,SD0005,injected,SV,MS200095-0022-VISION-JPN_SITE02-0020,172,duplicate_record,"{""__row__"": {""original"": ""unique"", ""injected"": ""duplicated""}}",,
INJ-SD0005-TA-003,SD0005,injected,TA,,0,duplicate_record,"{""__row__"": {""original"": ""unique"", ""injected"": ""duplicated""}}",,
INJ-SD0005-TA-004,SD0005,injected,TA,,1,duplicate_record,"{""__row__"": {""original"": ""unique"", ""injected"": ""duplicated""}}",,
INJ-SD0005-TA-005,SD0005,injected,TA,,2,duplicate_record,"{""__row__"": {""original"": ""unique"", ""injected"": ""duplicated""}}",,
INJ-SD0005-TA-006,SD0005,injected,TA,,3,duplicate_record,"{""__row__"": {""original"": ""unique"", ""injected"": ""duplicated""}}",,
INJ-SD0005-TA-007,SD0005,injected,TA,,4,duplicate_record,"{""__row__"": {""original"": ""unique"", ""injected"": ""duplicated""}}",,
INJ-SD0005-TA-008,SD0005,injected,TA,,5,duplicate_record,"{""__row__"": {""original"": ""unique"", ""injected"": ""duplicated""}}",,
INJ-SD0005-TA-009,SD0005,injected,TA,,6,duplicate_record,"{""__row__"": {""original"": ""unique"", ""injected"": ""duplicated""}}",,
INJ-SD0005-TA-010,SD0005,injected,TA,,7,duplicate_record,"{""__row__"": {""original"": ""unique"", ""injected"": ""duplicated""}}",,
INJ-SD0005-TA-011,SD0005,injected,TA,,8,duplicate_record,"{""__row__"": {""original"": ""unique"", ""injected"": ""duplicated""}}",,
INJ-SD0005-TE-012,SD0005,injected,TE,,0,duplicate_record,"{""__row__"": {""original"": ""unique"", ""injected"": ""duplicated""}}",,
INJ-SD0005-TE-013,SD0005,injected,TE,,1,duplicate_record,"{""__row__"": {""original"": ""unique"", ""injected"": ""duplicated""}}",,
INJ-SD0005-TE-014,SD0005,injected,TE,,2,duplicate_record,"{""__row__"": {""original"": ""unique"", ""injected"": ""duplicated""}}",,
INJ-SD0005-TI-015,SD0005,injected,TI,,0,duplicate_record,"{""__row__"": {""original"": ""unique"", ""injected"": ""duplicated""}}",,
INJ-SD0005-TI-016,SD0005,injected,TI,,1,duplicate_record,"{""__row__"": {""original"": ""unique"", ""injected"": ""duplicated""}}",,
INJ-SD0005-TI-017,SD0005,injected,TI,,2,duplicate_record,"{""__row__"": {""original"": ""unique"", ""injected"": ""duplicated""}}",,
INJ-SD0005-TI-018,SD0005,injected,TI,,3,duplicate_record,"{""__row__"": {""original"": ""unique"", ""injected"": ""duplicated""}}",,
INJ-SD0005-TI-019,SD0005,injected,TI,,4,duplicate_record,"{""__row__"": {""original"": ""unique"", ""injected"": ""duplicated""}}",,
INJ-SD0005-TI-020,SD0005,injected,TI,,5,duplicate_record,"{""__row__"": {""original"": ""unique"", ""injected"": ""duplicated""}}",,
INJ-SD0005-TI-021,SD0005,injected,TI,,6,duplicate_record,"{""__row__"": {""original"": ""unique"", ""injected"": ""duplicated""}}",,
INJ-SD0005-TI-022,SD0005,injected,TI,,7,duplicate_record,"{""__row__"": {""original"": ""unique"", ""injected"": ""duplicated""}}",,
INJ-SD0005-TI-023,SD0005,injected,TI,,8,duplicate_record,"{""__row__"": {""original"": ""unique"", ""injected"": ""duplicated""}}",,
INJ-SD0005-TI-024,SD0005,injected,TI,,9,duplicate_record,"{""__row__"": {""original"": ""unique"", ""injected"": ""duplicated""}}",,
INJ-SD0005-TM-025,SD0005,injected,TM,,0,duplicate_record,"{""__row__"": {""original"": ""unique"", ""injected"": ""duplicated""}}",,
INJ-SD0005-TS-026,SD0005,injected,TS,,0,duplicate_record,"{""__row__"": {""original"": ""unique"", ""injected"": ""duplicated""}}",,
INJ-SD0005-TS-027,SD0005,injected,TS,,1,duplicate_record,"{""__row__"": {""original"": ""unique"", ""injected"": ""duplicated""}}",,
INJ-SD0005-TS-028,SD0005,injected,TS,,2,duplicate_record,"{""__row__"": {""original"": ""unique"", ""injected"": ""duplicated""}}",,
INJ-SD0005-TS-029,SD0005,injected,TS,,3,duplicate_record,"{""__row__"": {""original"": ""unique"", ""injected"": ""duplicated""}}",,
INJ-SD0005-TS-030,SD0005,injected,TS,,4,duplicate_record,"{""__row__"": {""original"": ""unique"", ""injected"": ""duplicated""}}",,
INJ-SD0005-TS-031,SD0005,injected,TS,,5,duplicate_record,"{""__row__"": {""original"": ""unique"", ""injected"": ""duplicated""}}",,
INJ-SD0005-TS-032,SD0005,injected,TS,,6,duplicate_record,"{""__row__"": {""original"": ""unique"", ""injected"": ""duplicated""}}",,
INJ-SD0005-TS-033,SD0005,injected,TS,,7,duplicate_record,"{""__row__"": {""original"": ""unique"", ""injected"": ""duplicated""}}",,
INJ-SD0005-TS-034,SD0005,injected,TS,,8,duplicate_record,"{""__row__"": {""original"": ""unique"", ""injected"": ""duplicated""}}",,
INJ-SD0005-TS-035,SD0005,injected,TS,,9,duplicate_record,"{""__row__"": {""original"": ""unique"", ""injected"": ""duplicated""}}",,
INJ-SD0005-TS-036,SD0005,injected,TS,,10,duplicate_record,"{""__row__"": {""original"": ""unique"", ""injected"": ""duplicated""}}",,
INJ-SD0005-TS-037,SD0005,injected,TS,,11,duplicate_record,"{""__row__"": {""original"": ""unique"", ""injected"": ""duplicated""}}",,
INJ-SD0005-TS-038,SD0005,injected,TS,,12,duplicate_record,"{""__row__"": {""original"": ""unique"", ""injected"": ""duplicated""}}",,
INJ-SD0005-TS-039,SD0005,injected,TS,,13,duplicate_record,"{""__row__"": {""original"": ""unique"", ""injected"": ""duplicated""}}",,
INJ-SD0005-TS-040,SD0005,injected,TS,,14,duplicate_record,"{""__row__"": {""original"": ""unique"", ""injected"": ""duplicated""}}",,
INJ-SD0005-TS-041,SD0005,injected,TS,,15,duplicate_record,"{""__row__"": {""original"": ""unique"", ""injected"": ""duplicated""}}",,
INJ-SD0005-TS-042,SD0005,injected,TS,,16,duplicate_record,"{""__row__"": {""original"": ""unique"", ""injected"": ""duplicated""}}",,
INJ-SD0005-TS-043,SD0005,injected,TS,,17,duplicate_record,"{""__row__"": {""original"": ""unique"", ""injected"": ""duplicated""}}",,
INJ-SD0005-TS-044,SD0005,injected,TS,,18,duplicate_record,"{""__row__"": {""original"": ""unique"", ""injected"": ""duplicated""}}",,
INJ-SD0005-TS-045,SD0005,injected,TS,,19,duplicate_record,"{""__row__"": {""original"": ""unique"", ""injected"": ""duplicated""}}",,
INJ-SD0005-TS-046,SD0005,injected,TS,,20,duplicate_record,"{""__row__"": {""original"": ""unique"", ""injected"": ""duplicated""}}",,
INJ-SD0005-TS-047,SD0005,injected,TS,,21,duplicate_record,"{""__row__"": {""original"": ""unique"", ""injected"": ""duplicated""}}",,
INJ-SD0005-TS-048,SD0005,injected,TS,,22,duplicate_record,"{""__row__"": {""original"": ""unique"", ""injected"": ""duplicated""}}",,
INJ-SD0005-TS-049,SD0005,injected,TS,,23,duplicate_record,"{""__row__"": {""original"": ""unique"", ""injected"": ""duplicated""}}",,
INJ-SD0005-TS-050,SD0005,injected,TS,,24,duplicate_record,"{""__row__"": {""original"": ""unique"", ""injected"": ""duplicated""}}",,
INJ-SD0005-TS-051,SD0005,injected,TS,,25,duplicate_record,"{""__row__"": {""original"": ""unique"", ""injected"": ""duplicated""}}",,
INJ-SD0005-TS-052,SD0005,injected,TS,,26,duplicate_record,"{""__row__"": {""original"": ""unique"", ""injected"": ""duplicated""}}",,
INJ-SD0005-TS-053,SD0005,injected,TS,,27,duplicate_record,"{""__row__"": {""original"": ""unique"", ""injected"": ""duplicated""}}",,
INJ-SD0005-TS-054,SD0005,injected,TS,,28,duplicate_record,"{""__row__"": {""original"": ""unique"", ""injected"": ""duplicated""}}",,
INJ-SD0005-TS-055,SD0005,injected,TS,,29,duplicate_record,"{""__row__"": {""original"": ""unique"", ""injected"": ""duplicated""}}",,
INJ-SD0005-TS-056,SD0005,injected,TS,,30,duplicate_record,"{""__row__"": {""original"": ""unique"", ""injected"": ""duplicated""}}",,
INJ-SD0005-TS-057,SD0005,injected,TS,,31,duplicate_record,"{""__row__"": {""original"": ""unique"", ""injected"": ""duplicated""}}",,
INJ-SD0005-TS-058,SD0005,injected,TS,,32,duplicate_record,"{""__row__"": {""original"": ""unique"", ""injected"": ""duplicated""}}",,
INJ-SD0005-TS-059,SD0005,injected,TS,,33,duplicate_record,"{""__row__"": {""original"": ""unique"", ""injected"": ""duplicated""}}",,
INJ-SD0005-TS-060,SD0005,injected,TS,,34,duplicate_record,"{""__row__"": {""original"": ""unique"", ""injected"": ""duplicated""}}",,
INJ-SD0005-TS-061,SD0005,injected,TS,,35,duplicate_record,"{""__row__"": {""original"": ""unique"", ""injected"": ""duplicated""}}",,
INJ-SD0005-TS-062,SD0005,injected,TS,,36,duplicate_record,"{""__row__"": {""original"": ""unique"", ""injected"": ""duplicated""}}",,
INJ-SD0005-TS-063,SD0005,injected,TS,,37,duplicate_record,"{""__row__"": {""original"": ""unique"", ""injected"": ""duplicated""}}",,
INJ-SD0005-TS-064,SD0005,injected,TS,,38,duplicate_record,"{""__row__"": {""original"": ""unique"", ""injected"": ""duplicated""}}",,
INJ-SD0005-TS-065,SD0005,injected,TS,,39,duplicate_record,"{""__row__"": {""original"": ""unique"", ""injected"": ""duplicated""}}",,
INJ-SD0005-TS-066,SD0005,injected,TS,,40,duplicate_record,"{""__row__"": {""original"": ""unique"", ""injected"": ""duplicated""}}",,
INJ-SD0005-TS-067,SD0005,injected,TS,,41,duplicate_record,"{""__row__"": {""original"": ""unique"", ""injected"": ""duplicated""}}",,
INJ-SD0005-TS-068,SD0005,injected,TS,,42,duplicate_record,"{""__row__"": {""original"": ""unique"", ""injected"": ""duplicated""}}",,
INJ-SD0005-TS-069,SD0005,injected,TS,,43,duplicate_record,"{""__row__"": {""original"": ""unique"", ""injected"": ""duplicated""}}",,
INJ-SD0005-TS-070,SD0005,injected,TS,,44,duplicate_record,"{""__row__"": {""original"": ""unique"", ""injected"": ""duplicated""}}",,
INJ-SD0005-TV-071,SD0005,injected,TV,,0,duplicate_record,"{""__row__"": {""original"": ""unique"", ""injected"": ""duplicated""}}",,
INJ-SD0005-TV-072,SD0005,injected,TV,,1,duplicate_record,"{""__row__"": {""original"": ""unique"", ""injected"": ""duplicated""}}",,
INJ-SD0005-TV-073,SD0005,injected,TV,,2,duplicate_record,"{""__row__"": {""original"": ""unique"", ""injected"": ""duplicated""}}",,
INJ-SD0005-TV-074,SD0005,injected,TV,,3,duplicate_record,"{""__row__"": {""original"": ""unique"", ""injected"": ""duplicated""}}",,
INJ-SD0005-TV-075,SD0005,injected,TV,,4,duplicate_record,"{""__row__"": {""original"": ""unique"", ""injected"": ""duplicated""}}",,
INJ-SD0005-TV-076,SD0005,injected,TV,,5,duplicate_record,"{""__row__"": {""original"": ""unique"", ""injected"": ""duplicated""}}",,
INJ-SD0005-TV-077,SD0005,injected,TV,,6,duplicate_record,"{""__row__"": {""original"": ""unique"", ""injected"": ""duplicated""}}",,
INJ-SD0005-TV-078,SD0005,injected,TV,,7,duplicate_record,"{""__row__"": {""original"": ""unique"", ""injected"": ""duplicated""}}",,
INJ-SD0005-TV-079,SD0005,injected,TV,,8,duplicate_record,"{""__row__"": {""original"": ""unique"", ""injected"": ""duplicated""}}",,
INJ-SD0005-TV-080,SD0005,injected,TV,,9,duplicate_record,"{""__row__"": {""original"": ""unique"", ""injected"": ""duplicated""}}",,
INJ-SD0005-TV-081,SD0005,injected,TV,,10,duplicate_record,"{""__row__"": {""original"": ""unique"", ""injected"": ""duplicated""}}",,
INJ-SD0005-TV-082,SD0005,injected,TV,,11,duplicate_record,"{""__row__"": {""original"": ""unique"", ""injected"": ""duplicated""}}",,
INJ-SD0005-TV-083,SD0005,injected,TV,,12,duplicate_record,"{""__row__"": {""original"": ""unique"", ""injected"": ""duplicated""}}",,
INJ-SD0005-TV-084,SD0005,injected,TV,,13,duplicate_record,"{""__row__"": {""original"": ""unique"", ""injected"": ""duplicated""}}",,
INJ-SD0005-TV-085,SD0005,injected,TV,,14,duplicate_record,"{""__row__"": {""original"": ""unique"", ""injected"": ""duplicated""}}",,
INJ-SD0005-TV-086,SD0005,injected,TV,,15,duplicate_record,"{""__row__"": {""original"": ""unique"", ""injected"": ""duplicated""}}",,
INJ-SD0005-TV-087,SD0005,injected,TV,,16,duplicate_record,"{""__row__"": {""original"": ""unique"", ""injected"": ""duplicated""}}",,
INJ-SD0005-TV-088,SD0005,injected,TV,,17,duplicate_record,"{""__row__"": {""original"": ""unique"", ""injected"": ""duplicated""}}",,
INJ-SD0005-TV-089,SD0005,injected,TV,,18,duplicate_record,"{""__row__"": {""original"": ""unique"", ""injected"": ""duplicated""}}",,
INJ-SD0005-TV-090,SD0005,injected,TV,,19,duplicate_record,"{""__row__"": {""original"": ""unique"", ""injected"": ""duplicated""}}",,
INJ-SD0005-TV-091,SD0005,injected,TV,,20,duplicate_record,"{""__row__"": {""original"": ""unique"", ""injected"": ""duplicated""}}",,
INJ-SD0005-TV-092,SD0005,injected,TV,,21,duplicate_record,"{""__row__"": {""original"": ""unique"", ""injected"": ""duplicated""}}",,
INJ-SD0005-TV-093,SD0005,injected,TV,,22,duplicate_record,"{""__row__"": {""original"": ""unique"", ""injected"": ""duplicated""}}",,
INJ-SD0005-TV-094,SD0005,injected,TV,,23,duplicate_record,"{""__row__"": {""original"": ""unique"", ""injected"": ""duplicated""}}",,
INJ-SD0005-TV-095,SD0005,injected,TV,,24,duplicate_record,"{""__row__"": {""original"": ""unique"", ""injected"": ""duplicated""}}",,
INJ-SD0005-TV-096,SD0005,injected,TV,,25,duplicate_record,"{""__row__"": {""original"": ""unique"", ""injected"": ""duplicated""}}",,
INJ-SD0005-TV-097,SD0005,injected,TV,,26,duplicate_record,"{""__row__"": {""original"": ""unique"", ""injected"": ""duplicated""}}",,
INJ-SD0005-TV-098,SD0005,injected,TV,,27,duplicate_record,"{""__row__"": {""original"": ""unique"", ""injected"": ""duplicated""}}",,
INJ-SD0005-TV-099,SD0005,injected,TV,,28,duplicate_record,"{""__row__"": {""original"": ""unique"", ""injected"": ""duplicated""}}",,
INJ-SD0005-TV-100,SD0005,injected,TV,,29,duplicate_record,"{""__row__"": {""original"": ""unique"", ""injected"": ""duplicated""}}",,
INJ-SD0005-TV-101,SD0005,injected,TV,,30,duplicate_record,"{""__row__"": {""original"": ""unique"", ""injected"": ""duplicated""}}",,
INJ-SD0005-TV-102,SD0005,injected,TV,,31,duplicate_record,"{""__row__"": {""original"": ""unique"", ""injected"": ""duplicated""}}",,
INJ-SD0005-TV-103,SD0005,injected,TV,,32,duplicate_record,"{""__row__"": {""original"": ""unique"", ""injected"": ""duplicated""}}",,
INJ-SD0005-TV-104,SD0005,injected,TV,,33,duplicate_record,"{""__row__"": {""original"": ""unique"", ""injected"": ""duplicated""}}",,
INJ-SD0005-TV-105,SD0005,injected,TV,,34,duplicate_record,"{""__row__"": {""original"": ""unique"", ""injected"": ""duplicated""}}",,
INJ-SD0005-TV-106,SD0005,injected,TV,,35,duplicate_record,"{""__row__"": {""original"": ""unique"", ""injected"": ""duplicated""}}",,
INJ-SD0005-TV-107,SD0005,injected,TV,,36,duplicate_record,"{""__row__"": {""original"": ""unique"", ""injected"": ""duplicated""}}",,
INJ-SD0005-TV-108,SD0005,injected,TV,,37,duplicate_record,"{""__row__"": {""original"": ""unique"", ""injected"": ""duplicated""}}",,
INJ-SD0005-TV-109,SD0005,injected,TV,,38,duplicate_record,"{""__row__"": {""original"": ""unique"", ""injected"": ""duplicated""}}",,
INJ-SD1011-TE-019,SD1011,injected,TE,,0,set_invalid_value,"{""TEDUR"": {""original"": ""P30D"", ""injected"": ""NOT-ISO8601""}}",,
INJ-SD1011-TE-020,SD1011,injected,TE,,1,set_invalid_value,"{""TEDUR"": {""original"": ""P28D"", ""injected"": ""NOT-ISO8601""}}",,
INJ-SD1011-TE-021,SD1011,injected,TE,,2,set_invalid_value,"{""TEDUR"": {""original"": ""P504D"", ""injected"": ""NOT-ISO8601""}}",,
INJ-SD1011-TE-022,SD1011,injected,TE,,3,set_invalid_value,"{""TEDUR"": {""original"": ""P30D"", ""injected"": ""NOT-ISO8601""}}",,
INJ-SD1011-TE-023,SD1011,injected,TE,,4,set_invalid_value,"{""TEDUR"": {""original"": ""P28D"", ""injected"": ""NOT-ISO8601""}}",,
INJ-SD1011-TE-024,SD1011,injected,TE,,5,set_invalid_value,"{""TEDUR"": {""original"": ""P504D"", ""injected"": ""NOT-ISO8601""}}",,
INJ-SD1300-TA-001,SD1300,injected,TA,,0,set_invalid_value,"{""DOMAIN"": {""original"": ""TA"", ""injected"": ""INVALID""}}",,
INJ-SD1300-TA-002,SD1300,injected,TA,,1,set_invalid_value,"{""DOMAIN"": {""original"": ""TA"", ""injected"": ""INVALID""}}",,
INJ-SD1300-TA-003,SD1300,injected,TA,,2,set_invalid_value,"{""DOMAIN"": {""original"": ""TA"", ""injected"": ""INVALID""}}",,
INJ-SD1300-TA-004,SD1300,injected,TA,,3,set_invalid_value,"{""DOMAIN"": {""original"": ""TA"", ""injected"": ""INVALID""}}",,
INJ-SD1300-TA-005,SD1300,injected,TA,,4,set_invalid_value,"{""DOMAIN"": {""original"": ""TA"", ""injected"": ""INVALID""}}",,
INJ-SD1300-TA-006,SD1300,injected,TA,,5,set_invalid_value,"{""DOMAIN"": {""original"": ""TA"", ""injected"": ""INVALID""}}",,
INJ-SD1300-TA-007,SD1300,injected,TA,,6,set_invalid_value,"{""DOMAIN"": {""original"": ""TA"", ""injected"": ""INVALID""}}",,
INJ-SD1300-TA-008,SD1300,injected,TA,,7,set_invalid_value,"{""DOMAIN"": {""original"": ""TA"", ""injected"": ""INVALID""}}",,
INJ-SD1300-TA-009,SD1300,injected,TA,,8,set_invalid_value,"{""DOMAIN"": {""original"": ""TA"", ""injected"": ""INVALID""}}",,
INJ-SD1300-TA-010,SD1300,injected,TA,,9,set_invalid_value,"{""DOMAIN"": {""original"": ""TA"", ""injected"": ""INVALID""}}",,
INJ-SD1300-TA-011,SD1300,injected,TA,,10,set_invalid_value,"{""DOMAIN"": {""original"": ""TA"", ""injected"": ""INVALID""}}",,
INJ-SD1300-TA-012,SD1300,injected,TA,,11,set_invalid_value,"{""DOMAIN"": {""original"": ""TA"", ""injected"": ""INVALID""}}",,
INJ-SD1300-TA-013,SD1300,injected,TA,,12,set_invalid_value,"{""DOMAIN"": {""original"": ""TA"", ""injected"": ""INVALID""}}",,
INJ-SD1300-TA-014,SD1300,injected,TA,,13,set_invalid_value,"{""DOMAIN"": {""original"": ""TA"", ""injected"": ""INVALID""}}",,
INJ-SD1300-TA-015,SD1300,injected,TA,,14,set_invalid_value,"{""DOMAIN"": {""original"": ""TA"", ""injected"": ""INVALID""}}",,
INJ-SD1300-TA-016,SD1300,injected,TA,,15,set_invalid_value,"{""DOMAIN"": {""original"": ""TA"", ""injected"": ""INVALID""}}",,
INJ-SD1300-TA-017,SD1300,injected,TA,,16,set_invalid_value,"{""DOMAIN"": {""original"": ""TA"", ""injected"": ""INVALID""}}",,
INJ-SD1300-TA-018,SD1300,injected,TA,,17,set_invalid_value,"{""DOMAIN"": {""original"": ""TA"", ""injected"": ""INVALID""}}",,
INJ-SD1300-TE-019,SD1300,injected,TE,,0,set_invalid_value,"{""DOMAIN"": {""original"": ""TE"", ""injected"": ""INVALID""}}",,
INJ-SD1300-TE-020,SD1300,injected,TE,,1,set_invalid_value,"{""DOMAIN"": {""original"": ""TE"", ""injected"": ""INVALID""}}",,
INJ-SD1300-TE-021,SD1300,injected,TE,,2,set_invalid_value,"{""DOMAIN"": {""original"": ""TE"", ""injected"": ""INVALID""}}",,
INJ-SD1300-TE-022,SD1300,injected,TE,,3,set_invalid_value,"{""DOMAIN"": {""original"": ""TE"", ""injected"": ""INVALID""}}",,
INJ-SD1300-TE-023,SD1300,injected,TE,,4,set_invalid_value,"{""DOMAIN"": {""original"": ""TE"", ""injected"": ""INVALID""}}",,
INJ-SD1300-TE-024,SD1300,injected,TE,,5,set_invalid_value,"{""DOMAIN"": {""original"": ""TE"", ""injected"": ""INVALID""}}",,
INJ-SD1300-TI-025,SD1300,injected,TI,,0,set_invalid_value,"{""DOMAIN"": {""original"": ""TI"", ""injected"": ""INVALID""}}",,
INJ-SD1300-TI-026,SD1300,injected,TI,,1,set_invalid_value,"{""DOMAIN"": {""original"": ""TI"", ""injected"": ""INVALID""}}",,
INJ-SD1300-TI-027,SD1300,injected,TI,,2,set_invalid_value,"{""DOMAIN"": {""original"": ""TI"", ""injected"": ""INVALID""}}",,
INJ-SD1300-TI-028,SD1300,injected,TI,,3,set_invalid_value,"{""DOMAIN"": {""original"": ""TI"", ""injected"": ""INVALID""}}",,
INJ-SD1300-TI-029,SD1300,injected,TI,,4,set_invalid_value,"{""DOMAIN"": {""original"": ""TI"", ""injected"": ""INVALID""}}",,
INJ-SD1300-TI-030,SD1300,injected,TI,,5,set_invalid_value,"{""DOMAIN"": {""original"": ""TI"", ""injected"": ""INVALID""}}",,
INJ-SD1300-TI-031,SD1300,injected,TI,,6,set_invalid_value,"{""DOMAIN"": {""original"": ""TI"", ""injected"": ""INVALID""}}",,
INJ-SD1300-TI-032,SD1300,injected,TI,,7,set_invalid_value,"{""DOMAIN"": {""original"": ""TI"", ""injected"": ""INVALID""}}",,
INJ-SD1300-TI-033,SD1300,injected,TI,,8,set_invalid_value,"{""DOMAIN"": {""original"": ""TI"", ""injected"": ""INVALID""}}",,
INJ-SD1300-TI-034,SD1300,injected,TI,,9,set_invalid_value,"{""DOMAIN"": {""original"": ""TI"", ""injected"": ""INVALID""}}",,
INJ-SD1300-TI-035,SD1300,injected,TI,,10,set_invalid_value,"{""DOMAIN"": {""original"": ""TI"", ""injected"": ""INVALID""}}",,
INJ-SD1300-TI-036,SD1300,injected,TI,,11,set_invalid_value,"{""DOMAIN"": {""original"": ""TI"", ""injected"": ""INVALID""}}",,
INJ-SD1300-TI-037,SD1300,injected,TI,,12,set_invalid_value,"{""DOMAIN"": {""original"": ""TI"", ""injected"": ""INVALID""}}",,
INJ-SD1300-TI-038,SD1300,injected,TI,,13,set_invalid_value,"{""DOMAIN"": {""original"": ""TI"", ""injected"": ""INVALID""}}",,
INJ-SD1300-TI-039,SD1300,injected,TI,,14,set_invalid_value,"{""DOMAIN"": {""original"": ""TI"", ""injected"": ""INVALID""}}",,
INJ-SD1300-TI-040,SD1300,injected,TI,,15,set_invalid_value,"{""DOMAIN"": {""original"": ""TI"", ""injected"": ""INVALID""}}",,
INJ-SD1300-TI-041,SD1300,injected,TI,,16,set_invalid_value,"{""DOMAIN"": {""original"": ""TI"", ""injected"": ""INVALID""}}",,
INJ-SD1300-TI-042,SD1300,injected,TI,,17,set_invalid_value,"{""DOMAIN"": {""original"": ""TI"", ""injected"": ""INVALID""}}",,
INJ-SD1300-TI-043,SD1300,injected,TI,,18,set_invalid_value,"{""DOMAIN"": {""original"": ""TI"", ""injected"": ""INVALID""}}",,
INJ-SD1300-TI-044,SD1300,injected,TI,,19,set_invalid_value,"{""DOMAIN"": {""original"": ""TI"", ""injected"": ""INVALID""}}",,
INJ-SD1300-TM-045,SD1300,injected,TM,,0,set_invalid_value,"{""DOMAIN"": {""original"": ""TM"", ""injected"": ""INVALID""}}",,
INJ-SD1300-TM-046,SD1300,injected,TM,,1,set_invalid_value,"{""DOMAIN"": {""original"": ""TM"", ""injected"": ""INVALID""}}",,
INJ-SD1300-TS-047,SD1300,injected,TS,,55,set_invalid_value,"{""DOMAIN"": {""original"": ""TS"", ""injected"": ""INVALID""}}",,
INJ-SD1300-TS-048,SD1300,injected,TS,,10,set_invalid_value,"{""DOMAIN"": {""original"": ""TS"", ""injected"": ""INVALID""}}",,
INJ-SD1300-TS-049,SD1300,injected,TS,,32,set_invalid_value,"{""DOMAIN"": {""original"": ""TS"", ""injected"": ""INVALID""}}",,
INJ-SD1300-TS-050,SD1300,injected,TS,,49,set_invalid_value,"{""DOMAIN"": {""original"": ""TS"", ""injected"": ""INVALID""}}",,
INJ-SD1300-TS-051,SD1300,injected,TS,,39,set_invalid_value,"{""DOMAIN"": {""original"": ""TS"", ""injected"": ""INVALID""}}",,
INJ-SD1300-TS-052,SD1300,injected,TS,,81,set_invalid_value,"{""DOMAIN"": {""original"": ""TS"", ""injected"": ""INVALID""}}",,
INJ-SD1300-TS-053,SD1300,injected,TS,,57,set_invalid_value,"{""DOMAIN"": {""original"": ""TS"", ""injected"": ""INVALID""}}",,
INJ-SD1300-TS-054,SD1300,injected,TS,,77,set_invalid_value,"{""DOMAIN"": {""original"": ""TS"", ""injected"": ""INVALID""}}",,
INJ-SD1300-TS-055,SD1300,injected,TS,,18,set_invalid_value,"{""DOMAIN"": {""original"": ""TS"", ""injected"": ""INVALID""}}",,
INJ-SD1300-TS-056,SD1300,injected,TS,,59,set_invalid_value,"{""DOMAIN"": {""original"": ""TS"", ""injected"": ""INVALID""}}",,
INJ-SD1300-TS-057,SD1300,injected,TS,,72,set_invalid_value,"{""DOMAIN"": {""original"": ""TS"", ""injected"": ""INVALID""}}",,
INJ-SD1300-TS-058,SD1300,injected,TS,,8,set_invalid_value,"{""DOMAIN"": {""original"": ""TS"", ""injected"": ""INVALID""}}",,
INJ-SD1300-TS-059,SD1300,injected,TS,,67,set_invalid_value,"{""DOMAIN"": {""original"": ""TS"", ""injected"": ""INVALID""}}",,
INJ-SD1300-TS-060,SD1300,injected,TS,,15,set_invalid_value,"{""DOMAIN"": {""original"": ""TS"", ""injected"": ""INVALID""}}",,
INJ-SD1300-TS-061,SD1300,injected,TS,,27,set_invalid_value,"{""DOMAIN"": {""original"": ""TS"", ""injected"": ""INVALID""}}",,
INJ-SD1300-TS-062,SD1300,injected,TS,,29,set_invalid_value,"{""DOMAIN"": {""original"": ""TS"", ""injected"": ""INVALID""}}",,
INJ-SD1300-TS-063,SD1300,injected,TS,,68,set_invalid_value,"{""DOMAIN"": {""original"": ""TS"", ""injected"": ""INVALID""}}",,
INJ-SD1300-TS-064,SD1300,injected,TS,,35,set_invalid_value,"{""DOMAIN"": {""original"": ""TS"", ""injected"": ""INVALID""}}",,
INJ-SD1300-TS-065,SD1300,injected,TS,,75,set_invalid_value,"{""DOMAIN"": {""original"": ""TS"", ""injected"": ""INVALID""}}",,
INJ-SD1300-TS-066,SD1300,injected,TS,,84,set_invalid_value,"{""DOMAIN"": {""original"": ""TS"", ""injected"": ""INVALID""}}",,
INJ-SD1300-TS-067,SD1300,injected,TS,,1,set_invalid_value,"{""DOMAIN"": {""original"": ""TS"", ""injected"": ""INVALID""}}",,
INJ-SD1300-TS-068,SD1300,injected,TS,,51,set_invalid_value,"{""DOMAIN"": {""original"": ""TS"", ""injected"": ""INVALID""}}",,
INJ-SD1300-TS-069,SD1300,injected,TS,,70,set_invalid_value,"{""DOMAIN"": {""original"": ""TS"", ""injected"": ""INVALID""}}",,
INJ-SD1300-TS-070,SD1300,injected,TS,,19,set_invalid_value,"{""DOMAIN"": {""original"": ""TS"", ""injected"": ""INVALID""}}",,
INJ-SD1300-TS-071,SD1300,injected,TS,,58,set_invalid_value,"{""DOMAIN"": {""original"": ""TS"", ""injected"": ""INVALID""}}",,
INJ-SD1300-TS-072,SD1300,injected,TS,,34,set_invalid_value,"{""DOMAIN"": {""original"": ""TS"", ""injected"": ""INVALID""}}",,
INJ-SD1300-TS-073,SD1300,injected,TS,,11,set_invalid_value,"{""DOMAIN"": {""original"": ""TS"", ""injected"": ""INVALID""}}",,
INJ-SD1300-TS-074,SD1300,injected,TS,,87,set_invalid_value,"{""DOMAIN"": {""original"": ""TS"", ""injected"": ""INVALID""}}",,
INJ-SD1300-TS-075,SD1300,injected,TS,,40,set_invalid_value,"{""DOMAIN"": {""original"": ""TS"", ""injected"": ""INVALID""}}",,
INJ-SD1300-TS-076,SD1300,injected,TS,,79,set_invalid_value,"{""DOMAIN"": {""original"": ""TS"", ""injected"": ""INVALID""}}",,
INJ-SD1300-TS-077,SD1300,injected,TS,,62,set_invalid_value,"{""DOMAIN"": {""original"": ""TS"", ""injected"": ""INVALID""}}",,
INJ-SD1300-TS-078,SD1300,injected,TS,,69,set_invalid_value,"{""DOMAIN"": {""original"": ""TS"", ""injected"": ""INVALID""}}",,
INJ-SD1300-TS-079,SD1300,injected,TS,,25,set_invalid_value,"{""DOMAIN"": {""original"": ""TS"", ""injected"": ""INVALID""}}",,
INJ-SD1300-TS-080,SD1300,injected,TS,,65,set_invalid_value,"{""DOMAIN"": {""original"": ""TS"", ""injected"": ""INVALID""}}",,
INJ-SD1300-TS-081,SD1300,injected,TS,,76,set_invalid_value,"{""DOMAIN"": {""original"": ""TS"", ""injected"": ""INVALID""}}",,
INJ-SD1300-TS-082,SD1300,injected,TS,,38,set_invalid_value,"{""DOMAIN"": {""original"": ""TS"", ""injected"": ""INVALID""}}",,
INJ-SD1300-TS-083,SD1300,injected,TS,,0,set_invalid_value,"{""DOMAIN"": {""original"": ""TS"", ""injected"": ""INVALID""}}",,
INJ-SD1300-TS-084,SD1300,injected,TS,,42,set_invalid_value,"{""DOMAIN"": {""original"": ""TS"", ""injected"": ""INVALID""}}",,
INJ-SD1300-TS-085,SD1300,injected,TS,,82,set_invalid_value,"{""DOMAIN"": {""original"": ""TS"", ""injected"": ""INVALID""}}",,
INJ-SD1300-TS-086,SD1300,injected,TS,,86,set_invalid_value,"{""DOMAIN"": {""original"": ""TS"", ""injected"": ""INVALID""}}",,
INJ-SD1300-TS-087,SD1300,injected,TS,,56,set_invalid_value,"{""DOMAIN"": {""original"": ""TS"", ""injected"": ""INVALID""}}",,
INJ-SD1300-TS-088,SD1300,injected,TS,,37,set_invalid_value,"{""DOMAIN"": {""original"": ""TS"", ""injected"": ""INVALID""}}",,
INJ-SD1300-TS-089,SD1300,injected,TS,,74,set_invalid_value,"{""DOMAIN"": {""original"": ""TS"", ""injected"": ""INVALID""}}",,
INJ-SD1300-TS-090,SD1300,injected,TS,,85,set_invalid_value,"{""DOMAIN"": {""original"": ""TS"", ""injected"": ""INVALID""}}",,
INJ-SD1300-TS-091,SD1300,injected,TS,,20,set_invalid_value,"{""DOMAIN"": {""original"": ""TS"", ""injected"": ""INVALID""}}",,
INJ-SD1300-TS-092,SD1300,injected,TS,,61,set_invalid_value,"{""DOMAIN"": {""original"": ""TS"", ""injected"": ""INVALID""}}",,
INJ-SD1300-TS-093,SD1300,injected,TS,,26,set_invalid_value,"{""DOMAIN"": {""original"": ""TS"", ""injected"": ""INVALID""}}",,
INJ-SD1300-TS-094,SD1300,injected,TS,,33,set_invalid_value,"{""DOMAIN"": {""original"": ""TS"", ""injected"": ""INVALID""}}",,
INJ-SD1300-TS-095,SD1300,injected,TS,,30,set_invalid_value,"{""DOMAIN"": {""original"": ""TS"", ""injected"": ""INVALID""}}",,
INJ-SD1300-TS-096,SD1300,injected,TS,,14,set_invalid_value,"{""DOMAIN"": {""original"": ""TS"", ""injected"": ""INVALID""}}",,
INJ-SD1300-TV-097,SD1300,injected,TV,,67,set_invalid_value,"{""DOMAIN"": {""original"": ""TV"", ""injected"": ""INVALID""}}",,
INJ-SD1300-TV-098,SD1300,injected,TV,,22,set_invalid_value,"{""DOMAIN"": {""original"": ""TV"", ""injected"": ""INVALID""}}",,
INJ-SD1300-TV-099,SD1300,injected,TV,,25,set_invalid_value,"{""DOMAIN"": {""original"": ""TV"", ""injected"": ""INVALID""}}",,
INJ-SD1300-TV-100,SD1300,injected,TV,,27,set_invalid_value,"{""DOMAIN"": {""original"": ""TV"", ""injected"": ""INVALID""}}",,
INJ-SD1300-TV-101,SD1300,injected,TV,,37,set_invalid_value,"{""DOMAIN"": {""original"": ""TV"", ""injected"": ""INVALID""}}",,
INJ-SD1300-TV-102,SD1300,injected,TV,,33,set_invalid_value,"{""DOMAIN"": {""original"": ""TV"", ""injected"": ""INVALID""}}",,
INJ-SD1300-TV-103,SD1300,injected,TV,,11,set_invalid_value,"{""DOMAIN"": {""original"": ""TV"", ""injected"": ""INVALID""}}",,
INJ-SD1300-TV-104,SD1300,injected,TV,,19,set_invalid_value,"{""DOMAIN"": {""original"": ""TV"", ""injected"": ""INVALID""}}",,
INJ-SD1300-TV-105,SD1300,injected,TV,,48,set_invalid_value,"{""DOMAIN"": {""original"": ""TV"", ""injected"": ""INVALID""}}",,
INJ-SD1300-TV-106,SD1300,injected,TV,,55,set_invalid_value,"{""DOMAIN"": {""original"": ""TV"", ""injected"": ""INVALID""}}",,
INJ-SD1300-TV-107,SD1300,injected,TV,,49,set_invalid_value,"{""DOMAIN"": {""original"": ""TV"", ""injected"": ""INVALID""}}",,
INJ-SD1300-TV-108,SD1300,injected,TV,,53,set_invalid_value,"{""DOMAIN"": {""original"": ""TV"", ""injected"": ""INVALID""}}",,
INJ-SD1300-TV-109,SD1300,injected,TV,,23,set_invalid_value,"{""DOMAIN"": {""original"": ""TV"", ""injected"": ""INVALID""}}",,
INJ-SD1300-TV-110,SD1300,injected,TV,,41,set_invalid_value,"{""DOMAIN"": {""original"": ""TV"", ""injected"": ""INVALID""}}",,
INJ-SD1300-TV-111,SD1300,injected,TV,,32,set_invalid_value,"{""DOMAIN"": {""original"": ""TV"", ""injected"": ""INVALID""}}",,
INJ-SD1300-TV-112,SD1300,injected,TV,,70,set_invalid_value,"{""DOMAIN"": {""original"": ""TV"", ""injected"": ""INVALID""}}",,
INJ-SD1300-TV-113,SD1300,injected,TV,,21,set_invalid_value,"{""DOMAIN"": {""original"": ""TV"", ""injected"": ""INVALID""}}",,
INJ-SD1300-TV-114,SD1300,injected,TV,,36,set_invalid_value,"{""DOMAIN"": {""original"": ""TV"", ""injected"": ""INVALID""}}",,
INJ-SD1300-TV-115,SD1300,injected,TV,,4,set_invalid_value,"{""DOMAIN"": {""original"": ""TV"", ""injected"": ""INVALID""}}",,
INJ-SD1300-TV-116,SD1300,injected,TV,,40,set_invalid_value,"{""DOMAIN"": {""original"": ""TV"", ""injected"": ""INVALID""}}",,
INJ-SD1300-TV-117,SD1300,injected,TV,,31,set_invalid_value,"{""DOMAIN"": {""original"": ""TV"", ""injected"": ""INVALID""}}",,
INJ-SD1300-TV-118,SD1300,injected,TV,,30,set_invalid_value,"{""DOMAIN"": {""original"": ""TV"", ""injected"": ""INVALID""}}",,
INJ-SD1300-TV-119,SD1300,injected,TV,,35,set_invalid_value,"{""DOMAIN"": {""original"": ""TV"", ""injected"": ""INVALID""}}",,
INJ-SD1300-TV-120,SD1300,injected,TV,,54,set_invalid_value,"{""DOMAIN"": {""original"": ""TV"", ""injected"": ""INVALID""}}",,
INJ-SD1300-TV-121,SD1300,injected,TV,,65,set_invalid_value,"{""DOMAIN"": {""original"": ""TV"", ""injected"": ""INVALID""}}",,
INJ-SD1300-TV-122,SD1300,injected,TV,,12,set_invalid_value,"{""DOMAIN"": {""original"": ""TV"", ""injected"": ""INVALID""}}",,
INJ-SD1300-TV-123,SD1300,injected,TV,,58,set_invalid_value,"{""DOMAIN"": {""original"": ""TV"", ""injected"": ""INVALID""}}",,
INJ-SD1300-TV-124,SD1300,injected,TV,,59,set_invalid_value,"{""DOMAIN"": {""original"": ""TV"", ""injected"": ""INVALID""}}",,
INJ-SD1300-TV-125,SD1300,injected,TV,,39,set_invalid_value,"{""DOMAIN"": {""original"": ""TV"", ""injected"": ""INVALID""}}",,
INJ-SD1300-TV-126,SD1300,injected,TV,,29,set_invalid_value,"{""DOMAIN"": {""original"": ""TV"", ""injected"": ""INVALID""}}",,
INJ-SD1300-TV-127,SD1300,injected,TV,,76,set_invalid_value,"{""DOMAIN"": {""original"": ""TV"", ""injected"": ""INVALID""}}",,
INJ-SD1300-TV-128,SD1300,injected,TV,,5,set_invalid_value,"{""DOMAIN"": {""original"": ""TV"", ""injected"": ""INVALID""}}",,
INJ-SD1300-TV-129,SD1300,injected,TV,,34,set_invalid_value,"{""DOMAIN"": {""original"": ""TV"", ""injected"": ""INVALID""}}",,
INJ-SD1300-TV-130,SD1300,injected,TV,,77,set_invalid_value,"{""DOMAIN"": {""original"": ""TV"", ""injected"": ""INVALID""}}",,
INJ-SD1300-TV-131,SD1300,injected,TV,,13,set_invalid_value,"{""DOMAIN"": {""original"": ""TV"", ""injected"": ""INVALID""}}",,
INJ-SD1300-TV-132,SD1300,injected,TV,,64,set_invalid_value,"{""DOMAIN"": {""original"": ""TV"", ""injected"": ""INVALID""}}",,
INJ-SD1300-TV-133,SD1300,injected,TV,,7,set_invalid_value,"{""DOMAIN"": {""original"": ""TV"", ""injected"": ""INVALID""}}",,
INJ-SD1300-TV-134,SD1300,injected,TV,,20,set_invalid_value,"{""DOMAIN"": {""original"": ""TV"", ""injected"": ""INVALID""}}",,
INJ-SD1300-TV-135,SD1300,injected,TV,,68,set_invalid_value,"{""DOMAIN"": {""original"": ""TV"", ""injected"": ""INVALID""}}",,
INJ-SD1300-TV-136,SD1300,injected,TV,,44,set_invalid_value,"{""DOMAIN"": {""original"": ""TV"", ""injected"": ""INVALID""}}",,
INJ-SD1300-TV-137,SD1300,injected,TV,,47,set_invalid_value,"{""DOMAIN"": {""original"": ""TV"", ""injected"": ""INVALID""}}",,
INJ-SD1300-TV-138,SD1300,injected,TV,,15,set_invalid_value,"{""DOMAIN"": {""original"": ""TV"", ""injected"": ""INVALID""}}",,
INJ-SD1300-TV-139,SD1300,injected,TV,,57,set_invalid_value,"{""DOMAIN"": {""original"": ""TV"", ""injected"": ""INVALID""}}",,
INJ-SD1300-TV-140,SD1300,injected,TV,,73,set_invalid_value,"{""DOMAIN"": {""original"": ""TV"", ""injected"": ""INVALID""}}",,
INJ-SD1300-TV-141,SD1300,injected,TV,,10,set_invalid_value,"{""DOMAIN"": {""original"": ""TV"", ""injected"": ""INVALID""}}",,
INJ-SD1300-TV-142,SD1300,injected,TV,,8,set_invalid_value,"{""DOMAIN"": {""original"": ""TV"", ""injected"": ""INVALID""}}",,
INJ-SD1300-TV-143,SD1300,injected,TV,,14,set_invalid_value,"{""DOMAIN"": {""original"": ""TV"", ""injected"": ""INVALID""}}",,
INJ-SD1300-TV-144,SD1300,injected,TV,,0,set_invalid_value,"{""DOMAIN"": {""original"": ""TV"", ""injected"": ""INVALID""}}",,
INJ-SD1300-TV-145,SD1300,injected,TV,,17,set_invalid_value,"{""DOMAIN"": {""original"": ""TV"", ""injected"": ""INVALID""}}",,
INJ-SD1300-TV-146,SD1300,injected,TV,,42,set_invalid_value,"{""DOMAIN"": {""original"": ""TV"", ""injected"": ""INVALID""}}",,
INJ-SD0004-TS-001,SD0004,injected,TS,,66,set_invalid_value,"{""DOMAIN"": {""original"": ""TS"", ""injected"": ""aaa""}}",,
INJ-SD0004-TS-002,SD0004,injected,TS,,78,set_invalid_value,"{""DOMAIN"": {""original"": ""TS"", ""injected"": ""aaa""}}",,
INJ-SD0004-TS-003,SD0004,injected,TS,,3,set_invalid_value,"{""DOMAIN"": {""original"": ""TS"", ""injected"": ""aaa""}}",,
INJ-SD0004-TS-004,SD0004,injected,TS,,2,set_invalid_value,"{""DOMAIN"": {""original"": ""TS"", ""injected"": ""aaa""}}",,
INJ-SD0004-TS-005,SD0004,injected,TS,,31,set_invalid_value,"{""DOMAIN"": {""original"": ""TS"", ""injected"": ""aaa""}}",,
INJ-SD0004-TS-006,SD0004,injected,TS,,53,set_invalid_value,"{""DOMAIN"": {""original"": ""TS"", ""injected"": ""aaa""}}",,
INJ-SD0004-TS-007,SD0004,injected,TS,,45,set_invalid_value,"{""DOMAIN"": {""original"": ""TS"", ""injected"": ""aaa""}}",,
INJ-SD0004-TS-008,SD0004,injected,TS,,43,set_invalid_value,"{""DOMAIN"": {""original"": ""TS"", ""injected"": ""aaa""}}",,
INJ-SD0004-TS-009,SD0004,injected,TS,,24,set_invalid_value,"{""DOMAIN"": {""original"": ""TS"", ""injected"": ""aaa""}}",,
INJ-SD0004-TS-010,SD0004,injected,TS,,12,set_invalid_value,"{""DOMAIN"": {""original"": ""TS"", ""injected"": ""aaa""}}",,
INJ-SD0004-TS-011,SD0004,injected,TS,,21,set_invalid_value,"{""DOMAIN"": {""original"": ""TS"", ""injected"": ""aaa""}}",,
INJ-SD0004-TS-012,SD0004,injected,TS,,41,set_invalid_value,"{""DOMAIN"": {""original"": ""TS"", ""injected"": ""aaa""}}",,
INJ-SD0004-TS-013,SD0004,injected,TS,,71,set_invalid_value,"{""DOMAIN"": {""original"": ""TS"", ""injected"": ""aaa""}}",,
INJ-SD0004-TS-014,SD0004,injected,TS,,89,set_invalid_value,"{""DOMAIN"": {""original"": ""TS"", ""injected"": ""aaa""}}",,
INJ-SD0004-TS-015,SD0004,injected,TS,,16,set_invalid_value,"{""DOMAIN"": {""original"": ""TS"", ""injected"": ""aaa""}}",,
INJ-SD0004-TS-016,SD0004,injected,TS,,7,set_invalid_value,"{""DOMAIN"": {""original"": ""TS"", ""injected"": ""aaa""}}",,
INJ-SD0004-TS-017,SD0004,injected,TS,,73,set_invalid_value,"{""DOMAIN"": {""original"": ""TS"", ""injected"": ""aaa""}}",,
INJ-SD0004-TS-018,SD0004,injected,TS,,60,set_invalid_value,"{""DOMAIN"": {""original"": ""TS"", ""injected"": ""aaa""}}",,
INJ-SD0004-TS-019,SD0004,injected,TS,,36,set_invalid_value,"{""DOMAIN"": {""original"": ""TS"", ""injected"": ""aaa""}}",,
INJ-SD0004-TS-020,SD0004,injected,TS,,9,set_invalid_value,"{""DOMAIN"": {""original"": ""TS"", ""injected"": ""aaa""}}",,
INJ-SD0004-TS-021,SD0004,injected,TS,,22,set_invalid_value,"{""DOMAIN"": {""original"": ""TS"", ""injected"": ""aaa""}}",,
INJ-SD0004-TS-022,SD0004,injected,TS,,13,set_invalid_value,"{""DOMAIN"": {""original"": ""TS"", ""injected"": ""aaa""}}",,
INJ-SD0004-TS-023,SD0004,injected,TS,,83,set_invalid_value,"{""DOMAIN"": {""original"": ""TS"", ""injected"": ""aaa""}}",,
INJ-SD0004-TS-024,SD0004,injected,TS,,17,set_invalid_value,"{""DOMAIN"": {""original"": ""TS"", ""injected"": ""aaa""}}",,
INJ-SD0004-TS-025,SD0004,injected,TS,,54,set_invalid_value,"{""DOMAIN"": {""original"": ""TS"", ""injected"": ""aaa""}}",,
INJ-SD0004-TS-026,SD0004,injected,TS,,23,set_invalid_value,"{""DOMAIN"": {""original"": ""TS"", ""injected"": ""aaa""}}",,
INJ-SD0004-TS-027,SD0004,injected,TS,,28,set_invalid_value,"{""DOMAIN"": {""original"": ""TS"", ""injected"": ""aaa""}}",,
INJ-SD0004-TS-028,SD0004,injected,TS,,47,set_invalid_value,"{""DOMAIN"": {""original"": ""TS"", ""injected"": ""aaa""}}",,
INJ-SD0004-TV-029,SD0004,injected,TV,,1,set_invalid_value,"{""DOMAIN"": {""original"": ""TV"", ""injected"": ""aaa""}}",,
INJ-SD0004-TV-030,SD0004,injected,TV,,60,set_invalid_value,"{""DOMAIN"": {""original"": ""TV"", ""injected"": ""aaa""}}",,
INJ-SD0004-TV-031,SD0004,injected,TV,,18,set_invalid_value,"{""DOMAIN"": {""original"": ""TV"", ""injected"": ""aaa""}}",,
INJ-SD0004-TV-032,SD0004,injected,TV,,72,set_invalid_value,"{""DOMAIN"": {""original"": ""TV"", ""injected"": ""aaa""}}",,
INJ-SD0004-TV-033,SD0004,injected,TV,,56,set_invalid_value,"{""DOMAIN"": {""original"": ""TV"", ""injected"": ""aaa""}}",,
INJ-SD0004-TV-034,SD0004,injected,TV,,26,set_invalid_value,"{""DOMAIN"": {""original"": ""TV"", ""injected"": ""aaa""}}",,
INJ-SD0004-TV-035,SD0004,injected,TV,,24,set_invalid_value,"{""DOMAIN"": {""original"": ""TV"", ""injected"": ""aaa""}}",,
INJ-SD0004-TV-036,SD0004,injected,TV,,9,set_invalid_value,"{""DOMAIN"": {""original"": ""TV"", ""injected"": ""aaa""}}",,
INJ-SD0004-TV-037,SD0004,injected,TV,,46,set_invalid_value,"{""DOMAIN"": {""original"": ""TV"", ""injected"": ""aaa""}}",,
INJ-SD0004-TV-038,SD0004,injected,TV,,71,set_invalid_value,"{""DOMAIN"": {""original"": ""TV"", ""injected"": ""aaa""}}",,
INJ-SD0004-TV-039,SD0004,injected,TV,,51,set_invalid_value,"{""DOMAIN"": {""original"": ""TV"", ""injected"": ""aaa""}}",,
INJ-SD0004-TV-040,SD0004,injected,TV,,16,set_invalid_value,"{""DOMAIN"": {""original"": ""TV"", ""injected"": ""aaa""}}",,
INJ-SD0004-TV-041,SD0004,injected,TV,,52,set_invalid_value,"{""DOMAIN"": {""original"": ""TV"", ""injected"": ""aaa""}}",,
INJ-SD0004-TV-042,SD0004,injected,TV,,75,set_invalid_value,"{""DOMAIN"": {""original"": ""TV"", ""injected"": ""aaa""}}",,
INJ-SD0004-TV-043,SD0004,injected,TV,,62,set_invalid_value,"{""DOMAIN"": {""original"": ""TV"", ""injected"": ""aaa""}}",,
INJ-SD0004-TV-044,SD0004,injected,TV,,6,set_invalid_value,"{""DOMAIN"": {""original"": ""TV"", ""injected"": ""aaa""}}",,
INJ-SD0004-TV-045,SD0004,injected,TV,,63,set_invalid_value,"{""DOMAIN"": {""original"": ""TV"", ""injected"": ""aaa""}}",,
INJ-SD0004-TV-046,SD0004,injected,TV,,43,set_invalid_value,"{""DOMAIN"": {""original"": ""TV"", ""injected"": ""aaa""}}",,
INJ-SD0004-TV-047,SD0004,injected,TV,,74,set_invalid_value,"{""DOMAIN"": {""original"": ""TV"", ""injected"": ""aaa""}}",,
INJ-SD0004-TV-048,SD0004,injected,TV,,28,set_invalid_value,"{""DOMAIN"": {""original"": ""TV"", ""injected"": ""aaa""}}",,
