{
  "generated_at": "2026-07-07T06:01:56.521749",
  "seed": 42,
  "mode": "compound",
  "source_dir": "/tmp/sdtm_uploads_p31vlg7a",
  "profile": "all",
  "rate": 0.05,
  "density_cap": 5,
  "rules_available": 467,
  "rules_injectable": 9,
  "rules_skipped": 0,
  "rules_injected": 9,
  "total_mutations": 140,
  "skipped_rules": [],
  "errors": [
    {
      "error_id": "INJ-SD1215-TS-001",
      "rule_id": "SD1215",
      "rule_message": "Invalid TSVAL value for AGEMAX",
      "category": "TS01",
      "primitive": "set_invalid_value",
      "domain": "TS",
      "usubjid": null,
      "row_index": 3,
      "csv_line": 5,
      "seq_value": "1",
      "variables_modified": {
        "TSVAL": {
          "original": "P85Y",
          "injected": "INVALID"
        }
      },
      "re_derived": {},
      "expected_co_violations": [],
      "notes": null,
      "status": "injected",
      "failure_reason": null,
      "clean_row_index": 3
    },
    {
      "error_id": "INJ-SD1224-TS-001",
      "rule_id": "SD1224",
      "rule_message": "Multiple RANDOM records",
      "category": "TS02I1/TS02V1",
      "primitive": "duplicate_record",
      "domain": "TS",
      "usubjid": null,
      "row_index": 25,
      "csv_line": 27,
      "seq_value": "1",
      "variables_modified": {
        "__row__": {
          "original": "unique",
          "injected": "duplicated"
        }
      },
      "re_derived": {},
      "expected_co_violations": [],
      "notes": "duplicated key_fields=['TSPARMCD']",
      "status": "injected",
      "failure_reason": null,
      "clean_row_index": 25
    },
    {
      "error_id": "INJ-SD1311-TS-001",
      "rule_id": "SD1311",
      "rule_message": "TSVAL is missing for the INTTYPE Trial Summary Parameter, when STYPE parameter equals 'INTERVENTIONAL'",
      "category": "TS01",
      "primitive": "blank_field",
      "domain": "TS",
      "usubjid": null,
      "row_index": 12,
      "csv_line": 14,
      "seq_value": "1",
      "variables_modified": {
        "TSVAL": {
          "original": "DRUG",
          "injected": ""
        }
      },
      "re_derived": {},
      "expected_co_violations": [],
      "notes": null,
      "status": "injected",
      "failure_reason": null,
      "clean_row_index": 12
    },
    {
      "error_id": "INJ-SD2242-TS-001",
      "rule_id": "SD2242",
      "rule_message": "Invalid TSVCDREF value for TRT",
      "category": "TS01",
      "primitive": "set_invalid_value",
      "domain": "TS",
      "usubjid": null,
      "row_index": 43,
      "csv_line": 45,
      "seq_value": "1",
      "variables_modified": {
        "TSVCDREF": {
          "original": "UNII",
          "injected": "INVALID_REF"
        }
      },
      "re_derived": {},
      "expected_co_violations": [],
      "notes": null,
      "status": "injected",
      "failure_reason": null,
      "clean_row_index": 43
    },
    {
      "error_id": "INJ-SD2247-TS-001",
      "rule_id": "SD2247",
      "rule_message": "Invalid TSVAL value for SSTDTC",
      "category": "TS03",
      "primitive": "set_invalid_value",
      "domain": "TS",
      "usubjid": null,
      "row_index": 33,
      "csv_line": 35,
      "seq_value": "1",
      "variables_modified": {
        "TSVAL": {
          "original": "2024-01-15",
          "injected": "INVALID"
        }
      },
      "re_derived": {},
      "expected_co_violations": [],
      "notes": null,
      "status": "injected",
      "failure_reason": null,
      "clean_row_index": 33
    },
    {
      "error_id": "INJ-SD1120-SUPPAE-001",
      "rule_id": "SD1120",
      "rule_message": "Comments in SUPPQUAL domain",
      "category": "REL1",
      "primitive": "populate_forbidden",
      "domain": "SUPPAE",
      "usubjid": "P261-402-USL261-USA_SITE06-0017",
      "row_index": 92,
      "csv_line": 94,
      "seq_value": null,
      "variables_modified": {
        "QLABEL": {
          "original": "Treatment Emergent Flag",
          "injected": "Comments"
        }
      },
      "re_derived": {},
      "expected_co_violations": [],
      "notes": null,
      "status": "injected",
      "failure_reason": null,
      "clean_row_index": 92
    },
    {
      "error_id": "INJ-SD1120-SUPPAE-002",
      "rule_id": "SD1120",
      "rule_message": "Comments in SUPPQUAL domain",
      "category": "REL1",
      "primitive": "populate_forbidden",
      "domain": "SUPPAE",
      "usubjid": "P261-402-USL261-USA_SITE13-0002",
      "row_index": 138,
      "csv_line": 140,
      "seq_value": null,
      "variables_modified": {
        "QLABEL": {
          "original": "Treatment Emergent Flag",
          "injected": "Comments"
        }
      },
      "re_derived": {},
      "expected_co_violations": [],
      "notes": null,
      "status": "injected",
      "failure_reason": null,
      "clean_row_index": 138
    },
    {
      "error_id": "INJ-SD1120-SUPPAE-003",
      "rule_id": "SD1120",
      "rule_message": "Comments in SUPPQUAL domain",
      "category": "REL1",
      "primitive": "populate_forbidden",
      "domain": "SUPPAE",
      "usubjid": "P261-402-USL261-USA_SITE13-0002",
      "row_index": 162,
      "csv_line": 164,
      "seq_value": null,
      "variables_modified": {
        "QLABEL": {
          "original": "Treatment Emergent Flag",
          "injected": "Comments"
        }
      },
      "re_derived": {},
      "expected_co_violations": [],
      "notes": null,
      "status": "injected",
      "failure_reason": null,
      "clean_row_index": 162
    },
    {
      "error_id": "INJ-SD1120-SUPPAE-004",
      "rule_id": "SD1120",
      "rule_message": "Comments in SUPPQUAL domain",
      "category": "REL1",
      "primitive": "populate_forbidden",
      "domain": "SUPPAE",
      "usubjid": "P261-402-USL261-USA_SITE02-0020",
      "row_index": 43,
      "csv_line": 45,
      "seq_value": null,
      "variables_modified": {
        "QLABEL": {
          "original": "Treatment Emergent Flag",
          "injected": "Comments"
        }
      },
      "re_derived": {},
      "expected_co_violations": [],
      "notes": null,
      "status": "injected",
      "failure_reason": null,
      "clean_row_index": 43
    },
    {
      "error_id": "INJ-SD1120-SUPPAE-005",
      "rule_id": "SD1120",
      "rule_message": "Comments in SUPPQUAL domain",
      "category": "REL1",
      "primitive": "populate_forbidden",
      "domain": "SUPPAE",
      "usubjid": "P261-402-USL261-USA_SITE01-0007",
      "row_index": 18,
      "csv_line": 20,
      "seq_value": null,
      "variables_modified": {
        "QLABEL": {
          "original": "Treatment Emergent Flag",
          "injected": "Comments"
        }
      },
      "re_derived": {},
      "expected_co_violations": [],
      "notes": null,
      "status": "injected",
      "failure_reason": null,
      "clean_row_index": 18
    },
    {
      "error_id": "INJ-SD1120-SUPPAE-006",
      "rule_id": "SD1120",
      "rule_message": "Comments in SUPPQUAL domain",
      "category": "REL1",
      "primitive": "populate_forbidden",
      "domain": "SUPPAE",
      "usubjid": "P261-402-USL261-USA_SITE06-0017",
      "row_index": 93,
      "csv_line": 95,
      "seq_value": null,
      "variables_modified": {
        "QLABEL": {
          "original": "Treatment Emergent Flag",
          "injected": "Comments"
        }
      },
      "re_derived": {},
      "expected_co_violations": [],
      "notes": null,
      "status": "injected",
      "failure_reason": null,
      "clean_row_index": 93
    },
    {
      "error_id": "INJ-SD1120-SUPPAE-007",
      "rule_id": "SD1120",
      "rule_message": "Comments in SUPPQUAL domain",
      "category": "REL1",
      "primitive": "populate_forbidden",
      "domain": "SUPPAE",
      "usubjid": "P261-402-USL261-USA_SITE01-0007",
      "row_index": 20,
      "csv_line": 22,
      "seq_value": null,
      "variables_modified": {
        "QLABEL": {
          "original": "Treatment Emergent Flag",
          "injected": "Comments"
        }
      },
      "re_derived": {},
      "expected_co_violations": [],
      "notes": null,
      "status": "injected",
      "failure_reason": null,
      "clean_row_index": 20
    },
    {
      "error_id": "INJ-SD1120-SUPPAE-008",
      "rule_id": "SD1120",
      "rule_message": "Comments in SUPPQUAL domain",
      "category": "REL1",
      "primitive": "populate_forbidden",
      "domain": "SUPPAE",
      "usubjid": "P261-402-USL261-USA_SITE15-0003",
      "row_index": 183,
      "csv_line": 185,
      "seq_value": null,
      "variables_modified": {
        "QLABEL": {
          "original": "Treatment Emergent Flag",
          "injected": "Comments"
        }
      },
      "re_derived": {},
      "expected_co_violations": [],
      "notes": null,
      "status": "injected",
      "failure_reason": null,
      "clean_row_index": 183
    },
    {
      "error_id": "INJ-SD1120-SUPPAE-009",
      "rule_id": "SD1120",
      "rule_message": "Comments in SUPPQUAL domain",
      "category": "REL1",
      "primitive": "populate_forbidden",
      "domain": "SUPPAE",
      "usubjid": "P261-402-USL261-USA_SITE15-0003",
      "row_index": 214,
      "csv_line": 216,
      "seq_value": null,
      "variables_modified": {
        "QLABEL": {
          "original": "Treatment Emergent Flag",
          "injected": "Comments"
        }
      },
      "re_derived": {},
      "expected_co_violations": [],
      "notes": null,
      "status": "injected",
      "failure_reason": null,
      "clean_row_index": 214
    },
    {
      "error_id": "INJ-SD1120-SUPPAE-010",
      "rule_id": "SD1120",
      "rule_message": "Comments in SUPPQUAL domain",
      "category": "REL1",
      "primitive": "populate_forbidden",
      "domain": "SUPPAE",
      "usubjid": "P261-402-USL261-USA_SITE13-0002",
      "row_index": 150,
      "csv_line": 152,
      "seq_value": null,
      "variables_modified": {
        "QLABEL": {
          "original": "Treatment Emergent Flag",
          "injected": "Comments"
        }
      },
      "re_derived": {},
      "expected_co_violations": [],
      "notes": null,
      "status": "injected",
      "failure_reason": null,
      "clean_row_index": 150
    },
    {
      "error_id": "INJ-SD1120-SUPPAE-011",
      "rule_id": "SD1120",
      "rule_message": "Comments in SUPPQUAL domain",
      "category": "REL1",
      "primitive": "populate_forbidden",
      "domain": "SUPPAE",
      "usubjid": "P261-402-USL261-USA_SITE09-0008",
      "row_index": 115,
      "csv_line": 117,
      "seq_value": null,
      "variables_modified": {
        "QLABEL": {
          "original": "Treatment Emergent Flag",
          "injected": "Comments"
        }
      },
      "re_derived": {},
      "expected_co_violations": [],
      "notes": null,
      "status": "injected",
      "failure_reason": null,
      "clean_row_index": 115
    },
    {
      "error_id": "INJ-SD1251-CM-001",
      "rule_id": "SD1251",
      "rule_message": "--VAMTU is not null when --TRTV is null",
      "category": "INT1",
      "primitive": "set_invalid_value",
      "domain": "CM",
      "usubjid": "P261-402-USL261-USA_SITE09-0008",
      "row_index": 59,
      "csv_line": 61,
      "seq_value": "12",
      "variables_modified": {
        "CMVAMTU": {
          "original": "",
          "injected": "mL"
        }
      },
      "re_derived": {},
      "expected_co_violations": [],
      "notes": null,
      "status": "injected",
      "failure_reason": null,
      "clean_row_index": 59
    },
    {
      "error_id": "INJ-SD1251-CM-002",
      "rule_id": "SD1251",
      "rule_message": "--VAMTU is not null when --TRTV is null",
      "category": "INT1",
      "primitive": "set_invalid_value",
      "domain": "CM",
      "usubjid": "P261-402-USL261-USA_SITE06-0005",
      "row_index": 33,
      "csv_line": 35,
      "seq_value": "1",
      "variables_modified": {
        "CMVAMTU": {
          "original": "",
          "injected": "mL"
        }
      },
      "re_derived": {},
      "expected_co_violations": [],
      "notes": null,
      "status": "injected",
      "failure_reason": null,
      "clean_row_index": 33
    },
    {
      "error_id": "INJ-SD1251-CM-003",
      "rule_id": "SD1251",
      "rule_message": "--VAMTU is not null when --TRTV is null",
      "category": "INT1",
      "primitive": "set_invalid_value",
      "domain": "CM",
      "usubjid": "P261-402-USL261-USA_SITE02-0020",
      "row_index": 16,
      "csv_line": 18,
      "seq_value": "2",
      "variables_modified": {
        "CMVAMTU": {
          "original": "",
          "injected": "mL"
        }
      },
      "re_derived": {},
      "expected_co_violations": [],
      "notes": null,
      "status": "injected",
      "failure_reason": null,
      "clean_row_index": 16
    },
    {
      "error_id": "INJ-SD1251-CM-004",
      "rule_id": "SD1251",
      "rule_message": "--VAMTU is not null when --TRTV is null",
      "category": "INT1",
      "primitive": "set_invalid_value",
      "domain": "CM",
      "usubjid": "P261-402-USL261-USA_SITE14-0010",
      "row_index": 71,
      "csv_line": 73,
      "seq_value": "2",
      "variables_modified": {
        "CMVAMTU": {
          "original": "",
          "injected": "mL"
        }
      },
      "re_derived": {},
      "expected_co_violations": [],
      "notes": null,
      "status": "injected",
      "failure_reason": null,
      "clean_row_index": 71
    },
    {
      "error_id": "INJ-SD1251-CM-005",
      "rule_id": "SD1251",
      "rule_message": "--VAMTU is not null when --TRTV is null",
      "category": "INT1",
      "primitive": "set_invalid_value",
      "domain": "CM",
      "usubjid": "P261-402-USL261-USA_SITE15-0003",
      "row_index": 84,
      "csv_line": 86,
      "seq_value": "7",
      "variables_modified": {
        "CMVAMTU": {
          "original": "",
          "injected": "mL"
        }
      },
      "re_derived": {},
      "expected_co_violations": [],
      "notes": null,
      "status": "injected",
      "failure_reason": null,
      "clean_row_index": 84
    },
    {
      "error_id": "INJ-SD1251-EC-006",
      "rule_id": "SD1251",
      "rule_message": "--VAMTU is not null when --TRTV is null",
      "category": "INT1",
      "primitive": "set_invalid_value",
      "domain": "EC",
      "usubjid": "P261-402-USL261-USA_SITE14-0016",
      "row_index": 126,
      "csv_line": 128,
      "seq_value": "7",
      "variables_modified": {
        "ECVAMTU": {
          "original": "",
          "injected": "mL"
        }
      },
      "re_derived": {},
      "expected_co_violations": [],
      "notes": null,
      "status": "injected",
      "failure_reason": null,
      "clean_row_index": 126
    },
    {
      "error_id": "INJ-SD1251-EC-007",
      "rule_id": "SD1251",
      "rule_message": "--VAMTU is not null when --TRTV is null",
      "category": "INT1",
      "primitive": "set_invalid_value",
      "domain": "EC",
      "usubjid": "P261-402-USL261-USA_SITE14-0016",
      "row_index": 123,
      "csv_line": 125,
      "seq_value": "4",
      "variables_modified": {
        "ECVAMTU": {
          "original": "",
          "injected": "mL"
        }
      },
      "re_derived": {},
      "expected_co_violations": [],
      "notes": null,
      "status": "injected",
      "failure_reason": null,
      "clean_row_index": 123
    },
    {
      "error_id": "INJ-SD1251-EC-008",
      "rule_id": "SD1251",
      "rule_message": "--VAMTU is not null when --TRTV is null",
      "category": "INT1",
      "primitive": "set_invalid_value",
      "domain": "EC",
      "usubjid": "P261-402-USL261-USA_SITE01-0019",
      "row_index": 12,
      "csv_line": 14,
      "seq_value": "5",
      "variables_modified": {
        "ECVAMTU": {
          "original": "",
          "injected": "mL"
        }
      },
      "re_derived": {},
      "expected_co_violations": [],
      "notes": null,
      "status": "injected",
      "failure_reason": null,
      "clean_row_index": 12
    },
    {
      "error_id": "INJ-SD1251-EC-009",
      "rule_id": "SD1251",
      "rule_message": "--VAMTU is not null when --TRTV is null",
      "category": "INT1",
      "primitive": "set_invalid_value",
      "domain": "EC",
      "usubjid": "P261-402-USL261-USA_SITE06-0005",
      "row_index": 62,
      "csv_line": 64,
      "seq_value": "7",
      "variables_modified": {
        "ECVAMTU": {
          "original": "",
          "injected": "mL"
        }
      },
      "re_derived": {},
      "expected_co_violations": [],
      "notes": null,
      "status": "injected",
      "failure_reason": null,
      "clean_row_index": 62
    },
    {
      "error_id": "INJ-SD1251-EC-010",
      "rule_id": "SD1251",
      "rule_message": "--VAMTU is not null when --TRTV is null",
      "category": "INT1",
      "primitive": "set_invalid_value",
      "domain": "EC",
      "usubjid": "P261-402-USL261-USA_SITE07-0012",
      "row_index": 78,
      "csv_line": 80,
      "seq_value": "7",
      "variables_modified": {
        "ECVAMTU": {
          "original": "",
          "injected": "mL"
        }
      },
      "re_derived": {},
      "expected_co_violations": [],
      "notes": null,
      "status": "injected",
      "failure_reason": null,
      "clean_row_index": 78
    },
    {
      "error_id": "INJ-SD1251-EC-011",
      "rule_id": "SD1251",
      "rule_message": "--VAMTU is not null when --TRTV is null",
      "category": "INT1",
      "primitive": "set_invalid_value",
      "domain": "EC",
      "usubjid": "P261-402-USL261-USA_SITE02-0020",
      "row_index": 31,
      "csv_line": 33,
      "seq_value": "8",
      "variables_modified": {
        "ECVAMTU": {
          "original": "",
          "injected": "mL"
        }
      },
      "re_derived": {},
      "expected_co_violations": [],
      "notes": null,
      "status": "injected",
      "failure_reason": null,
      "clean_row_index": 31
    },
    {
      "error_id": "INJ-SD1251-EC-012",
      "rule_id": "SD1251",
      "rule_message": "--VAMTU is not null when --TRTV is null",
      "category": "INT1",
      "primitive": "set_invalid_value",
      "domain": "EC",
      "usubjid": "P261-402-USL261-USA_SITE01-0019",
      "row_index": 9,
      "csv_line": 11,
      "seq_value": "2",
      "variables_modified": {
        "ECVAMTU": {
          "original": "",
          "injected": "mL"
        }
      },
      "re_derived": {},
      "expected_co_violations": [],
      "notes": null,
      "status": "injected",
      "failure_reason": null,
      "clean_row_index": 9
    },
    {
      "error_id": "INJ-SD1251-EX-013",
      "rule_id": "SD1251",
      "rule_message": "--VAMTU is not null when --TRTV is null",
      "category": "INT1",
      "primitive": "set_invalid_value",
      "domain": "EX",
      "usubjid": "P261-402-USL261-USA_SITE15-0004",
      "row_index": 118,
      "csv_line": 120,
      "seq_value": "2",
      "variables_modified": {
        "EXVAMTU": {
          "original": "",
          "injected": "mL"
        }
      },
      "re_derived": {},
      "expected_co_violations": [],
      "notes": null,
      "status": "injected",
      "failure_reason": null,
      "clean_row_index": 118
    },
    {
      "error_id": "INJ-SD1251-EX-014",
      "rule_id": "SD1251",
      "rule_message": "--VAMTU is not null when --TRTV is null",
      "category": "INT1",
      "primitive": "set_invalid_value",
      "domain": "EX",
      "usubjid": "P261-402-USL261-USA_SITE13-0002",
      "row_index": 84,
      "csv_line": 86,
      "seq_value": "1",
      "variables_modified": {
        "EXVAMTU": {
          "original": "",
          "injected": "mL"
        }
      },
      "re_derived": {},
      "expected_co_violations": [],
      "notes": null,
      "status": "injected",
      "failure_reason": null,
      "clean_row_index": 84
    },
    {
      "error_id": "INJ-SD1251-EX-015",
      "rule_id": "SD1251",
      "rule_message": "--VAMTU is not null when --TRTV is null",
      "category": "INT1",
      "primitive": "set_invalid_value",
      "domain": "EX",
      "usubjid": "P261-402-USL261-USA_SITE01-0019",
      "row_index": 8,
      "csv_line": 10,
      "seq_value": "1",
      "variables_modified": {
        "EXVAMTU": {
          "original": "",
          "injected": "mL"
        }
      },
      "re_derived": {},
      "expected_co_violations": [],
      "notes": null,
      "status": "injected",
      "failure_reason": null,
      "clean_row_index": 8
    },
    {
      "error_id": "INJ-SD1251-EX-016",
      "rule_id": "SD1251",
      "rule_message": "--VAMTU is not null when --TRTV is null",
      "category": "INT1",
      "primitive": "set_invalid_value",
      "domain": "EX",
      "usubjid": "P261-402-USL261-USA_SITE03-0018",
      "row_index": 42,
      "csv_line": 44,
      "seq_value": "6",
      "variables_modified": {
        "EXVAMTU": {
          "original": "",
          "injected": "mL"
        }
      },
      "re_derived": {},
      "expected_co_violations": [],
      "notes": null,
      "status": "injected",
      "failure_reason": null,
      "clean_row_index": 42
    },
    {
      "error_id": "INJ-SD1251-EX-017",
      "rule_id": "SD1251",
      "rule_message": "--VAMTU is not null when --TRTV is null",
      "category": "INT1",
      "primitive": "set_invalid_value",
      "domain": "EX",
      "usubjid": "P261-402-USL261-USA_SITE06-0005",
      "row_index": 54,
      "csv_line": 56,
      "seq_value": "3",
      "variables_modified": {
        "EXVAMTU": {
          "original": "",
          "injected": "mL"
        }
      },
      "re_derived": {},
      "expected_co_violations": [],
      "notes": null,
      "status": "injected",
      "failure_reason": null,
      "clean_row_index": 54
    },
    {
      "error_id": "INJ-SD1251-EX-018",
      "rule_id": "SD1251",
      "rule_message": "--VAMTU is not null when --TRTV is null",
      "category": "INT1",
      "primitive": "set_invalid_value",
      "domain": "EX",
      "usubjid": "P261-402-USL261-USA_SITE15-0003",
      "row_index": 110,
      "csv_line": 112,
      "seq_value": "1",
      "variables_modified": {
        "EXVAMTU": {
          "original": "",
          "injected": "mL"
        }
      },
      "re_derived": {},
      "expected_co_violations": [],
      "notes": null,
      "status": "injected",
      "failure_reason": null,
      "clean_row_index": 110
    },
    {
      "error_id": "INJ-SD1251-SU-019",
      "rule_id": "SD1251",
      "rule_message": "--VAMTU is not null when --TRTV is null",
      "category": "INT1",
      "primitive": "set_invalid_value",
      "domain": "SU",
      "usubjid": "P261-402-USL261-USA_SITE07-0012",
      "row_index": 29,
      "csv_line": 31,
      "seq_value": "3",
      "variables_modified": {
        "SUVAMTU": {
          "original": "",
          "injected": "mL"
        }
      },
      "re_derived": {},
      "expected_co_violations": [],
      "notes": null,
      "status": "injected",
      "failure_reason": null,
      "clean_row_index": 29
    },
    {
      "error_id": "INJ-SD1251-SU-020",
      "rule_id": "SD1251",
      "rule_message": "--VAMTU is not null when --TRTV is null",
      "category": "INT1",
      "primitive": "set_invalid_value",
      "domain": "SU",
      "usubjid": "P261-402-USL261-USA_SITE01-0007",
      "row_index": 2,
      "csv_line": 4,
      "seq_value": "3",
      "variables_modified": {
        "SUVAMTU": {
          "original": "",
          "injected": "mL"
        }
      },
      "re_derived": {},
      "expected_co_violations": [],
      "notes": null,
      "status": "injected",
      "failure_reason": null,
      "clean_row_index": 2
    },
    {
      "error_id": "INJ-SD1251-SU-021",
      "rule_id": "SD1251",
      "rule_message": "--VAMTU is not null when --TRTV is null",
      "category": "INT1",
      "primitive": "set_invalid_value",
      "domain": "SU",
      "usubjid": "P261-402-USL261-USA_SITE06-0017",
      "row_index": 25,
      "csv_line": 27,
      "seq_value": "2",
      "variables_modified": {
        "SUVAMTU": {
          "original": "",
          "injected": "mL"
        }
      },
      "re_derived": {},
      "expected_co_violations": [],
      "notes": null,
      "status": "injected",
      "failure_reason": null,
      "clean_row_index": 25
    },
    {
      "error_id": "INJ-CT2001-AE-001",
      "rule_id": "CT2001",
      "rule_message": "Variable value not found in non-extensible codelist",
      "category": "ALL1",
      "primitive": "invalid_codelist",
      "domain": "AE",
      "usubjid": "P261-402-USL261-USA_SITE14-0010",
      "row_index": 166,
      "csv_line": 168,
      "seq_value": "2",
      "variables_modified": {
        "AESEV": {
          "original": "MODERATE",
          "injected": "ZZZ_INVALID"
        }
      },
      "re_derived": {},
      "expected_co_violations": [],
      "notes": null,
      "status": "injected",
      "failure_reason": null,
      "clean_row_index": 166
    },
    {
      "error_id": "INJ-CT2001-AE-002",
      "rule_id": "CT2001",
      "rule_message": "Variable value not found in non-extensible codelist",
      "category": "ALL1",
      "primitive": "invalid_codelist",
      "domain": "AE",
      "usubjid": "P261-402-USL261-USA_SITE14-0010",
      "row_index": 175,
      "csv_line": 177,
      "seq_value": "11",
      "variables_modified": {
        "AESEV": {
          "original": "MODERATE",
          "injected": "ZZZ_INVALID"
        }
      },
      "re_derived": {},
      "expected_co_violations": [],
      "notes": null,
      "status": "injected",
      "failure_reason": null,
      "clean_row_index": 175
    },
    {
      "error_id": "INJ-CT2001-AE-003",
      "rule_id": "CT2001",
      "rule_message": "Variable value not found in non-extensible codelist",
      "category": "ALL1",
      "primitive": "invalid_codelist",
      "domain": "AE",
      "usubjid": "P261-402-USL261-USA_SITE01-0007",
      "row_index": 29,
      "csv_line": 31,
      "seq_value": "30",
      "variables_modified": {
        "AESEV": {
          "original": "MODERATE",
          "injected": "ZZZ_INVALID"
        }
      },
      "re_derived": {},
      "expected_co_violations": [],
      "notes": null,
      "status": "injected",
      "failure_reason": null,
      "clean_row_index": 29
    },
    {
      "error_id": "INJ-CT2001-AE-004",
      "rule_id": "CT2001",
      "rule_message": "Variable value not found in non-extensible codelist",
      "category": "ALL1",
      "primitive": "invalid_codelist",
      "domain": "AE",
      "usubjid": "P261-402-USL261-USA_SITE15-0003",
      "row_index": 197,
      "csv_line": 199,
      "seq_value": "18",
      "variables_modified": {
        "AESEV": {
          "original": "MODERATE",
          "injected": "ZZZ_INVALID"
        }
      },
      "re_derived": {},
      "expected_co_violations": [],
      "notes": null,
      "status": "injected",
      "failure_reason": null,
      "clean_row_index": 197
    },
    {
      "error_id": "INJ-CT2001-AE-005",
      "rule_id": "CT2001",
      "rule_message": "Variable value not found in non-extensible codelist",
      "category": "ALL1",
      "primitive": "invalid_codelist",
      "domain": "AE",
      "usubjid": "P261-402-USL261-USA_SITE06-0005",
      "row_index": 87,
      "csv_line": 89,
      "seq_value": "17",
      "variables_modified": {
        "AESEV": {
          "original": "MODERATE",
          "injected": "ZZZ_INVALID"
        }
      },
      "re_derived": {},
      "expected_co_violations": [],
      "notes": null,
      "status": "injected",
      "failure_reason": null,
      "clean_row_index": 87
    },
    {
      "error_id": "INJ-CT2001-AE-006",
      "rule_id": "CT2001",
      "rule_message": "Variable value not found in non-extensible codelist",
      "category": "ALL1",
      "primitive": "invalid_codelist",
      "domain": "AE",
      "usubjid": "P261-402-USL261-USA_SITE15-0003",
      "row_index": 211,
      "csv_line": 213,
      "seq_value": "32",
      "variables_modified": {
        "AESEV": {
          "original": "SEVERE",
          "injected": "ZZZ_INVALID"
        }
      },
      "re_derived": {},
      "expected_co_violations": [],
      "notes": null,
      "status": "injected",
      "failure_reason": null,
      "clean_row_index": 211
    },
    {
      "error_id": "INJ-CT2001-AE-007",
      "rule_id": "CT2001",
      "rule_message": "Variable value not found in non-extensible codelist",
      "category": "ALL1",
      "primitive": "invalid_codelist",
      "domain": "AE",
      "usubjid": "P261-402-USL261-USA_SITE01-0007",
      "row_index": 19,
      "csv_line": 21,
      "seq_value": "20",
      "variables_modified": {
        "AESEV": {
          "original": "MODERATE",
          "injected": "ZZZ_INVALID"
        }
      },
      "re_derived": {},
      "expected_co_violations": [],
      "notes": null,
      "status": "injected",
      "failure_reason": null,
      "clean_row_index": 19
    },
    {
      "error_id": "INJ-CT2001-AE-008",
      "rule_id": "CT2001",
      "rule_message": "Variable value not found in non-extensible codelist",
      "category": "ALL1",
      "primitive": "invalid_codelist",
      "domain": "AE",
      "usubjid": "P261-402-USL261-USA_SITE01-0007",
      "row_index": 1,
      "csv_line": 3,
      "seq_value": "2",
      "variables_modified": {
        "AESEV": {
          "original": "MODERATE",
          "injected": "ZZZ_INVALID"
        }
      },
      "re_derived": {},
      "expected_co_violations": [],
      "notes": null,
      "status": "injected",
      "failure_reason": null,
      "clean_row_index": 1
    },
    {
      "error_id": "INJ-CT2001-AE-009",
      "rule_id": "CT2001",
      "rule_message": "Variable value not found in non-extensible codelist",
      "category": "ALL1",
      "primitive": "invalid_codelist",
      "domain": "AE",
      "usubjid": "P261-402-USL261-USA_SITE09-0008",
      "row_index": 127,
      "csv_line": 129,
      "seq_value": "28",
      "variables_modified": {
        "AESEV": {
          "original": "SEVERE",
          "injected": "ZZZ_INVALID"
        }
      },
      "re_derived": {},
      "expected_co_violations": [],
      "notes": null,
      "status": "injected",
      "failure_reason": null,
      "clean_row_index": 127
    },
    {
      "error_id": "INJ-CT2001-AE-010",
      "rule_id": "CT2001",
      "rule_message": "Variable value not found in non-extensible codelist",
      "category": "ALL1",
      "primitive": "invalid_codelist",
      "domain": "AE",
      "usubjid": "P261-402-USL261-USA_SITE02-0015",
      "row_index": 34,
      "csv_line": 36,
      "seq_value": "2",
      "variables_modified": {
        "AESEV": {
          "original": "MODERATE",
          "injected": "ZZZ_INVALID"
        }
      },
      "re_derived": {},
      "expected_co_violations": [],
      "notes": null,
      "status": "injected",
      "failure_reason": null,
      "clean_row_index": 34
    },
    {
      "error_id": "INJ-CT2001-AE-011",
      "rule_id": "CT2001",
      "rule_message": "Variable value not found in non-extensible codelist",
      "category": "ALL1",
      "primitive": "invalid_codelist",
      "domain": "AE",
      "usubjid": "P261-402-USL261-USA_SITE01-0007",
      "row_index": 13,
      "csv_line": 15,
      "seq_value": "14",
      "variables_modified": {
        "AESEV": {
          "original": "MODERATE",
          "injected": "ZZZ_INVALID"
        }
      },
      "re_derived": {},
      "expected_co_violations": [],
      "notes": null,
      "status": "injected",
      "failure_reason": null,
      "clean_row_index": 13
    },
    {
      "error_id": "INJ-CT2001-AE-012",
      "rule_id": "CT2001",
      "rule_message": "Variable value not found in non-extensible codelist",
      "category": "ALL1",
      "primitive": "invalid_codelist",
      "domain": "AE",
      "usubjid": "P261-402-USL261-USA_SITE14-0010",
      "row_index": 169,
      "csv_line": 171,
      "seq_value": "5",
      "variables_modified": {
        "AESEV": {
          "original": "MILD",
          "injected": "ZZZ_INVALID"
        }
      },
      "re_derived": {},
      "expected_co_violations": [],
      "notes": null,
      "status": "injected",
      "failure_reason": null,
      "clean_row_index": 169
    },
    {
      "error_id": "INJ-CT2001-AE-013",
      "rule_id": "CT2001",
      "rule_message": "Variable value not found in non-extensible codelist",
      "category": "ALL1",
      "primitive": "invalid_codelist",
      "domain": "AE",
      "usubjid": "P261-402-USL261-USA_SITE15-0003",
      "row_index": 214,
      "csv_line": 216,
      "seq_value": "35",
      "variables_modified": {
        "AESEV": {
          "original": "SEVERE",
          "injected": "ZZZ_INVALID"
        }
      },
      "re_derived": {},
      "expected_co_violations": [],
      "notes": null,
      "status": "injected",
      "failure_reason": null,
      "clean_row_index": 214
    },
    {
      "error_id": "INJ-CT2001-AE-014",
      "rule_id": "CT2001",
      "rule_message": "Variable value not found in non-extensible codelist",
      "category": "ALL1",
      "primitive": "invalid_codelist",
      "domain": "AE",
      "usubjid": "P261-402-USL261-USA_SITE13-0002",
      "row_index": 144,
      "csv_line": 146,
      "seq_value": "11",
      "variables_modified": {
        "AESEV": {
          "original": "MILD",
          "injected": "ZZZ_INVALID"
        }
      },
      "re_derived": {},
      "expected_co_violations": [],
      "notes": null,
      "status": "injected",
      "failure_reason": null,
      "clean_row_index": 144
    },
    {
      "error_id": "INJ-CT2001-AE-015",
      "rule_id": "CT2001",
      "rule_message": "Variable value not found in non-extensible codelist",
      "category": "ALL1",
      "primitive": "invalid_codelist",
      "domain": "AE",
      "usubjid": "P261-402-USL261-USA_SITE15-0003",
      "row_index": 216,
      "csv_line": 218,
      "seq_value": "37",
      "variables_modified": {
        "AESEV": {
          "original": "SEVERE",
          "injected": "ZZZ_INVALID"
        }
      },
      "re_derived": {},
      "expected_co_violations": [],
      "notes": null,
      "status": "injected",
      "failure_reason": null,
      "clean_row_index": 216
    },
    {
      "error_id": "INJ-CT2001-AE-016",
      "rule_id": "CT2001",
      "rule_message": "Variable value not found in non-extensible codelist",
      "category": "ALL1",
      "primitive": "invalid_codelist",
      "domain": "AE",
      "usubjid": "P261-402-USL261-USA_SITE03-0006",
      "row_index": 57,
      "csv_line": 59,
      "seq_value": "14",
      "variables_modified": {
        "AESEV": {
          "original": "MILD",
          "injected": "ZZZ_INVALID"
        }
      },
      "re_derived": {},
      "expected_co_violations": [],
      "notes": null,
      "status": "injected",
      "failure_reason": null,
      "clean_row_index": 57
    },
    {
      "error_id": "INJ-CT2001-AE-017",
      "rule_id": "CT2001",
      "rule_message": "Variable value not found in non-extensible codelist",
      "category": "ALL1",
      "primitive": "invalid_codelist",
      "domain": "AE",
      "usubjid": "P261-402-USL261-USA_SITE12-0013",
      "row_index": 133,
      "csv_line": 135,
      "seq_value": "1",
      "variables_modified": {
        "AESEV": {
          "original": "SEVERE",
          "injected": "ZZZ_INVALID"
        }
      },
      "re_derived": {},
      "expected_co_violations": [],
      "notes": null,
      "status": "injected",
      "failure_reason": null,
      "clean_row_index": 133
    },
    {
      "error_id": "INJ-CT2001-AE-018",
      "rule_id": "CT2001",
      "rule_message": "Variable value not found in non-extensible codelist",
      "category": "ALL1",
      "primitive": "invalid_codelist",
      "domain": "AE",
      "usubjid": "P261-402-USL261-USA_SITE03-0006",
      "row_index": 63,
      "csv_line": 65,
      "seq_value": "20",
      "variables_modified": {
        "AESEV": {
          "original": "MILD",
          "injected": "ZZZ_INVALID"
        }
      },
      "re_derived": {},
      "expected_co_violations": [],
      "notes": null,
      "status": "injected",
      "failure_reason": null,
      "clean_row_index": 63
    },
    {
      "error_id": "INJ-CT2001-AE-019",
      "rule_id": "CT2001",
      "rule_message": "Variable value not found in non-extensible codelist",
      "category": "ALL1",
      "primitive": "invalid_codelist",
      "domain": "AE",
      "usubjid": "P261-402-USL261-USA_SITE02-0020",
      "row_index": 42,
      "csv_line": 44,
      "seq_value": "4",
      "variables_modified": {
        "AESEV": {
          "original": "MILD",
          "injected": "ZZZ_INVALID"
        }
      },
      "re_derived": {},
      "expected_co_violations": [],
      "notes": null,
      "status": "injected",
      "failure_reason": null,
      "clean_row_index": 42
    },
    {
      "error_id": "INJ-CT2001-AE-020",
      "rule_id": "CT2001",
      "rule_message": "Variable value not found in non-extensible codelist",
      "category": "ALL1",
      "primitive": "invalid_codelist",
      "domain": "AE",
      "usubjid": "P261-402-USL261-USA_SITE03-0006",
      "row_index": 65,
      "csv_line": 67,
      "seq_value": "22",
      "variables_modified": {
        "AESEV": {
          "original": "MODERATE",
          "injected": "ZZZ_INVALID"
        }
      },
      "re_derived": {},
      "expected_co_violations": [],
      "notes": null,
      "status": "injected",
      "failure_reason": null,
      "clean_row_index": 65
    },
    {
      "error_id": "INJ-CT2001-AE-021",
      "rule_id": "CT2001",
      "rule_message": "Variable value not found in non-extensible codelist",
      "category": "ALL1",
      "primitive": "invalid_codelist",
      "domain": "AE",
      "usubjid": "P261-402-USL261-USA_SITE01-0007",
      "row_index": 31,
      "csv_line": 33,
      "seq_value": "32",
      "variables_modified": {
        "AESEV": {
          "original": "MODERATE",
          "injected": "ZZZ_INVALID"
        }
      },
      "re_derived": {},
      "expected_co_violations": [],
      "notes": null,
      "status": "injected",
      "failure_reason": null,
      "clean_row_index": 31
    },
    {
      "error_id": "INJ-CT2001-AE-022",
      "rule_id": "CT2001",
      "rule_message": "Variable value not found in non-extensible codelist",
      "category": "ALL1",
      "primitive": "invalid_codelist",
      "domain": "AE",
      "usubjid": "P261-402-USL261-USA_SITE09-0008",
      "row_index": 116,
      "csv_line": 118,
      "seq_value": "17",
      "variables_modified": {
        "AESEV": {
          "original": "SEVERE",
          "injected": "ZZZ_INVALID"
        }
      },
      "re_derived": {},
      "expected_co_violations": [],
      "notes": null,
      "status": "injected",
      "failure_reason": null,
      "clean_row_index": 116
    },
    {
      "error_id": "INJ-CT2001-AE-023",
      "rule_id": "CT2001",
      "rule_message": "Variable value not found in non-extensible codelist",
      "category": "ALL1",
      "primitive": "invalid_codelist",
      "domain": "AE",
      "usubjid": "P261-402-USL261-USA_SITE15-0003",
      "row_index": 217,
      "csv_line": 219,
      "seq_value": "38",
      "variables_modified": {
        "AESEV": {
          "original": "MODERATE",
          "injected": "ZZZ_INVALID"
        }
      },
      "re_derived": {},
      "expected_co_violations": [],
      "notes": null,
      "status": "injected",
      "failure_reason": null,
      "clean_row_index": 217
    },
    {
      "error_id": "INJ-CT2001-AE-024",
      "rule_id": "CT2001",
      "rule_message": "Variable value not found in non-extensible codelist",
      "category": "ALL1",
      "primitive": "invalid_codelist",
      "domain": "AE",
      "usubjid": "P261-402-USL261-USA_SITE13-0002",
      "row_index": 160,
      "csv_line": 162,
      "seq_value": "27",
      "variables_modified": {
        "AESEV": {
          "original": "MILD",
          "injected": "ZZZ_INVALID"
        }
      },
      "re_derived": {},
      "expected_co_violations": [],
      "notes": null,
      "status": "injected",
      "failure_reason": null,
      "clean_row_index": 160
    },
    {
      "error_id": "INJ-CT2001-AE-025",
      "rule_id": "CT2001",
      "rule_message": "Variable value not found in non-extensible codelist",
      "category": "ALL1",
      "primitive": "invalid_codelist",
      "domain": "AE",
      "usubjid": "P261-402-USL261-USA_SITE06-0005",
      "row_index": 79,
      "csv_line": 81,
      "seq_value": "9",
      "variables_modified": {
        "AESEV": {
          "original": "MILD",
          "injected": "ZZZ_INVALID"
        }
      },
      "re_derived": {},
      "expected_co_violations": [],
      "notes": null,
      "status": "injected",
      "failure_reason": null,
      "clean_row_index": 79
    },
    {
      "error_id": "INJ-CT2001-AE-026",
      "rule_id": "CT2001",
      "rule_message": "Variable value not found in non-extensible codelist",
      "category": "ALL1",
      "primitive": "invalid_codelist",
      "domain": "AE",
      "usubjid": "P261-402-USL261-USA_SITE01-0007",
      "row_index": 23,
      "csv_line": 25,
      "seq_value": "24",
      "variables_modified": {
        "AESEV": {
          "original": "MILD",
          "injected": "ZZZ_INVALID"
        }
      },
      "re_derived": {},
      "expected_co_violations": [],
      "notes": null,
      "status": "injected",
      "failure_reason": null,
      "clean_row_index": 23
    },
    {
      "error_id": "INJ-CT2001-AE-027",
      "rule_id": "CT2001",
      "rule_message": "Variable value not found in non-extensible codelist",
      "category": "ALL1",
      "primitive": "invalid_codelist",
      "domain": "AE",
      "usubjid": "P261-402-USL261-USA_SITE13-0002",
      "row_index": 162,
      "csv_line": 164,
      "seq_value": "29",
      "variables_modified": {
        "AESEV": {
          "original": "MILD",
          "injected": "ZZZ_INVALID"
        }
      },
      "re_derived": {},
      "expected_co_violations": [],
      "notes": null,
      "status": "injected",
      "failure_reason": null,
      "clean_row_index": 162
    },
    {
      "error_id": "INJ-CT2001-AE-028",
      "rule_id": "CT2001",
      "rule_message": "Variable value not found in non-extensible codelist",
      "category": "ALL1",
      "primitive": "invalid_codelist",
      "domain": "AE",
      "usubjid": "P261-402-USL261-USA_SITE09-0008",
      "row_index": 126,
      "csv_line": 128,
      "seq_value": "27",
      "variables_modified": {
        "AESEV": {
          "original": "MILD",
          "injected": "ZZZ_INVALID"
        }
      },
      "re_derived": {},
      "expected_co_violations": [],
      "notes": null,
      "status": "injected",
      "failure_reason": null,
      "clean_row_index": 126
    },
    {
      "error_id": "INJ-CT2001-AE-029",
      "rule_id": "CT2001",
      "rule_message": "Variable value not found in non-extensible codelist",
      "category": "ALL1",
      "primitive": "invalid_codelist",
      "domain": "AE",
      "usubjid": "P261-402-USL261-USA_SITE09-0008",
      "row_index": 103,
      "csv_line": 105,
      "seq_value": "4",
      "variables_modified": {
        "AESEV": {
          "original": "MILD",
          "injected": "ZZZ_INVALID"
        }
      },
      "re_derived": {},
      "expected_co_violations": [],
      "notes": null,
      "status": "injected",
      "failure_reason": null,
      "clean_row_index": 103
    },
    {
      "error_id": "INJ-CT2001-AE-030",
      "rule_id": "CT2001",
      "rule_message": "Variable value not found in non-extensible codelist",
      "category": "ALL1",
      "primitive": "invalid_codelist",
      "domain": "AE",
      "usubjid": "P261-402-USL261-USA_SITE14-0010",
      "row_index": 170,
      "csv_line": 172,
      "seq_value": "6",
      "variables_modified": {
        "AESEV": {
          "original": "MODERATE",
          "injected": "ZZZ_INVALID"
        }
      },
      "re_derived": {},
      "expected_co_violations": [],
      "notes": null,
      "status": "injected",
      "failure_reason": null,
      "clean_row_index": 170
    },
    {
      "error_id": "INJ-CT2001-AE-031",
      "rule_id": "CT2001",
      "rule_message": "Variable value not found in non-extensible codelist",
      "category": "ALL1",
      "primitive": "invalid_codelist",
      "domain": "AE",
      "usubjid": "P261-402-USL261-USA_SITE13-0002",
      "row_index": 141,
      "csv_line": 143,
      "seq_value": "8",
      "variables_modified": {
        "AESEV": {
          "original": "MILD",
          "injected": "ZZZ_INVALID"
        }
      },
      "re_derived": {},
      "expected_co_violations": [],
      "notes": null,
      "status": "injected",
      "failure_reason": null,
      "clean_row_index": 141
    },
    {
      "error_id": "INJ-CT2001-AE-032",
      "rule_id": "CT2001",
      "rule_message": "Variable value not found in non-extensible codelist",
      "category": "ALL1",
      "primitive": "invalid_codelist",
      "domain": "AE",
      "usubjid": "P261-402-USL261-USA_SITE03-0006",
      "row_index": 59,
      "csv_line": 61,
      "seq_value": "16",
      "variables_modified": {
        "AESEV": {
          "original": "MILD",
          "injected": "ZZZ_INVALID"
        }
      },
      "re_derived": {},
      "expected_co_violations": [],
      "notes": null,
      "status": "injected",
      "failure_reason": null,
      "clean_row_index": 59
    },
    {
      "error_id": "INJ-CT2001-AE-033",
      "rule_id": "CT2001",
      "rule_message": "Variable value not found in non-extensible codelist",
      "category": "ALL1",
      "primitive": "invalid_codelist",
      "domain": "AE",
      "usubjid": "P261-402-USL261-USA_SITE09-0008",
      "row_index": 128,
      "csv_line": 130,
      "seq_value": "29",
      "variables_modified": {
        "AESEV": {
          "original": "SEVERE",
          "injected": "ZZZ_INVALID"
        }
      },
      "re_derived": {},
      "expected_co_violations": [],
      "notes": null,
      "status": "injected",
      "failure_reason": null,
      "clean_row_index": 128
    },
    {
      "error_id": "INJ-CT2001-AE-034",
      "rule_id": "CT2001",
      "rule_message": "Variable value not found in non-extensible codelist",
      "category": "ALL1",
      "primitive": "invalid_codelist",
      "domain": "AE",
      "usubjid": "P261-402-USL261-USA_SITE09-0008",
      "row_index": 106,
      "csv_line": 108,
      "seq_value": "7",
      "variables_modified": {
        "AESEV": {
          "original": "MODERATE",
          "injected": "ZZZ_INVALID"
        }
      },
      "re_derived": {},
      "expected_co_violations": [],
      "notes": null,
      "status": "injected",
      "failure_reason": null,
      "clean_row_index": 106
    },
    {
      "error_id": "INJ-CT2001-AE-035",
      "rule_id": "CT2001",
      "rule_message": "Variable value not found in non-extensible codelist",
      "category": "ALL1",
      "primitive": "invalid_codelist",
      "domain": "AE",
      "usubjid": "P261-402-USL261-USA_SITE13-0002",
      "row_index": 152,
      "csv_line": 154,
      "seq_value": "19",
      "variables_modified": {
        "AESEV": {
          "original": "MILD",
          "injected": "ZZZ_INVALID"
        }
      },
      "re_derived": {},
      "expected_co_violations": [],
      "notes": null,
      "status": "injected",
      "failure_reason": null,
      "clean_row_index": 152
    },
    {
      "error_id": "INJ-CT2001-AE-036",
      "rule_id": "CT2001",
      "rule_message": "Variable value not found in non-extensible codelist",
      "category": "ALL1",
      "primitive": "invalid_codelist",
      "domain": "AE",
      "usubjid": "P261-402-USL261-USA_SITE06-0005",
      "row_index": 88,
      "csv_line": 90,
      "seq_value": "18",
      "variables_modified": {
        "AESEV": {
          "original": "SEVERE",
          "injected": "ZZZ_INVALID"
        }
      },
      "re_derived": {},
      "expected_co_violations": [],
      "notes": null,
      "status": "injected",
      "failure_reason": null,
      "clean_row_index": 88
    },
    {
      "error_id": "INJ-CT2001-AE-037",
      "rule_id": "CT2001",
      "rule_message": "Variable value not found in non-extensible codelist",
      "category": "ALL1",
      "primitive": "invalid_codelist",
      "domain": "AE",
      "usubjid": "P261-402-USL261-USA_SITE13-0002",
      "row_index": 161,
      "csv_line": 163,
      "seq_value": "28",
      "variables_modified": {
        "AESEV": {
          "original": "MILD",
          "injected": "ZZZ_INVALID"
        }
      },
      "re_derived": {},
      "expected_co_violations": [],
      "notes": null,
      "status": "injected",
      "failure_reason": null,
      "clean_row_index": 161
    },
    {
      "error_id": "INJ-CT2001-AE-038",
      "rule_id": "CT2001",
      "rule_message": "Variable value not found in non-extensible codelist",
      "category": "ALL1",
      "primitive": "invalid_codelist",
      "domain": "AE",
      "usubjid": "P261-402-USL261-USA_SITE14-0010",
      "row_index": 171,
      "csv_line": 173,
      "seq_value": "7",
      "variables_modified": {
        "AESEV": {
          "original": "MILD",
          "injected": "ZZZ_INVALID"
        }
      },
      "re_derived": {},
      "expected_co_violations": [],
      "notes": null,
      "status": "injected",
      "failure_reason": null,
      "clean_row_index": 171
    },
    {
      "error_id": "INJ-CT2001-AE-039",
      "rule_id": "CT2001",
      "rule_message": "Variable value not found in non-extensible codelist",
      "category": "ALL1",
      "primitive": "invalid_codelist",
      "domain": "AE",
      "usubjid": "P261-402-USL261-USA_SITE03-0006",
      "row_index": 61,
      "csv_line": 63,
      "seq_value": "18",
      "variables_modified": {
        "AESEV": {
          "original": "MODERATE",
          "injected": "ZZZ_INVALID"
        }
      },
      "re_derived": {},
      "expected_co_violations": [],
      "notes": null,
      "status": "injected",
      "failure_reason": null,
      "clean_row_index": 61
    },
    {
      "error_id": "INJ-CT2001-AE-040",
      "rule_id": "CT2001",
      "rule_message": "Variable value not found in non-extensible codelist",
      "category": "ALL1",
      "primitive": "invalid_codelist",
      "domain": "AE",
      "usubjid": "P261-402-USL261-USA_SITE14-0010",
      "row_index": 168,
      "csv_line": 170,
      "seq_value": "4",
      "variables_modified": {
        "AESEV": {
          "original": "MILD",
          "injected": "ZZZ_INVALID"
        }
      },
      "re_derived": {},
      "expected_co_violations": [],
      "notes": null,
      "status": "injected",
      "failure_reason": null,
      "clean_row_index": 168
    },
    {
      "error_id": "INJ-CT2001-AE-041",
      "rule_id": "CT2001",
      "rule_message": "Variable value not found in non-extensible codelist",
      "category": "ALL1",
      "primitive": "invalid_codelist",
      "domain": "AE",
      "usubjid": "P261-402-USL261-USA_SITE06-0005",
      "row_index": 84,
      "csv_line": 86,
      "seq_value": "14",
      "variables_modified": {
        "AESEV": {
          "original": "MILD",
          "injected": "ZZZ_INVALID"
        }
      },
      "re_derived": {},
      "expected_co_violations": [],
      "notes": null,
      "status": "injected",
      "failure_reason": null,
      "clean_row_index": 84
    },
    {
      "error_id": "INJ-CT2001-AE-042",
      "rule_id": "CT2001",
      "rule_message": "Variable value not found in non-extensible codelist",
      "category": "ALL1",
      "primitive": "invalid_codelist",
      "domain": "AE",
      "usubjid": "P261-402-USL261-USA_SITE06-0005",
      "row_index": 71,
      "csv_line": 73,
      "seq_value": "1",
      "variables_modified": {
        "AESEV": {
          "original": "SEVERE",
          "injected": "ZZZ_INVALID"
        }
      },
      "re_derived": {},
      "expected_co_violations": [],
      "notes": null,
      "status": "injected",
      "failure_reason": null,
      "clean_row_index": 71
    },
    {
      "error_id": "INJ-CT2001-AE-043",
      "rule_id": "CT2001",
      "rule_message": "Variable value not found in non-extensible codelist",
      "category": "ALL1",
      "primitive": "invalid_codelist",
      "domain": "AE",
      "usubjid": "P261-402-USL261-USA_SITE13-0002",
      "row_index": 157,
      "csv_line": 159,
      "seq_value": "24",
      "variables_modified": {
        "AESEV": {
          "original": "MILD",
          "injected": "ZZZ_INVALID"
        }
      },
      "re_derived": {},
      "expected_co_violations": [],
      "notes": null,
      "status": "injected",
      "failure_reason": null,
      "clean_row_index": 157
    },
    {
      "error_id": "INJ-CT2001-AE-044",
      "rule_id": "CT2001",
      "rule_message": "Variable value not found in non-extensible codelist",
      "category": "ALL1",
      "primitive": "invalid_codelist",
      "domain": "AE",
      "usubjid": "P261-402-USL261-USA_SITE09-0008",
      "row_index": 122,
      "csv_line": 124,
      "seq_value": "23",
      "variables_modified": {
        "AESEV": {
          "original": "MODERATE",
          "injected": "ZZZ_INVALID"
        }
      },
      "re_derived": {},
      "expected_co_violations": [],
      "notes": null,
      "status": "injected",
      "failure_reason": null,
      "clean_row_index": 122
    },
    {
      "error_id": "INJ-CT2001-AE-045",
      "rule_id": "CT2001",
      "rule_message": "Variable value not found in non-extensible codelist",
      "category": "ALL1",
      "primitive": "invalid_codelist",
      "domain": "AE",
      "usubjid": "P261-402-USL261-USA_SITE06-0005",
      "row_index": 83,
      "csv_line": 85,
      "seq_value": "13",
      "variables_modified": {
        "AESEV": {
          "original": "SEVERE",
          "injected": "ZZZ_INVALID"
        }
      },
      "re_derived": {},
      "expected_co_violations": [],
      "notes": null,
      "status": "injected",
      "failure_reason": null,
      "clean_row_index": 83
    },
    {
      "error_id": "INJ-CT2001-AE-046",
      "rule_id": "CT2001",
      "rule_message": "Variable value not found in non-extensible codelist",
      "category": "ALL1",
      "primitive": "invalid_codelist",
      "domain": "AE",
      "usubjid": "P261-402-USL261-USA_SITE14-0010",
      "row_index": 179,
      "csv_line": 181,
      "seq_value": "15",
      "variables_modified": {
        "AESEV": {
          "original": "SEVERE",
          "injected": "ZZZ_INVALID"
        }
      },
      "re_derived": {},
      "expected_co_violations": [],
      "notes": null,
      "status": "injected",
      "failure_reason": null,
      "clean_row_index": 179
    },
    {
      "error_id": "INJ-CT2001-AE-047",
      "rule_id": "CT2001",
      "rule_message": "Variable value not found in non-extensible codelist",
      "category": "ALL1",
      "primitive": "invalid_codelist",
      "domain": "AE",
      "usubjid": "P261-402-USL261-USA_SITE13-0002",
      "row_index": 137,
      "csv_line": 139,
      "seq_value": "4",
      "variables_modified": {
        "AESEV": {
          "original": "MODERATE",
          "injected": "ZZZ_INVALID"
        }
      },
      "re_derived": {},
      "expected_co_violations": [],
      "notes": null,
      "status": "injected",
      "failure_reason": null,
      "clean_row_index": 137
    },
    {
      "error_id": "INJ-CT2001-AE-048",
      "rule_id": "CT2001",
      "rule_message": "Variable value not found in non-extensible codelist",
      "category": "ALL1",
      "primitive": "invalid_codelist",
      "domain": "AE",
      "usubjid": "P261-402-USL261-USA_SITE03-0006",
      "row_index": 49,
      "csv_line": 51,
      "seq_value": "6",
      "variables_modified": {
        "AESEV": {
          "original": "MODERATE",
          "injected": "ZZZ_INVALID"
        }
      },
      "re_derived": {},
      "expected_co_violations": [],
      "notes": null,
      "status": "injected",
      "failure_reason": null,
      "clean_row_index": 49
    },
    {
      "error_id": "INJ-CT2001-AE-049",
      "rule_id": "CT2001",
      "rule_message": "Variable value not found in non-extensible codelist",
      "category": "ALL1",
      "primitive": "invalid_codelist",
      "domain": "AE",
      "usubjid": "P261-402-USL261-USA_SITE15-0003",
      "row_index": 182,
      "csv_line": 184,
      "seq_value": "3",
      "variables_modified": {
        "AESEV": {
          "original": "MODERATE",
          "injected": "ZZZ_INVALID"
        }
      },
      "re_derived": {},
      "expected_co_violations": [],
      "notes": null,
      "status": "injected",
      "failure_reason": null,
      "clean_row_index": 182
    },
    {
      "error_id": "INJ-CT2001-AE-050",
      "rule_id": "CT2001",
      "rule_message": "Variable value not found in non-extensible codelist",
      "category": "ALL1",
      "primitive": "invalid_codelist",
      "domain": "AE",
      "usubjid": "P261-402-USL261-USA_SITE15-0003",
      "row_index": 184,
      "csv_line": 186,
      "seq_value": "5",
      "variables_modified": {
        "AESEV": {
          "original": "MILD",
          "injected": "ZZZ_INVALID"
        }
      },
      "re_derived": {},
      "expected_co_violations": [],
      "notes": null,
      "status": "injected",
      "failure_reason": null,
      "clean_row_index": 184
    },
    {
      "error_id": "INJ-CT2001-EC-051",
      "rule_id": "CT2001",
      "rule_message": "Variable value not found in non-extensible codelist",
      "category": "ALL1",
      "primitive": "invalid_codelist",
      "domain": "EC",
      "usubjid": "P261-402-USL261-USA_SITE02-0015",
      "row_index": 18,
      "csv_line": 20,
      "seq_value": "3",
      "variables_modified": {
        "ECSTAT": {
          "original": "",
          "injected": "ZZZ_INVALID"
        }
      },
      "re_derived": {},
      "expected_co_violations": [],
      "notes": null,
      "status": "injected",
      "failure_reason": null,
      "clean_row_index": 18
    },
    {
      "error_id": "INJ-CT2001-EC-052",
      "rule_id": "CT2001",
      "rule_message": "Variable value not found in non-extensible codelist",
      "category": "ALL1",
      "primitive": "invalid_codelist",
      "domain": "EC",
      "usubjid": "P261-402-USL261-USA_SITE15-0004",
      "row_index": 137,
      "csv_line": 139,
      "seq_value": "2",
      "variables_modified": {
        "ECSTAT": {
          "original": "",
          "injected": "ZZZ_INVALID"
        }
      },
      "re_derived": {},
      "expected_co_violations": [],
      "notes": null,
      "status": "injected",
      "failure_reason": null,
      "clean_row_index": 137
    },
    {
      "error_id": "INJ-CT2001-EC-053",
      "rule_id": "CT2001",
      "rule_message": "Variable value not found in non-extensible codelist",
      "category": "ALL1",
      "primitive": "invalid_codelist",
      "domain": "EC",
      "usubjid": "P261-402-USL261-USA_SITE15-0004",
      "row_index": 139,
      "csv_line": 141,
      "seq_value": "4",
      "variables_modified": {
        "ECSTAT": {
          "original": "",
          "injected": "ZZZ_INVALID"
        }
      },
      "re_derived": {},
      "expected_co_violations": [],
      "notes": null,
      "status": "injected",
      "failure_reason": null,
      "clean_row_index": 139
    },
    {
      "error_id": "INJ-CT2001-EC-054",
      "rule_id": "CT2001",
      "rule_message": "Variable value not found in non-extensible codelist",
      "category": "ALL1",
      "primitive": "invalid_codelist",
      "domain": "EC",
      "usubjid": "P261-402-USL261-USA_SITE02-0020",
      "row_index": 29,
      "csv_line": 31,
      "seq_value": "6",
      "variables_modified": {
        "ECSTAT": {
          "original": "NOT DONE",
          "injected": "ZZZ_INVALID"
        }
      },
      "re_derived": {},
      "expected_co_violations": [],
      "notes": null,
      "status": "injected",
      "failure_reason": null,
      "clean_row_index": 29
    },
    {
      "error_id": "INJ-CT2001-EC-055",
      "rule_id": "CT2001",
      "rule_message": "Variable value not found in non-extensible codelist",
      "category": "ALL1",
      "primitive": "invalid_codelist",
      "domain": "EC",
      "usubjid": "P261-402-USL261-USA_SITE02-0015",
      "row_index": 20,
      "csv_line": 22,
      "seq_value": "5",
      "variables_modified": {
        "ECSTAT": {
          "original": "",
          "injected": "ZZZ_INVALID"
        }
      },
      "re_derived": {},
      "expected_co_violations": [],
      "notes": null,
      "status": "injected",
      "failure_reason": null,
      "clean_row_index": 20
    },
    {
      "error_id": "INJ-CT2001-EC-056",
      "rule_id": "CT2001",
      "rule_message": "Variable value not found in non-extensible codelist",
      "category": "ALL1",
      "primitive": "invalid_codelist",
      "domain": "EC",
      "usubjid": "P261-402-USL261-USA_SITE06-0017",
      "row_index": 64,
      "csv_line": 66,
      "seq_value": "1",
      "variables_modified": {
        "ECSTAT": {
          "original": "",
          "injected": "ZZZ_INVALID"
        }
      },
      "re_derived": {},
      "expected_co_violations": [],
      "notes": null,
      "status": "injected",
      "failure_reason": null,
      "clean_row_index": 64
    },
    {
      "error_id": "INJ-CT2001-EC-057",
      "rule_id": "CT2001",
      "rule_message": "Variable value not found in non-extensible codelist",
      "category": "ALL1",
      "primitive": "invalid_codelist",
      "domain": "EC",
      "usubjid": "P261-402-USL261-USA_SITE05-0011",
      "row_index": 54,
      "csv_line": 56,
      "seq_value": "7",
      "variables_modified": {
        "ECSTAT": {
          "original": "NOT DONE",
          "injected": "ZZZ_INVALID"
        }
      },
      "re_derived": {},
      "expected_co_violations": [],
      "notes": null,
      "status": "injected",
      "failure_reason": null,
      "clean_row_index": 54
    },
    {
      "error_id": "INJ-CT2001-EC-058",
      "rule_id": "CT2001",
      "rule_message": "Variable value not found in non-extensible codelist",
      "category": "ALL1",
      "primitive": "invalid_codelist",
      "domain": "EC",
      "usubjid": "P261-402-USL261-USA_SITE07-0012",
      "row_index": 78,
      "csv_line": 80,
      "seq_value": "7",
      "variables_modified": {
        "ECSTAT": {
          "original": "",
          "injected": "ZZZ_INVALID"
        }
      },
      "re_derived": {},
      "expected_co_violations": [],
      "notes": null,
      "status": "injected",
      "failure_reason": null,
      "clean_row_index": 78
    },
    {
      "error_id": "INJ-CT2001-EC-059",
      "rule_id": "CT2001",
      "rule_message": "Variable value not found in non-extensible codelist",
      "category": "ALL1",
      "primitive": "invalid_codelist",
      "domain": "EC",
      "usubjid": "P261-402-USL261-USA_SITE07-0012",
      "row_index": 79,
      "csv_line": 81,
      "seq_value": "8",
      "variables_modified": {
        "ECSTAT": {
          "original": "NOT DONE",
          "injected": "ZZZ_INVALID"
        }
      },
      "re_derived": {},
      "expected_co_violations": [],
      "notes": null,
      "status": "injected",
      "failure_reason": null,
      "clean_row_index": 79
    },
    {
      "error_id": "INJ-CT2001-EC-060",
      "rule_id": "CT2001",
      "rule_message": "Variable value not found in non-extensible codelist",
      "category": "ALL1",
      "primitive": "invalid_codelist",
      "domain": "EC",
      "usubjid": "P261-402-USL261-USA_SITE14-0001",
      "row_index": 109,
      "csv_line": 111,
      "seq_value": "6",
      "variables_modified": {
        "ECSTAT": {
          "original": "",
          "injected": "ZZZ_INVALID"
        }
      },
      "re_derived": {},
      "expected_co_violations": [],
      "notes": null,
      "status": "injected",
      "failure_reason": null,
      "clean_row_index": 109
    },
    {
      "error_id": "INJ-CT2001-EC-061",
      "rule_id": "CT2001",
      "rule_message": "Variable value not found in non-extensible codelist",
      "category": "ALL1",
      "primitive": "invalid_codelist",
      "domain": "EC",
      "usubjid": "P261-402-USL261-USA_SITE07-0012",
      "row_index": 75,
      "csv_line": 77,
      "seq_value": "4",
      "variables_modified": {
        "ECSTAT": {
          "original": "",
          "injected": "ZZZ_INVALID"
        }
      },
      "re_derived": {},
      "expected_co_violations": [],
      "notes": null,
      "status": "injected",
      "failure_reason": null,
      "clean_row_index": 75
    },
    {
      "error_id": "INJ-CT2001-EC-062",
      "rule_id": "CT2001",
      "rule_message": "Variable value not found in non-extensible codelist",
      "category": "ALL1",
      "primitive": "invalid_codelist",
      "domain": "EC",
      "usubjid": "P261-402-USL261-USA_SITE06-0017",
      "row_index": 68,
      "csv_line": 70,
      "seq_value": "5",
      "variables_modified": {
        "ECSTAT": {
          "original": "",
          "injected": "ZZZ_INVALID"
        }
      },
      "re_derived": {},
      "expected_co_violations": [],
      "notes": null,
      "status": "injected",
      "failure_reason": null,
      "clean_row_index": 68
    },
    {
      "error_id": "INJ-CT2001-EC-063",
      "rule_id": "CT2001",
      "rule_message": "Variable value not found in non-extensible codelist",
      "category": "ALL1",
      "primitive": "invalid_codelist",
      "domain": "EC",
      "usubjid": "P261-402-USL261-USA_SITE14-0016",
      "row_index": 120,
      "csv_line": 122,
      "seq_value": "1",
      "variables_modified": {
        "ECSTAT": {
          "original": "NOT DONE",
          "injected": "ZZZ_INVALID"
        }
      },
      "re_derived": {},
      "expected_co_violations": [],
      "notes": null,
      "status": "injected",
      "failure_reason": null,
      "clean_row_index": 120
    },
    {
      "error_id": "INJ-CT2001-EC-064",
      "rule_id": "CT2001",
      "rule_message": "Variable value not found in non-extensible codelist",
      "category": "ALL1",
      "primitive": "invalid_codelist",
      "domain": "EC",
      "usubjid": "P261-402-USL261-USA_SITE03-0018",
      "row_index": 42,
      "csv_line": 44,
      "seq_value": "3",
      "variables_modified": {
        "ECSTAT": {
          "original": "",
          "injected": "ZZZ_INVALID"
        }
      },
      "re_derived": {},
      "expected_co_violations": [],
      "notes": null,
      "status": "injected",
      "failure_reason": null,
      "clean_row_index": 42
    },
    {
      "error_id": "INJ-CT2001-EC-065",
      "rule_id": "CT2001",
      "rule_message": "Variable value not found in non-extensible codelist",
      "category": "ALL1",
      "primitive": "invalid_codelist",
      "domain": "EC",
      "usubjid": "P261-402-USL261-USA_SITE02-0015",
      "row_index": 17,
      "csv_line": 19,
      "seq_value": "2",
      "variables_modified": {
        "ECSTAT": {
          "original": "",
          "injected": "ZZZ_INVALID"
        }
      },
      "re_derived": {},
      "expected_co_violations": [],
      "notes": null,
      "status": "injected",
      "failure_reason": null,
      "clean_row_index": 17
    },
    {
      "error_id": "INJ-CT2001-EC-066",
      "rule_id": "CT2001",
      "rule_message": "Variable value not found in non-extensible codelist",
      "category": "ALL1",
      "primitive": "invalid_codelist",
      "domain": "EC",
      "usubjid": "P261-402-USL261-USA_SITE14-0016",
      "row_index": 123,
      "csv_line": 125,
      "seq_value": "4",
      "variables_modified": {
        "ECSTAT": {
          "original": "",
          "injected": "ZZZ_INVALID"
        }
      },
      "re_derived": {},
      "expected_co_violations": [],
      "notes": null,
      "status": "injected",
      "failure_reason": null,
      "clean_row_index": 123
    },
    {
      "error_id": "INJ-CT2001-EC-067",
      "rule_id": "CT2001",
      "rule_message": "Variable value not found in non-extensible codelist",
      "category": "ALL1",
      "primitive": "invalid_codelist",
      "domain": "EC",
      "usubjid": "P261-402-USL261-USA_SITE05-0011",
      "row_index": 50,
      "csv_line": 52,
      "seq_value": "3",
      "variables_modified": {
        "ECSTAT": {
          "original": "",
          "injected": "ZZZ_INVALID"
        }
      },
      "re_derived": {},
      "expected_co_violations": [],
      "notes": null,
      "status": "injected",
      "failure_reason": null,
      "clean_row_index": 50
    },
    {
      "error_id": "INJ-CT2001-EC-068",
      "rule_id": "CT2001",
      "rule_message": "Variable value not found in non-extensible codelist",
      "category": "ALL1",
      "primitive": "invalid_codelist",
      "domain": "EC",
      "usubjid": "P261-402-USL261-USA_SITE03-0018",
      "row_index": 47,
      "csv_line": 49,
      "seq_value": "8",
      "variables_modified": {
        "ECSTAT": {
          "original": "",
          "injected": "ZZZ_INVALID"
        }
      },
      "re_derived": {},
      "expected_co_violations": [],
      "notes": null,
      "status": "injected",
      "failure_reason": null,
      "clean_row_index": 47
    },
    {
      "error_id": "INJ-CT2001-EC-069",
      "rule_id": "CT2001",
      "rule_message": "Variable value not found in non-extensible codelist",
      "category": "ALL1",
      "primitive": "invalid_codelist",
      "domain": "EC",
      "usubjid": "P261-402-USL261-USA_SITE15-0004",
      "row_index": 141,
      "csv_line": 143,
      "seq_value": "6",
      "variables_modified": {
        "ECSTAT": {
          "original": "",
          "injected": "ZZZ_INVALID"
        }
      },
      "re_derived": {},
      "expected_co_violations": [],
      "notes": null,
      "status": "injected",
      "failure_reason": null,
      "clean_row_index": 141
    },
    {
      "error_id": "INJ-CT2001-EC-070",
      "rule_id": "CT2001",
      "rule_message": "Variable value not found in non-extensible codelist",
      "category": "ALL1",
      "primitive": "invalid_codelist",
      "domain": "EC",
      "usubjid": "P261-402-USL261-USA_SITE01-0019",
      "row_index": 15,
      "csv_line": 17,
      "seq_value": "8",
      "variables_modified": {
        "ECSTAT": {
          "original": "",
          "injected": "ZZZ_INVALID"
        }
      },
      "re_derived": {},
      "expected_co_violations": [],
      "notes": null,
      "status": "injected",
      "failure_reason": null,
      "clean_row_index": 15
    },
    {
      "error_id": "INJ-CT2001-EC-071",
      "rule_id": "CT2001",
      "rule_message": "Variable value not found in non-extensible codelist",
      "category": "ALL1",
      "primitive": "invalid_codelist",
      "domain": "EC",
      "usubjid": "P261-402-USL261-USA_SITE15-0004",
      "row_index": 142,
      "csv_line": 144,
      "seq_value": "7",
      "variables_modified": {
        "ECSTAT": {
          "original": "",
          "injected": "ZZZ_INVALID"
        }
      },
      "re_derived": {},
      "expected_co_violations": [],
      "notes": null,
      "status": "injected",
      "failure_reason": null,
      "clean_row_index": 142
    },
    {
      "error_id": "INJ-CT2001-EC-072",
      "rule_id": "CT2001",
      "rule_message": "Variable value not found in non-extensible codelist",
      "category": "ALL1",
      "primitive": "invalid_codelist",
      "domain": "EC",
      "usubjid": "P261-402-USL261-USA_SITE07-0012",
      "row_index": 77,
      "csv_line": 79,
      "seq_value": "6",
      "variables_modified": {
        "ECSTAT": {
          "original": "NOT DONE",
          "injected": "ZZZ_INVALID"
        }
      },
      "re_derived": {},
      "expected_co_violations": [],
      "notes": null,
      "status": "injected",
      "failure_reason": null,
      "clean_row_index": 77
    },
    {
      "error_id": "INJ-CT2001-EC-073",
      "rule_id": "CT2001",
      "rule_message": "Variable value not found in non-extensible codelist",
      "category": "ALL1",
      "primitive": "invalid_codelist",
      "domain": "EC",
      "usubjid": "P261-402-USL261-USA_SITE03-0018",
      "row_index": 40,
      "csv_line": 42,
      "seq_value": "1",
      "variables_modified": {
        "ECSTAT": {
          "original": "",
          "injected": "ZZZ_INVALID"
        }
      },
      "re_derived": {},
      "expected_co_violations": [],
      "notes": null,
      "status": "injected",
      "failure_reason": null,
      "clean_row_index": 40
    },
    {
      "error_id": "INJ-CT2001-EC-074",
      "rule_id": "CT2001",
      "rule_message": "Variable value not found in non-extensible codelist",
      "category": "ALL1",
      "primitive": "invalid_codelist",
      "domain": "EC",
      "usubjid": "P261-402-USL261-USA_SITE05-0011",
      "row_index": 51,
      "csv_line": 53,
      "seq_value": "4",
      "variables_modified": {
        "ECSTAT": {
          "original": "",
          "injected": "ZZZ_INVALID"
        }
      },
      "re_derived": {},
      "expected_co_violations": [],
      "notes": null,
      "status": "injected",
      "failure_reason": null,
      "clean_row_index": 51
    },
    {
      "error_id": "INJ-CT2001-EC-075",
      "rule_id": "CT2001",
      "rule_message": "Variable value not found in non-extensible codelist",
      "category": "ALL1",
      "primitive": "invalid_codelist",
      "domain": "EC",
      "usubjid": "P261-402-USL261-USA_SITE06-0017",
      "row_index": 65,
      "csv_line": 67,
      "seq_value": "2",
      "variables_modified": {
        "ECSTAT": {
          "original": "",
          "injected": "ZZZ_INVALID"
        }
      },
      "re_derived": {},
      "expected_co_violations": [],
      "notes": null,
      "status": "injected",
      "failure_reason": null,
      "clean_row_index": 65
    },
    {
      "error_id": "INJ-CT2001-EC-076",
      "rule_id": "CT2001",
      "rule_message": "Variable value not found in non-extensible codelist",
      "category": "ALL1",
      "primitive": "invalid_codelist",
      "domain": "EC",
      "usubjid": "P261-402-USL261-USA_SITE14-0016",
      "row_index": 125,
      "csv_line": 127,
      "seq_value": "6",
      "variables_modified": {
        "ECSTAT": {
          "original": "",
          "injected": "ZZZ_INVALID"
        }
      },
      "re_derived": {},
      "expected_co_violations": [],
      "notes": null,
      "status": "injected",
      "failure_reason": null,
      "clean_row_index": 125
    },
    {
      "error_id": "INJ-CT2001-EC-077",
      "rule_id": "CT2001",
      "rule_message": "Variable value not found in non-extensible codelist",
      "category": "ALL1",
      "primitive": "invalid_codelist",
      "domain": "EC",
      "usubjid": "P261-402-USL261-USA_SITE01-0019",
      "row_index": 11,
      "csv_line": 13,
      "seq_value": "4",
      "variables_modified": {
        "ECSTAT": {
          "original": "",
          "injected": "ZZZ_INVALID"
        }
      },
      "re_derived": {},
      "expected_co_violations": [],
      "notes": null,
      "status": "injected",
      "failure_reason": null,
      "clean_row_index": 11
    },
    {
      "error_id": "INJ-CT2001-EC-078",
      "rule_id": "CT2001",
      "rule_message": "Variable value not found in non-extensible codelist",
      "category": "ALL1",
      "primitive": "invalid_codelist",
      "domain": "EC",
      "usubjid": "P261-402-USL261-USA_SITE03-0018",
      "row_index": 45,
      "csv_line": 47,
      "seq_value": "6",
      "variables_modified": {
        "ECSTAT": {
          "original": "",
          "injected": "ZZZ_INVALID"
        }
      },
      "re_derived": {},
      "expected_co_violations": [],
      "notes": null,
      "status": "injected",
      "failure_reason": null,
      "clean_row_index": 45
    },
    {
      "error_id": "INJ-CT2001-EC-079",
      "rule_id": "CT2001",
      "rule_message": "Variable value not found in non-extensible codelist",
      "category": "ALL1",
      "primitive": "invalid_codelist",
      "domain": "EC",
      "usubjid": "P261-402-USL261-USA_SITE01-0019",
      "row_index": 9,
      "csv_line": 11,
      "seq_value": "2",
      "variables_modified": {
        "ECSTAT": {
          "original": "",
          "injected": "ZZZ_INVALID"
        }
      },
      "re_derived": {},
      "expected_co_violations": [],
      "notes": null,
      "status": "injected",
      "failure_reason": null,
      "clean_row_index": 9
    },
    {
      "error_id": "INJ-CT2001-LB-083",
      "rule_id": "CT2001",
      "rule_message": "Variable value not found in non-extensible codelist",
      "category": "ALL1",
      "primitive": "invalid_codelist",
      "domain": "LB",
      "usubjid": "P261-402-USL261-USA_SITE14-0001",
      "row_index": 339,
      "csv_line": 341,
      "seq_value": "4",
      "variables_modified": {
        "LBSTAT": {
          "original": "",
          "injected": "ZZZ_INVALID"
        }
      },
      "re_derived": {},
      "expected_co_violations": [],
      "notes": null,
      "status": "injected",
      "failure_reason": null,
      "clean_row_index": 339
    },
    {
      "error_id": "INJ-CT2001-LB-084",
      "rule_id": "CT2001",
      "rule_message": "Variable value not found in non-extensible codelist",
      "category": "ALL1",
      "primitive": "invalid_codelist",
      "domain": "LB",
      "usubjid": "P261-402-USL261-USA_SITE12-0013",
      "row_index": 269,
      "csv_line": 271,
      "seq_value": "4",
      "variables_modified": {
        "LBSTAT": {
          "original": "",
          "injected": "ZZZ_INVALID"
        }
      },
      "re_derived": {},
      "expected_co_violations": [],
      "notes": null,
      "status": "injected",
      "failure_reason": null,
      "clean_row_index": 269
    },
    {
      "error_id": "INJ-CT2001-LB-085",
      "rule_id": "CT2001",
      "rule_message": "Variable value not found in non-extensible codelist",
      "category": "ALL1",
      "primitive": "invalid_codelist",
      "domain": "LB",
      "usubjid": "P261-402-USL261-USA_SITE05-0011",
      "row_index": 152,
      "csv_line": 154,
      "seq_value": "6",
      "variables_modified": {
        "LBSTAT": {
          "original": "",
          "injected": "ZZZ_INVALID"
        }
      },
      "re_derived": {},
      "expected_co_violations": [],
      "notes": null,
      "status": "injected",
      "failure_reason": null,
      "clean_row_index": 152
    },
    {
      "error_id": "INJ-CT2001-LB-086",
      "rule_id": "CT2001",
      "rule_message": "Variable value not found in non-extensible codelist",
      "category": "ALL1",
      "primitive": "invalid_codelist",
      "domain": "LB",
      "usubjid": "P261-402-USL261-USA_SITE02-0015",
      "row_index": 65,
      "csv_line": 67,
      "seq_value": "10",
      "variables_modified": {
        "LBSTAT": {
          "original": "",
          "injected": "ZZZ_INVALID"
        }
      },
      "re_derived": {},
      "expected_co_violations": [],
      "notes": null,
      "status": "injected",
      "failure_reason": null,
      "clean_row_index": 65
    },
    {
      "error_id": "INJ-CT2001-LB-087",
      "rule_id": "CT2001",
      "rule_message": "Variable value not found in non-extensible codelist",
      "category": "ALL1",
      "primitive": "invalid_codelist",
      "domain": "LB",
      "usubjid": "P261-402-USL261-USA_SITE02-0015",
      "row_index": 59,
      "csv_line": 61,
      "seq_value": "4",
      "variables_modified": {
        "LBSTAT": {
          "original": "",
          "injected": "ZZZ_INVALID"
        }
      },
      "re_derived": {},
      "expected_co_violations": [],
      "notes": null,
      "status": "injected",
      "failure_reason": null,
      "clean_row_index": 59
    },
    {
      "error_id": "INJ-CT2001-VS-088",
      "rule_id": "CT2001",
      "rule_message": "Variable value not found in non-extensible codelist",
      "category": "ALL1",
      "primitive": "invalid_codelist",
      "domain": "VS",
      "usubjid": "P261-402-USL261-USA_SITE14-0001",
      "row_index": 384,
      "csv_line": 386,
      "seq_value": "1",
      "variables_modified": {
        "VSSTAT": {
          "original": "",
          "injected": "ZZZ_INVALID"
        }
      },
      "re_derived": {},
      "expected_co_violations": [],
      "notes": null,
      "status": "injected",
      "failure_reason": null,
      "clean_row_index": 384
    },
    {
      "error_id": "INJ-CT2001-VS-089",
      "rule_id": "CT2001",
      "rule_message": "Variable value not found in non-extensible codelist",
      "category": "ALL1",
      "primitive": "invalid_codelist",
      "domain": "VS",
      "usubjid": "P261-402-USL261-USA_SITE14-0001",
      "row_index": 390,
      "csv_line": 392,
      "seq_value": "7",
      "variables_modified": {
        "VSSTAT": {
          "original": "",
          "injected": "ZZZ_INVALID"
        }
      },
      "re_derived": {},
      "expected_co_violations": [],
      "notes": null,
      "status": "injected",
      "failure_reason": null,
      "clean_row_index": 390
    },
    {
      "error_id": "INJ-CT2001-VS-090",
      "rule_id": "CT2001",
      "rule_message": "Variable value not found in non-extensible codelist",
      "category": "ALL1",
      "primitive": "invalid_codelist",
      "domain": "VS",
      "usubjid": "P261-402-USL261-USA_SITE05-0011",
      "row_index": 164,
      "csv_line": 166,
      "seq_value": "5",
      "variables_modified": {
        "VSSTAT": {
          "original": "",
          "injected": "ZZZ_INVALID"
        }
      },
      "re_derived": {},
      "expected_co_violations": [],
      "notes": null,
      "status": "injected",
      "failure_reason": null,
      "clean_row_index": 164
    },
    {
      "error_id": "INJ-SD1356-CM-001",
      "rule_id": "SD1356",
      "rule_message": "Missing TM dataset, when variable RELMIDS is present in a dataset",
      "category": "VI1 & VV1",
      "primitive": "add_column",
      "domain": "CM",
      "usubjid": null,
      "row_index": null,
      "csv_line": null,
      "seq_value": null,
      "variables_modified": {
        "RELMIDS": {
          "original": "absent",
          "injected": "IMMEDIATELY BEFORE"
        }
      },
      "re_derived": {},
      "expected_co_violations": [],
      "notes": null,
      "status": "injected",
      "failure_reason": null,
      "clean_row_index": null
    },
    {
      "error_id": "INJ-SD1356-EC-002",
      "rule_id": "SD1356",
      "rule_message": "Missing TM dataset, when variable RELMIDS is present in a dataset",
      "category": "VI1 & VV1",
      "primitive": "add_column",
      "domain": "EC",
      "usubjid": null,
      "row_index": null,
      "csv_line": null,
      "seq_value": null,
      "variables_modified": {
        "RELMIDS": {
          "original": "absent",
          "injected": "IMMEDIATELY BEFORE"
        }
      },
      "re_derived": {},
      "expected_co_violations": [],
      "notes": null,
      "status": "injected",
      "failure_reason": null,
      "clean_row_index": null
    },
    {
      "error_id": "INJ-SD1356-EX-003",
      "rule_id": "SD1356",
      "rule_message": "Missing TM dataset, when variable RELMIDS is present in a dataset",
      "category": "VI1 & VV1",
      "primitive": "add_column",
      "domain": "EX",
      "usubjid": null,
      "row_index": null,
      "csv_line": null,
      "seq_value": null,
      "variables_modified": {
        "RELMIDS": {
          "original": "absent",
          "injected": "IMMEDIATELY BEFORE"
        }
      },
      "re_derived": {},
      "expected_co_violations": [],
      "notes": null,
      "status": "injected",
      "failure_reason": null,
      "clean_row_index": null
    },
    {
      "error_id": "INJ-SD1356-SU-004",
      "rule_id": "SD1356",
      "rule_message": "Missing TM dataset, when variable RELMIDS is present in a dataset",
      "category": "VI1 & VV1",
      "primitive": "add_column",
      "domain": "SU",
      "usubjid": null,
      "row_index": null,
      "csv_line": null,
      "seq_value": null,
      "variables_modified": {
        "RELMIDS": {
          "original": "absent",
          "injected": "IMMEDIATELY BEFORE"
        }
      },
      "re_derived": {},
      "expected_co_violations": [],
      "notes": null,
      "status": "injected",
      "failure_reason": null,
      "clean_row_index": null
    },
    {
      "error_id": "INJ-SD1356-AE-005",
      "rule_id": "SD1356",
      "rule_message": "Missing TM dataset, when variable RELMIDS is present in a dataset",
      "category": "VI1 & VV1",
      "primitive": "add_column",
      "domain": "AE",
      "usubjid": null,
      "row_index": null,
      "csv_line": null,
      "seq_value": null,
      "variables_modified": {
        "RELMIDS": {
          "original": "absent",
          "injected": "IMMEDIATELY BEFORE"
        }
      },
      "re_derived": {},
      "expected_co_violations": [],
      "notes": null,
      "status": "injected",
      "failure_reason": null,
      "clean_row_index": null
    },
    {
      "error_id": "INJ-SD1356-DS-006",
      "rule_id": "SD1356",
      "rule_message": "Missing TM dataset, when variable RELMIDS is present in a dataset",
      "category": "VI1 & VV1",
      "primitive": "add_column",
      "domain": "DS",
      "usubjid": null,
      "row_index": null,
      "csv_line": null,
      "seq_value": null,
      "variables_modified": {
        "RELMIDS": {
          "original": "absent",
          "injected": "IMMEDIATELY BEFORE"
        }
      },
      "re_derived": {},
      "expected_co_violations": [],
      "notes": null,
      "status": "injected",
      "failure_reason": null,
      "clean_row_index": null
    },
    {
      "error_id": "INJ-SD1356-DV-007",
      "rule_id": "SD1356",
      "rule_message": "Missing TM dataset, when variable RELMIDS is present in a dataset",
      "category": "VI1 & VV1",
      "primitive": "add_column",
      "domain": "DV",
      "usubjid": null,
      "row_index": null,
      "csv_line": null,
      "seq_value": null,
      "variables_modified": {
        "RELMIDS": {
          "original": "absent",
          "injected": "IMMEDIATELY BEFORE"
        }
      },
      "re_derived": {},
      "expected_co_violations": [],
      "notes": null,
      "status": "injected",
      "failure_reason": null,
      "clean_row_index": null
    },
    {
      "error_id": "INJ-SD1356-HO-008",
      "rule_id": "SD1356",
      "rule_message": "Missing TM dataset, when variable RELMIDS is present in a dataset",
      "category": "VI1 & VV1",
      "primitive": "add_column",
      "domain": "HO",
      "usubjid": null,
      "row_index": null,
      "csv_line": null,
      "seq_value": null,
      "variables_modified": {
        "RELMIDS": {
          "original": "absent",
          "injected": "IMMEDIATELY BEFORE"
        }
      },
      "re_derived": {},
      "expected_co_violations": [],
      "notes": null,
      "status": "injected",
      "failure_reason": null,
      "clean_row_index": null
    },
    {
      "error_id": "INJ-SD1356-MH-009",
      "rule_id": "SD1356",
      "rule_message": "Missing TM dataset, when variable RELMIDS is present in a dataset",
      "category": "VI1 & VV1",
      "primitive": "add_column",
      "domain": "MH",
      "usubjid": null,
      "row_index": null,
      "csv_line": null,
      "seq_value": null,
      "variables_modified": {
        "RELMIDS": {
          "original": "absent",
          "injected": "IMMEDIATELY BEFORE"
        }
      },
      "re_derived": {},
      "expected_co_violations": [],
      "notes": null,
      "status": "injected",
      "failure_reason": null,
      "clean_row_index": null
    },
    {
      "error_id": "INJ-SD1356-DA-010",
      "rule_id": "SD1356",
      "rule_message": "Missing TM dataset, when variable RELMIDS is present in a dataset",
      "category": "VI1 & VV1",
      "primitive": "add_column",
      "domain": "DA",
      "usubjid": null,
      "row_index": null,
      "csv_line": null,
      "seq_value": null,
      "variables_modified": {
        "RELMIDS": {
          "original": "absent",
          "injected": "IMMEDIATELY BEFORE"
        }
      },
      "re_derived": {},
      "expected_co_violations": [],
      "notes": null,
      "status": "injected",
      "failure_reason": null,
      "clean_row_index": null
    },
    {
      "error_id": "INJ-SD1356-IE-011",
      "rule_id": "SD1356",
      "rule_message": "Missing TM dataset, when variable RELMIDS is present in a dataset",
      "category": "VI1 & VV1",
      "primitive": "add_column",
      "domain": "IE",
      "usubjid": null,
      "row_index": null,
      "csv_line": null,
      "seq_value": null,
      "variables_modified": {
        "RELMIDS": {
          "original": "absent",
          "injected": "IMMEDIATELY BEFORE"
        }
      },
      "re_derived": {},
      "expected_co_violations": [],
      "notes": null,
      "status": "injected",
      "failure_reason": null,
      "clean_row_index": null
    },
    {
      "error_id": "INJ-SD1356-LB-012",
      "rule_id": "SD1356",
      "rule_message": "Missing TM dataset, when variable RELMIDS is present in a dataset",
      "category": "VI1 & VV1",
      "primitive": "add_column",
      "domain": "LB",
      "usubjid": null,
      "row_index": null,
      "csv_line": null,
      "seq_value": null,
      "variables_modified": {
        "RELMIDS": {
          "original": "absent",
          "injected": "IMMEDIATELY BEFORE"
        }
      },
      "re_derived": {},
      "expected_co_violations": [],
      "notes": null,
      "status": "injected",
      "failure_reason": null,
      "clean_row_index": null
    },
    {
      "error_id": "INJ-SD1356-PE-013",
      "rule_id": "SD1356",
      "rule_message": "Missing TM dataset, when variable RELMIDS is present in a dataset",
      "category": "VI1 & VV1",
      "primitive": "add_column",
      "domain": "PE",
      "usubjid": null,
      "row_index": null,
      "csv_line": null,
      "seq_value": null,
      "variables_modified": {
        "RELMIDS": {
          "original": "absent",
          "injected": "IMMEDIATELY BEFORE"
        }
      },
      "re_derived": {},
      "expected_co_violations": [],
      "notes": null,
      "status": "injected",
      "failure_reason": null,
      "clean_row_index": null
    },
    {
      "error_id": "INJ-SD1356-SC-014",
      "rule_id": "SD1356",
      "rule_message": "Missing TM dataset, when variable RELMIDS is present in a dataset",
      "category": "VI1 & VV1",
      "primitive": "add_column",
      "domain": "SC",
      "usubjid": null,
      "row_index": null,
      "csv_line": null,
      "seq_value": null,
      "variables_modified": {
        "RELMIDS": {
          "original": "absent",
          "injected": "IMMEDIATELY BEFORE"
        }
      },
      "re_derived": {},
      "expected_co_violations": [],
      "notes": null,
      "status": "injected",
      "failure_reason": null,
      "clean_row_index": null
    },
    {
      "error_id": "INJ-SD1356-SS-015",
      "rule_id": "SD1356",
      "rule_message": "Missing TM dataset, when variable RELMIDS is present in a dataset",
      "category": "VI1 & VV1",
      "primitive": "add_column",
      "domain": "SS",
      "usubjid": null,
      "row_index": null,
      "csv_line": null,
      "seq_value": null,
      "variables_modified": {
        "RELMIDS": {
          "original": "absent",
          "injected": "IMMEDIATELY BEFORE"
        }
      },
      "re_derived": {},
      "expected_co_violations": [],
      "notes": null,
      "status": "injected",
      "failure_reason": null,
      "clean_row_index": null
    },
    {
      "error_id": "INJ-SD1356-VS-016",
      "rule_id": "SD1356",
      "rule_message": "Missing TM dataset, when variable RELMIDS is present in a dataset",
      "category": "VI1 & VV1",
      "primitive": "add_column",
      "domain": "VS",
      "usubjid": null,
      "row_index": null,
      "csv_line": null,
      "seq_value": null,
      "variables_modified": {
        "RELMIDS": {
          "original": "absent",
          "injected": "IMMEDIATELY BEFORE"
        }
      },
      "re_derived": {},
      "expected_co_violations": [],
      "notes": null,
      "status": "injected",
      "failure_reason": null,
      "clean_row_index": null
    }
  ],
  "summary_by_rule": {
    "SD1215": 1,
    "SD1224": 1,
    "SD1311": 1,
    "SD2242": 1,
    "SD2247": 1,
    "SD1120": 11,
    "SD1251": 21,
    "CT2001": 87,
    "SD1356": 16
  },
  "summary_by_category": {
    "TS01": 3,
    "TS02I1/TS02V1": 1,
    "TS03": 1,
    "REL1": 11,
    "INT1": 21,
    "ALL1": 87,
    "VI1 & VV1": 16
  },
  "summary_by_domain": {
    "TS": 5,
    "SUPPAE": 11,
    "CM": 6,
    "EC": 37,
    "EX": 7,
    "SU": 4,
    "AE": 51,
    "LB": 6,
    "VS": 4,
    "DS": 1,
    "DV": 1,
    "HO": 1,
    "MH": 1,
    "DA": 1,
    "IE": 1,
    "PE": 1,
    "SC": 1,
    "SS": 1
  },
  "summary_status": {
    "injected": 140,
    "overwritten": 0,
    "failed_self_validation": 0
  },
  "warnings": [
    "Re-derivation skipped: ConformanceLayer not importable. Derived fields (--DY, EPOCH) may not reflect injected errors."
  ]
}