STUDYID,DOMAIN,USUBJID,HOSEQ,HOTERM,HODECOD,HOCAT,EPOCH,HOSTDTC,HOENDTC,HOSTDY,HOENDY
P261-402-USL261,HO,P261-402-USL261-USA_SITE01-0007,1,Dizziness,Dizziness,HOSPITALIZATION,TREATMENT,2024-12-03,2024-12-10,230,237
P261-402-USL261,HO,P261-402-USL261-USA_SITE01-0007,2,Rhinorrhoea,Rhinorrhoea,HOSPITALIZATION,TREATMENT,2025-08-15,2025-08-28,485,498
P261-402-USL261,HO,P261-402-USL261-USA_SITE01-0007,3,Somnolence,Somnolence,HOSPITALIZATION,TREATMENT,2026-10-13,2026-10-13,909,909
P261-402-USL261,HO,P261-402-USL261-USA_SITE02-0015,1,Dizziness,Dizziness,EMERGENCY ROOM VISIT,TREATMENT,2024-07-20,2024-07-20,144,144
P261-402-USL261,HO,P261-402-USL261-USA_SITE03-0018,1,Convulsion,Convulsion,EMERGENCY ROOM VISIT,TREATMENT,2024-05-04,2024-05-12,1,9
P261-402-USL261,HO,P261-402-USL261-USA_SITE05-0011,1,Convulsion,Convulsion,HOSPITALIZATION,TREATMENT,2024-04-28,2024-04-28,22,22
P261-402-USL261,HO,P261-402-USL261-USA_SITE06-0005,1,Convulsion,Convulsion,HOSPITALIZATION,TREATMENT,2024-04-08,2024-04-11,2,5
P261-402-USL261,HO,P261-402-USL261-USA_SITE06-0005,2,Headache,Headache,HOSPITALIZATION,TREATMENT,2024-04-29,2024-05-10,23,34
P261-402-USL261,HO,P261-402-USL261-USA_SITE06-0005,3,Nasal discomfort,Nasal discomfort,HOSPITALIZATION,TREATMENT,2024-07-27,2024-08-03,112,119
P261-402-USL261,HO,P261-402-USL261-USA_SITE06-0005,4,Headache,Headache,HOSPITALIZATION,TREATMENT,2024-12-04,2024-12-08,242,246
P261-402-USL261,HO,P261-402-USL261-USA_SITE06-0005,5,Rhinorrhoea,Rhinorrhoea,EMERGENCY ROOM VISIT,TREATMENT,2024-12-31,2025-01-18,269,287
P261-402-USL261,HO,P261-402-USL261-USA_SITE06-0005,6,Lacrimation increased,Lacrimation increased,HOSPITALIZATION,TREATMENT,2025-02-01,2025-02-16,301,316
P261-402-USL261,HO,P261-402-USL261-USA_SITE06-0017,1,Fatigue,Fatigue,EMERGENCY ROOM VISIT,TREATMENT,2024-06-20,2024-07-01,117,128
P261-402-USL261,HO,P261-402-USL261-USA_SITE09-0008,1,Headache,Headache,HOSPITALIZATION,TREATMENT,2025-01-18,2025-01-21,293,296
P261-402-USL261,HO,P261-402-USL261-USA_SITE09-0008,2,Nasal discomfort,Nasal discomfort,HOSPITALIZATION,TREATMENT,2026-07-24,2026-08-04,845,856
P261-402-USL261,HO,P261-402-USL261-USA_SITE09-0008,3,Somnolence,Somnolence,HOSPITALIZATION,TREATMENT,2027-05-22,2027-05-29,1147,1154
P261-402-USL261,HO,P261-402-USL261-USA_SITE09-0008,4,Fatigue,Fatigue,HOSPITALIZATION,TREATMENT,2027-05-29,2027-06-11,1154,1167
P261-402-USL261,HO,P261-402-USL261-USA_SITE12-0013,1,Somnolence,Somnolence,EMERGENCY ROOM VISIT,TREATMENT,2024-05-28,2024-05-28,46,46
P261-402-USL261,HO,P261-402-USL261-USA_SITE13-0002,1,Somnolence,Somnolence,HOSPITALIZATION,TREATMENT,2024-08-27,2024-08-31,125,129
P261-402-USL261,HO,P261-402-USL261-USA_SITE13-0002,2,Somnolence,Somnolence,EMERGENCY ROOM VISIT,TREATMENT,2026-09-15,2026-09-28,874,887
P261-402-USL261,HO,P261-402-USL261-USA_SITE15-0003,1,Nasal discomfort,Nasal discomfort,HOSPITALIZATION,TREATMENT,2025-03-26,2025-03-30,382,386
P261-402-USL261,HO,P261-402-USL261-USA_SITE15-0003,2,Nasal discomfort,Nasal discomfort,HOSPITALIZATION,TREATMENT,2025-04-08,2025-04-14,395,401
P261-402-USL261,HO,P261-402-USL261-USA_SITE15-0003,3,Somnolence,Somnolence,HOSPITALIZATION,TREATMENT,2025-04-17,2025-04-23,404,410
P261-402-USL261,HO,P261-402-USL261-USA_SITE15-0003,4,Rhinorrhoea,Rhinorrhoea,HOSPITALIZATION,TREATMENT,2026-01-20,2026-01-26,682,688
P261-402-USL261,HO,P261-402-USL261-USA_SITE15-0003,5,Somnolence,Somnolence,HOSPITALIZATION,TREATMENT,2026-07-04,2026-07-14,847,857
P261-402-USL261,HO,P261-402-USL261-USA_SITE15-0003,6,Headache,Headache,EMERGENCY ROOM VISIT,TREATMENT,2026-09-01,2026-09-17,906,922
P261-402-USL261,HO,P261-402-USL261-USA_SITE15-0003,7,Headache,Headache,HOSPITALIZATION,TREATMENT,2026-10-28,2026-11-06,963,972
P261-402-USL261,HO,P261-402-USL261-USA_SITE15-0003,8,Convulsion,Convulsion,HOSPITALIZATION,TREATMENT,2027-02-11,2027-02-14,1069,1072
P261-402-USL261,HO,P261-402-USL261-USA_SITE15-0003,9,Somnolence,Somnolence,EMERGENCY ROOM VISIT,TREATMENT,2027-08-27,2027-09-04,1266,1274
