STUDYID,DOMAIN,USUBJID,MHSEQ,MHTERM,MHDECOD,MHCAT,MHSCAT,MHBODSYS,EPOCH,MHSTDTC,MHENDTC,MHSTDY,MHENDY,MHENRF
P261-402-USL261,MH,P261-402-USL261-USA_SITE01-0007,1,HYPERTENSION,HYPERTENSION,CARDIOVASCULAR,,,SCREENING,1998-03-31,2005-01-03,-9515,-7045,BEFORE
P261-402-USL261,MH,P261-402-USL261-USA_SITE01-0019,1,ASTHMA,ASTHMA,RESPIRATORY,,,SCREENING,2015-01-22,2021-11-10,-3316,-832,BEFORE
P261-402-USL261,MH,P261-402-USL261-USA_SITE01-0019,2,GASTROESOPHAGEAL REFLUX DISEASE,GASTROESOPHAGEAL REFLUX DISEASE,GASTROINTESTINAL,,,SCREENING,2002-01-25,2016-09-10,-8061,-2719,BEFORE
P261-402-USL261,MH,P261-402-USL261-USA_SITE01-0019,3,HYPERLIPIDEMIA,HYPERLIPIDEMIA,METABOLIC,,,SCREENING,2007-01-24,,-6236,,DURING/AFTER
P261-402-USL261,MH,P261-402-USL261-USA_SITE02-0015,1,HYPERTENSION,HYPERTENSION,CARDIOVASCULAR,,,,2023-02,2023-12-10,-392,-80,BEFORE
P261-402-USL261,MH,P261-402-USL261-USA_SITE02-0020,1,HYPERTENSION,HYPERTENSION,CARDIOVASCULAR,,,SCREENING,1995-04-03,2019-11-20,-10603,-1606,BEFORE
P261-402-USL261,MH,P261-402-USL261-USA_SITE03-0006,1,HYPERTENSION,HYPERTENSION,CARDIOVASCULAR,,,SCREENING,2014-03-23,2023-08-07,-3677,-253,BEFORE
P261-402-USL261,MH,P261-402-USL261-USA_SITE03-0018,1,HYPERTENSION,HYPERTENSION,CARDIOVASCULAR,,,SCREENING,2009-04-16,2013-02-06,-5497,-4105,BEFORE
P261-402-USL261,MH,P261-402-USL261-USA_SITE05-0011,1,HYPERTENSION,HYPERTENSION,CARDIOVASCULAR,,,SCREENING,2006-03-31,,-6582,,DURING/AFTER
P261-402-USL261,MH,P261-402-USL261-USA_SITE06-0005,1,HYPERLIPIDEMIA,HYPERLIPIDEMIA,METABOLIC,,,,2022-03,,-744,,DURING/AFTER
P261-402-USL261,MH,P261-402-USL261-USA_SITE06-0017,1,HYPERTENSION,HYPERTENSION,CARDIOVASCULAR,,,SCREENING,2001-02-03,,-8422,,DURING/AFTER
P261-402-USL261,MH,P261-402-USL261-USA_SITE07-0012,1,HYPERLIPIDEMIA,HYPERLIPIDEMIA,METABOLIC,,,SCREENING,1996-03-26,2004-01-25,-10252,-7391,BEFORE
P261-402-USL261,MH,P261-402-USL261-USA_SITE09-0008,1,HYPERTENSION,HYPERTENSION,CARDIOVASCULAR,,,SCREENING,2006-03-06,,-6601,,DURING/AFTER
P261-402-USL261,MH,P261-402-USL261-USA_SITE12-0013,1,DIABETES MELLITUS TYPE 2,DIABETES MELLITUS TYPE 2,ENDOCRINE,,,,2012-03,,-4414,,DURING/AFTER
P261-402-USL261,MH,P261-402-USL261-USA_SITE12-0013,2,HYPERLIPIDEMIA,HYPERLIPIDEMIA,METABOLIC,,,SCREENING,1994-03-18,2019-12-28,-10984,-1568,BEFORE
P261-402-USL261,MH,P261-402-USL261-USA_SITE13-0002,1,HYPERTENSION,HYPERTENSION,CARDIOVASCULAR,,,SCREENING,2012-03-28,2014-07-20,-4411,-3567,BEFORE
P261-402-USL261,MH,P261-402-USL261-USA_SITE14-0001,1,HYPERTENSION,HYPERTENSION,CARDIOVASCULAR,,,SCREENING,2005-03-26,2015-09-25,-6942,-3107,BEFORE
P261-402-USL261,MH,P261-402-USL261-USA_SITE14-0010,1,DEPRESSION,DEPRESSION,PSYCHIATRIC,,,SCREENING,2001-03-19,2010-10-19,-8426,-4925,BEFORE
P261-402-USL261,MH,P261-402-USL261-USA_SITE14-0010,2,GASTROESOPHAGEAL REFLUX DISEASE,GASTROESOPHAGEAL REFLUX DISEASE,GASTROINTESTINAL,,,SCREENING,1996-03-20,2000-08-09,-10251,-8648,BEFORE
P261-402-USL261,MH,P261-402-USL261-USA_SITE14-0016,1,HYPERTENSION,HYPERTENSION,CARDIOVASCULAR,,,SCREENING,1997-04-06,2023-03-07,-9882,-416,BEFORE
P261-402-USL261,MH,P261-402-USL261-USA_SITE15-0003,1,GASTROESOPHAGEAL REFLUX DISEASE,GASTROESOPHAGEAL REFLUX DISEASE,GASTROINTESTINAL,,,SCREENING,2000-03-03,,-8773,,DURING/AFTER
P261-402-USL261,MH,P261-402-USL261-USA_SITE15-0004,1,HYPERTENSION,HYPERTENSION,CARDIOVASCULAR,,,SCREENING,2018-01-21,2019-12-26,-2203,-1499,BEFORE
