{"subject_id":"GB001-2001-CAN_SITE01-0019","study_id":"GB001-2001","generated_at":"2026-07-07T05:10:46.050338+00:00","sdtmig_version":"3.4","flags":{"has_serious_ae":false,"has_fatal_ae":false,"has_protocol_deviation":true,"n_protocol_deviations":12,"n_adverse_events":2,"n_concomitant_meds":2,"max_ae_severity":"MILD","screen_failure":false,"discontinued_early":false,"discontinuation_reason":null,"death":false,"exposure_days":99},"timeline":[{"dtc":"2015-02-14","dy":"-3314","event":"CM START: AMOXICILLIN","domain":"CM","category":"concomitant_med"},{"dtc":"2023-12-18","dy":"-85","event":"VISIT: SCREENING","domain":"SV","category":"visit"},{"dtc":"2024-01-19","dy":"-53","event":"VISIT: RUN-IN START","domain":"SV","category":"visit"},{"dtc":"2024-02-12","dy":"-29","event":"INFORMED CONSENT OBTAINED","domain":"DS","category":"milestone"},{"dtc":"2024-03-12","dy":"1","event":"RANDOMIZED","domain":"DS","category":"milestone"},{"dtc":"2024-03-12","dy":"1","event":"FIRST DOSE: PLACEBO","domain":"EX","category":"exposure"},{"dtc":"2024-03-12","dy":"1","event":"VISIT: RANDOMIZATION","domain":"SV","category":"visit"},{"dtc":"2024-03-26","dy":"15","event":"DEVIATION: VISIT OCCURRED OUTSIDE VISIT WINDOW","domain":"DV","category":"deviation"},{"dtc":"2024-03-26","dy":"15","event":"VISIT: WEEK 2","domain":"SV","category":"visit"},{"dtc":"2024-03-30","dy":"19","event":"DEVIATION: MISSED DOSE","domain":"DV","category":"deviation"},{"dtc":"2024-04-04","dy":"24","event":"DEVIATION: MISSED DOSE","domain":"DV","category":"deviation"},{"dtc":"2024-04-07","dy":"27","event":"VISIT: WEEK 4","domain":"SV","category":"visit"},{"dtc":"2024-04-23","dy":"43","event":"AE: Nasopharyngitis (MILD)","domain":"AE","category":"adverse_event"},{"dtc":"2024-04-23","dy":"43","event":"CM START: PARACETAMOL","domain":"CM","category":"concomitant_med"},{"dtc":"2024-05-02","dy":"52","event":"DEVIATION: MISSED DOSE","domain":"DV","category":"deviation"},{"dtc":"2024-05-06","dy":"56","event":"DEVIATION: MISSED DOSE","domain":"DV","category":"deviation"},{"dtc":"2024-05-10","dy":"60","event":"DEVIATION: VISIT OCCURRED OUTSIDE VISIT WINDOW","domain":"DV","category":"deviation"},{"dtc":"2024-05-10","dy":"60","event":"VISIT: WEEK 8","domain":"SV","category":"visit"},{"dtc":"2024-05-29","dy":"79","event":"DEVIATION: MISSED DOSE","domain":"DV","category":"deviation"},{"dtc":"2024-05-30","dy":"80","event":"DEVIATION: MISSED DOSE","domain":"DV","category":"deviation"},{"dtc":"2024-05-31","dy":"81","event":"VISIT: WEEK 12","domain":"SV","category":"visit"},{"dtc":"2024-06-11","dy":"92","event":"DEVIATION: MISSED DOSE","domain":"DV","category":"deviation"},{"dtc":"2024-06-17","dy":"98","event":"DEVIATION: MISSED DOSE","domain":"DV","category":"deviation"},{"dtc":"2024-07-05","dy":"116","event":"DEVIATION: VISIT OCCURRED OUTSIDE VISIT WINDOW","domain":"DV","category":"deviation"},{"dtc":"2024-07-05","dy":"116","event":"VISIT: WEEK 16","domain":"SV","category":"visit"},{"dtc":"2024-07-10","dy":"121","event":"AE: Nasopharyngitis (MILD)","domain":"AE","category":"adverse_event"},{"dtc":"2024-07-25","dy":"136","event":"DEVIATION: VISIT OCCURRED OUTSIDE VISIT WINDOW","domain":"DV","category":"deviation"},{"dtc":"2024-07-25","dy":"136","event":"VISIT: WEEK 20","domain":"SV","category":"visit"},{"dtc":"2024-08-29","dy":"171","event":"VISIT: WEEK 24 EOT","domain":"SV","category":"visit"},{"dtc":"2024-09-29","dy":"202","event":"VISIT: WEEK 28 SAFETY FU","domain":"SV","category":"visit"},{"dtc":"2024-11-04","dy":"238","event":"COMPLETED","domain":"DS","category":"milestone"}],"section_1_demographics":{"usubjid":"GB001-2001-CAN_SITE01-0019","subjid":"0019","siteid":"CAN_SITE01","age":"31","ageu":"YEARS","sex":"M","race":"WHITE","ethnicity":"NOT HISPANIC OR LATINO","country":"CAN","arm":"Matching placebo QD","armcd":"PLACEBO","actarm":"Matching placebo QD","actarmcd":"PLACEBO","randomization_date":null,"informed_consent_date":"2024-02-12","reference_start_date":"2024-03-12","reference_end_date":"2024-11-04","screen_failure":false,"death_flag":null,"death_date":null,"subject_characteristics":[{"testcd":"ALCUSE","test":"Alcohol Use","orres":"NON-DRINKER","stresc":"NON-DRINKER","visit":null,"dtc":"2024-02-12"},{"testcd":"BMI","test":"Body Mass Index","orres":"21.5","stresc":"21.5","visit":null,"dtc":"2024-02-12"},{"testcd":"DURDIS","test":"Duration of Disease","orres":"109 months","stresc":"109","visit":null,"dtc":"2024-02-12"},{"testcd":"TOBUSE","test":"Tobacco Use","orres":"NEVER SMOKED","stresc":"NEVER SMOKED","visit":null,"dtc":"2024-02-12"}]},"section_2_medical_history":{"items":[{"seq":"1","term":"SINUSITIS","decod":"SINUSITIS","cat":"RESPIRATORY","scat":null,"presp":null,"occur":null,"status":null,"onset_dtc":"2015-02-14","end_dtc":null,"visit":null}]},"section_3_inclusion_exclusion":{"criteria":[]},"section_4_trial_participation":{"visits":[{"visitnum":"1.0","visit":"SCREENING","start_dtc":"2023-12-18","end_dtc":"2023-12-18","updes":null},{"visitnum":"2.0","visit":"RUN-IN START","start_dtc":"2024-01-19","end_dtc":"2024-01-19","updes":null},{"visitnum":"3.0","visit":"RANDOMIZATION","start_dtc":"2024-03-12","end_dtc":"2024-03-12","updes":null},{"visitnum":"4.0","visit":"WEEK 2","start_dtc":"2024-03-26","end_dtc":"2024-03-26","updes":null},{"visitnum":"5.0","visit":"WEEK 4","start_dtc":"2024-04-07","end_dtc":"2024-04-07","updes":null},{"visitnum":"6.0","visit":"WEEK 8","start_dtc":"2024-05-10","end_dtc":"2024-05-10","updes":null},{"visitnum":"7.0","visit":"WEEK 12","start_dtc":"2024-05-31","end_dtc":"2024-05-31","updes":null},{"visitnum":"8.0","visit":"WEEK 16","start_dtc":"2024-07-05","end_dtc":"2024-07-05","updes":null},{"visitnum":"9.0","visit":"WEEK 20","start_dtc":"2024-07-25","end_dtc":"2024-07-25","updes":null},{"visitnum":"10.0","visit":"WEEK 24 EOT","start_dtc":"2024-08-29","end_dtc":"2024-08-29","updes":null},{"visitnum":"11.0","visit":"WEEK 28 SAFETY FU","start_dtc":"2024-09-29","end_dtc":"2024-09-29","updes":null}],"epochs":[{"seq":"1","etcd":"SCRN","element":"Screening","start_dtc":"2024-02-27","end_dtc":"2024-03-12","updes":null},{"seq":"2","etcd":"RUNIN","element":"eDiary run-in","start_dtc":"2024-03-12","end_dtc":"2024-04-09","updes":null},{"seq":"3","etcd":"TRT","element":"Treatment","start_dtc":"2024-04-09","end_dtc":"2024-09-24","updes":null},{"seq":"4","etcd":"FU","element":"Safety follow-up","start_dtc":"2024-09-24","end_dtc":"2024-10-21","updes":null}],"visit_count":11},"section_5_concomitant_medications":{"medications":[{"seq":"1","trt":"AMOXICILLIN","decod":"AMOXICILLIN","cat":"PRIOR","dose":"500.0","doseu":null,"dosef":"TID","route":"ORAL","indication":"SINUSITIS","start_dtc":"2015-02-14","end_dtc":"2024-11-04","ongoing":null,"visit":null},{"seq":"2","trt":"PARACETAMOL","decod":"PARACETAMOL","cat":"CONCOMITANT","dose":"500","doseu":null,"dosef":"PRN","route":"ORAL","indication":"NASOPHARYNGITIS","start_dtc":"2024-04-23","end_dtc":"2024-05-23","ongoing":null,"visit":null}]},"section_6_exposure":{"exposure_as_administered":[{"seq":"1","trt":"PLACEBO","dose":"0.0","doseu":null,"dosef":"QD","route":"ORAL","lot":null,"start_dtc":"2024-03-12","end_dtc":"2024-06-19","start_dy":"1","end_dy":"100","epoch":"RUN_IN","visit":null}],"exposure_as_collected":[{"seq":"1","trt":"PLACEBO","dose":null,"doseu":null,"dosef":"QD","route":"ORAL","start_dtc":"2024-03-12","end_dtc":"2024-03-12","visit":"RANDOMIZATION"},{"seq":"2","trt":"PLACEBO","dose":null,"doseu":null,"dosef":"QD","route":"ORAL","start_dtc":"2024-03-13","end_dtc":"2024-03-13","visit":"RANDOMIZATION"},{"seq":"3","trt":"PLACEBO","dose":null,"doseu":null,"dosef":"QD","route":"ORAL","start_dtc":"2024-03-14","end_dtc":"2024-03-14","visit":"RANDOMIZATION"},{"seq":"4","trt":"PLACEBO","dose":null,"doseu":null,"dosef":"QD","route":"ORAL","start_dtc":"2024-03-15","end_dtc":"2024-03-15","visit":"RANDOMIZATION"},{"seq":"5","trt":"PLACEBO","dose":null,"doseu":null,"dosef":"QD","route":"ORAL","start_dtc":"2024-03-16","end_dtc":"2024-03-16","visit":null},{"seq":"6","trt":"PLACEBO","dose":null,"doseu":null,"dosef":"QD","route":"ORAL","start_dtc":"2024-03-17","end_dtc":"2024-03-17","visit":null},{"seq":"7","trt":"PLACEBO","dose":null,"doseu":null,"dosef":"QD","route":"ORAL","start_dtc":"2024-03-18","end_dtc":"2024-03-18","visit":null},{"seq":"8","trt":"PLACEBO","dose":null,"doseu":null,"dosef":"QD","route":"ORAL","start_dtc":"2024-03-19","end_dtc":"2024-03-19","visit":null},{"seq":"9","trt":"PLACEBO","dose":null,"doseu":null,"dosef":"QD","route":"ORAL","start_dtc":"2024-03-20","end_dtc":"2024-03-20","visit":null},{"seq":"10","trt":"PLACEBO","dose":null,"doseu":null,"dosef":"QD","route":"ORAL","start_dtc":"2024-03-21","end_dtc":"2024-03-21","visit":null},{"seq":"11","trt":"PLACEBO","dose":null,"doseu":null,"dosef":"QD","route":"ORAL","start_dtc":"2024-03-22","end_dtc":"2024-03-22","visit":null},{"seq":"12","trt":"PLACEBO","dose":null,"doseu":null,"dosef":"QD","route":"ORAL","start_dtc":"2024-03-23","end_dtc":"2024-03-23","visit":"WEEK 2"},{"seq":"13","trt":"PLACEBO","dose":null,"doseu":null,"dosef":"QD","route":"ORAL","start_dtc":"2024-03-24","end_dtc":"2024-03-24","visit":"WEEK 2"},{"seq":"14","trt":"PLACEBO","dose":null,"doseu":null,"dosef":"QD","route":"ORAL","start_dtc":"2024-03-25","end_dtc":"2024-03-25","visit":"WEEK 2"},{"seq":"15","trt":"PLACEBO","dose":null,"doseu":null,"dosef":"QD","route":"ORAL","start_dtc":"2024-03-26","end_dtc":"2024-03-26","visit":"WEEK 2"},{"seq":"16","trt":"PLACEBO","dose":null,"doseu":null,"dosef":"QD","route":"ORAL","start_dtc":"2024-03-27","end_dtc":"2024-03-27","visit":"WEEK 2"},{"seq":"17","trt":"PLACEBO","dose":null,"doseu":null,"dosef":"QD","route":"ORAL","start_dtc":"2024-03-28","end_dtc":"2024-03-28","visit":"WEEK 2"},{"seq":"18","trt":"PLACEBO","dose":null,"doseu":null,"dosef":"QD","route":"ORAL","start_dtc":"2024-03-29","end_dtc":"2024-03-29","visit":"WEEK 2"},{"seq":"19","trt":"PLACEBO","dose":null,"doseu":null,"dosef":"QD","route":"ORAL","start_dtc":"2024-03-30","end_dtc":"2024-03-30","visit":null},{"seq":"20","trt":"PLACEBO","dose":null,"doseu":null,"dosef":"QD","route":"ORAL","start_dtc":"2024-03-31","end_dtc":"2024-03-31","visit":null},{"seq":"21","trt":"PLACEBO","dose":null,"doseu":null,"dosef":"QD","route":"ORAL","start_dtc":"2024-04-01","end_dtc":"2024-04-01","visit":null},{"seq":"22","trt":"PLACEBO","dose":null,"doseu":null,"dosef":"QD","route":"ORAL","start_dtc":"2024-04-02","end_dtc":"2024-04-02","visit":null},{"seq":"23","trt":"PLACEBO","dose":null,"doseu":null,"dosef":"QD","route":"ORAL","start_dtc":"2024-04-03","end_dtc":"2024-04-03","visit":null},{"seq":"24","trt":"PLACEBO","dose":null,"doseu":null,"dosef":"QD","route":"ORAL","start_dtc":"2024-04-04","end_dtc":"2024-04-04","visit":null},{"seq":"25","trt":"PLACEBO","dose":null,"doseu":null,"dosef":"QD","route":"ORAL","start_dtc":"2024-04-05","end_dtc":"2024-04-05","visit":null},{"seq":"26","trt":"PLACEBO","dose":null,"doseu":null,"dosef":"QD","route":"ORAL","start_dtc":"2024-04-06","end_dtc":"2024-04-06","visit":"WEEK 4"},{"seq":"27","trt":"PLACEBO","dose":null,"doseu":null,"dosef":"QD","route":"ORAL","start_dtc":"2024-04-07","end_dtc":"2024-04-07","visit":"WEEK 4"},{"seq":"28","trt":"PLACEBO","dose":null,"doseu":null,"dosef":"QD","route":"ORAL","start_dtc":"2024-04-08","end_dtc":"2024-04-08","visit":"WEEK 4"},{"seq":"29","trt":"PLACEBO","dose":null,"doseu":null,"dosef":"QD","route":"ORAL","start_dtc":"2024-04-09","end_dtc":"2024-04-09","visit":"WEEK 4"},{"seq":"30","trt":"PLACEBO","dose":null,"doseu":null,"dosef":"QD","route":"ORAL","start_dtc":"2024-04-10","end_dtc":"2024-04-10","visit":"WEEK 4"},{"seq":"31","trt":"PLACEBO","dose":null,"doseu":null,"dosef":"QD","route":"ORAL","start_dtc":"2024-04-11","end_dtc":"2024-04-11","visit":"WEEK 4"},{"seq":"32","trt":"PLACEBO","dose":null,"doseu":null,"dosef":"QD","route":"ORAL","start_dtc":"2024-04-12","end_dtc":"2024-04-12","visit":"WEEK 4"},{"seq":"33","trt":"PLACEBO","dose":null,"doseu":null,"dosef":"QD","route":"ORAL","start_dtc":"2024-04-13","end_dtc":"2024-04-13","visit":null},{"seq":"34","trt":"PLACEBO","dose":null,"doseu":null,"dosef":"QD","route":"ORAL","start_dtc":"2024-04-14","end_dtc":"2024-04-14","visit":null},{"seq":"35","trt":"PLACEBO","dose":null,"doseu":null,"dosef":"QD","route":"ORAL","start_dtc":"2024-04-15","end_dtc":"2024-04-15","visit":null},{"seq":"36","trt":"PLACEBO","dose":null,"doseu":null,"dosef":"QD","route":"ORAL","start_dtc":"2024-04-16","end_dtc":"2024-04-16","visit":null},{"seq":"37","trt":"PLACEBO","dose":null,"doseu":null,"dosef":"QD","route":"ORAL","start_dtc":"2024-04-17","end_dtc":"2024-04-17","visit":null},{"seq":"38","trt":"PLACEBO","dose":null,"doseu":null,"dosef":"QD","route":"ORAL","start_dtc":"2024-04-18","end_dtc":"2024-04-18","visit":null},{"seq":"39","trt":"PLACEBO","dose":null,"doseu":null,"dosef":"QD","route":"ORAL","start_dtc":"2024-04-19","end_dtc":"2024-04-19","visit":null},{"seq":"40","trt":"PLACEBO","dose":null,"doseu":null,"dosef":"QD","route":"ORAL","start_dtc":"2024-04-20","end_dtc":"2024-04-20","visit":null},{"seq":"41","trt":"PLACEBO","dose":null,"doseu":null,"dosef":"QD","route":"ORAL","start_dtc":"2024-04-21","end_dtc":"2024-04-21","visit":null},{"seq":"42","trt":"PLACEBO","dose":null,"doseu":null,"dosef":"QD","route":"ORAL","start_dtc":"2024-04-22","end_dtc":"2024-04-22","visit":null},{"seq":"43","trt":"PLACEBO","dose":null,"doseu":null,"dosef":"QD","route":"ORAL","start_dtc":"2024-04-23","end_dtc":"2024-04-23","visit":null},{"seq":"44","trt":"PLACEBO","dose":null,"doseu":null,"dosef":"QD","route":"ORAL","start_dtc":"2024-04-24","end_dtc":"2024-04-24","visit":null},{"seq":"45","trt":"PLACEBO","dose":null,"doseu":null,"dosef":"QD","route":"ORAL","start_dtc":"2024-04-25","end_dtc":"2024-04-25","visit":null},{"seq":"46","trt":"PLACEBO","dose":null,"doseu":null,"dosef":"QD","route":"ORAL","start_dtc":"2024-04-26","end_dtc":"2024-04-26","visit":null},{"seq":"47","trt":"PLACEBO","dose":null,"doseu":null,"dosef":"QD","route":"ORAL","start_dtc":"2024-04-27","end_dtc":"2024-04-27","visit":null},{"seq":"48","trt":"PLACEBO","dose":null,"doseu":null,"dosef":"QD","route":"ORAL","start_dtc":"2024-04-28","end_dtc":"2024-04-28","visit":null},{"seq":"49","trt":"PLACEBO","dose":null,"doseu":null,"dosef":"QD","route":"ORAL","start_dtc":"2024-04-29","end_dtc":"2024-04-29","visit":null},{"seq":"50","trt":"PLACEBO","dose":null,"doseu":null,"dosef":"QD","route":"ORAL","start_dtc":"2024-04-30","end_dtc":"2024-04-30","visit":null},{"seq":"51","trt":"PLACEBO","dose":null,"doseu":null,"dosef":"QD","route":"ORAL","start_dtc":"2024-05-01","end_dtc":"2024-05-01","visit":null},{"seq":"52","trt":"PLACEBO","dose":null,"doseu":null,"dosef":"QD","route":"ORAL","start_dtc":"2024-05-02","end_dtc":"2024-05-02","visit":null},{"seq":"53","trt":"PLACEBO","dose":null,"doseu":null,"dosef":"QD","route":"ORAL","start_dtc":"2024-05-03","end_dtc":"2024-05-03","visit":null},{"seq":"54","trt":"PLACEBO","dose":null,"doseu":null,"dosef":"QD","route":"ORAL","start_dtc":"2024-05-04","end_dtc":"2024-05-04","visit":"WEEK 8"},{"seq":"55","trt":"PLACEBO","dose":null,"doseu":null,"dosef":"QD","route":"ORAL","start_dtc":"2024-05-05","end_dtc":"2024-05-05","visit":"WEEK 8"},{"seq":"56","trt":"PLACEBO","dose":null,"doseu":null,"dosef":"QD","route":"ORAL","start_dtc":"2024-05-06","end_dtc":"2024-05-06","visit":"WEEK 8"},{"seq":"57","trt":"PLACEBO","dose":null,"doseu":null,"dosef":"QD","route":"ORAL","start_dtc":"2024-05-07","end_dtc":"2024-05-07","visit":"WEEK 8"},{"seq":"58","trt":"PLACEBO","dose":null,"doseu":null,"dosef":"QD","route":"ORAL","start_dtc":"2024-05-08","end_dtc":"2024-05-08","visit":"WEEK 8"},{"seq":"59","trt":"PLACEBO","dose":null,"doseu":null,"dosef":"QD","route":"ORAL","start_dtc":"2024-05-09","end_dtc":"2024-05-09","visit":"WEEK 8"},{"seq":"60","trt":"PLACEBO","dose":null,"doseu":null,"dosef":"QD","route":"ORAL","start_dtc":"2024-05-10","end_dtc":"2024-05-10","visit":"WEEK 8"},{"seq":"61","trt":"PLACEBO","dose":null,"doseu":null,"dosef":"QD","route":"ORAL","start_dtc":"2024-05-11","end_dtc":"2024-05-11","visit":null},{"seq":"62","trt":"PLACEBO","dose":null,"doseu":null,"dosef":"QD","route":"ORAL","start_dtc":"2024-05-12","end_dtc":"2024-05-12","visit":null},{"seq":"63","trt":"PLACEBO","dose":null,"doseu":null,"dosef":"QD","route":"ORAL","start_dtc":"2024-05-13","end_dtc":"2024-05-13","visit":null},{"seq":"64","trt":"PLACEBO","dose":null,"doseu":null,"dosef":"QD","route":"ORAL","start_dtc":"2024-05-14","end_dtc":"2024-05-14","visit":null},{"seq":"65","trt":"PLACEBO","dose":null,"doseu":null,"dosef":"QD","route":"ORAL","start_dtc":"2024-05-15","end_dtc":"2024-05-15","visit":null},{"seq":"66","trt":"PLACEBO","dose":null,"doseu":null,"dosef":"QD","route":"ORAL","start_dtc":"2024-05-16","end_dtc":"2024-05-16","visit":null},{"seq":"67","trt":"PLACEBO","dose":null,"doseu":null,"dosef":"QD","route":"ORAL","start_dtc":"2024-05-17","end_dtc":"2024-05-17","visit":null},{"seq":"68","trt":"PLACEBO","dose":null,"doseu":null,"dosef":"QD","route":"ORAL","start_dtc":"2024-05-18","end_dtc":"2024-05-18","visit":null},{"seq":"69","trt":"PLACEBO","dose":null,"doseu":null,"dosef":"QD","route":"ORAL","start_dtc":"2024-05-19","end_dtc":"2024-05-19","visit":null},{"seq":"70","trt":"PLACEBO","dose":null,"doseu":null,"dosef":"QD","route":"ORAL","start_dtc":"2024-05-20","end_dtc":"2024-05-20","visit":null},{"seq":"71","trt":"PLACEBO","dose":null,"doseu":null,"dosef":"QD","route":"ORAL","start_dtc":"2024-05-21","end_dtc":"2024-05-21","visit":null},{"seq":"72","trt":"PLACEBO","dose":null,"doseu":null,"dosef":"QD","route":"ORAL","start_dtc":"2024-05-22","end_dtc":"2024-05-22","visit":null},{"seq":"73","trt":"PLACEBO","dose":null,"doseu":null,"dosef":"QD","route":"ORAL","start_dtc":"2024-05-23","end_dtc":"2024-05-23","visit":null},{"seq":"74","trt":"PLACEBO","dose":null,"doseu":null,"dosef":"QD","route":"ORAL","start_dtc":"2024-05-24","end_dtc":"2024-05-24","visit":null},{"seq":"75","trt":"PLACEBO","dose":null,"doseu":null,"dosef":"QD","route":"ORAL","start_dtc":"2024-05-25","end_dtc":"2024-05-25","visit":null},{"seq":"76","trt":"PLACEBO","dose":null,"doseu":null,"dosef":"QD","route":"ORAL","start_dtc":"2024-05-26","end_dtc":"2024-05-26","visit":null},{"seq":"77","trt":"PLACEBO","dose":null,"doseu":null,"dosef":"QD","route":"ORAL","start_dtc":"2024-05-27","end_dtc":"2024-05-27","visit":null},{"seq":"78","trt":"PLACEBO","dose":null,"doseu":null,"dosef":"QD","route":"ORAL","start_dtc":"2024-05-28","end_dtc":"2024-05-28","visit":null},{"seq":"79","trt":"PLACEBO","dose":null,"doseu":null,"dosef":"QD","route":"ORAL","start_dtc":"2024-05-29","end_dtc":"2024-05-29","visit":null},{"seq":"80","trt":"PLACEBO","dose":null,"doseu":null,"dosef":"QD","route":"ORAL","start_dtc":"2024-05-30","end_dtc":"2024-05-30","visit":null},{"seq":"81","trt":"PLACEBO","dose":null,"doseu":null,"dosef":"QD","route":"ORAL","start_dtc":"2024-05-31","end_dtc":"2024-05-31","visit":null},{"seq":"82","trt":"PLACEBO","dose":null,"doseu":null,"dosef":"QD","route":"ORAL","start_dtc":"2024-06-01","end_dtc":"2024-06-01","visit":"WEEK 12"},{"seq":"83","trt":"PLACEBO","dose":null,"doseu":null,"dosef":"QD","route":"ORAL","start_dtc":"2024-06-02","end_dtc":"2024-06-02","visit":"WEEK 12"},{"seq":"84","trt":"PLACEBO","dose":null,"doseu":null,"dosef":"QD","route":"ORAL","start_dtc":"2024-06-03","end_dtc":"2024-06-03","visit":"WEEK 12"},{"seq":"85","trt":"PLACEBO","dose":null,"doseu":null,"dosef":"QD","route":"ORAL","start_dtc":"2024-06-04","end_dtc":"2024-06-04","visit":"WEEK 12"},{"seq":"86","trt":"PLACEBO","dose":null,"doseu":null,"dosef":"QD","route":"ORAL","start_dtc":"2024-06-05","end_dtc":"2024-06-05","visit":"WEEK 12"},{"seq":"87","trt":"PLACEBO","dose":null,"doseu":null,"dosef":"QD","route":"ORAL","start_dtc":"2024-06-06","end_dtc":"2024-06-06","visit":"WEEK 12"},{"seq":"88","trt":"PLACEBO","dose":null,"doseu":null,"dosef":"QD","route":"ORAL","start_dtc":"2024-06-07","end_dtc":"2024-06-07","visit":"WEEK 12"},{"seq":"89","trt":"PLACEBO","dose":null,"doseu":null,"dosef":"QD","route":"ORAL","start_dtc":"2024-06-08","end_dtc":"2024-06-08","visit":null},{"seq":"90","trt":"PLACEBO","dose":null,"doseu":null,"dosef":"QD","route":"ORAL","start_dtc":"2024-06-09","end_dtc":"2024-06-09","visit":null},{"seq":"91","trt":"PLACEBO","dose":null,"doseu":null,"dosef":"QD","route":"ORAL","start_dtc":"2024-06-10","end_dtc":"2024-06-10","visit":null},{"seq":"92","trt":"PLACEBO","dose":null,"doseu":null,"dosef":"QD","route":"ORAL","start_dtc":"2024-06-11","end_dtc":"2024-06-11","visit":null},{"seq":"93","trt":"PLACEBO","dose":null,"doseu":null,"dosef":"QD","route":"ORAL","start_dtc":"2024-06-12","end_dtc":"2024-06-12","visit":null},{"seq":"94","trt":"PLACEBO","dose":null,"doseu":null,"dosef":"QD","route":"ORAL","start_dtc":"2024-06-13","end_dtc":"2024-06-13","visit":null},{"seq":"95","trt":"PLACEBO","dose":null,"doseu":null,"dosef":"QD","route":"ORAL","start_dtc":"2024-06-14","end_dtc":"2024-06-14","visit":null},{"seq":"96","trt":"PLACEBO","dose":null,"doseu":null,"dosef":"QD","route":"ORAL","start_dtc":"2024-06-15","end_dtc":"2024-06-15","visit":null},{"seq":"97","trt":"PLACEBO","dose":null,"doseu":null,"dosef":"QD","route":"ORAL","start_dtc":"2024-06-16","end_dtc":"2024-06-16","visit":null},{"seq":"98","trt":"PLACEBO","dose":null,"doseu":null,"dosef":"QD","route":"ORAL","start_dtc":"2024-06-17","end_dtc":"2024-06-17","visit":null},{"seq":"99","trt":"PLACEBO","dose":null,"doseu":null,"dosef":"QD","route":"ORAL","start_dtc":"2024-06-18","end_dtc":"2024-06-18","visit":null},{"seq":"100","trt":"PLACEBO","dose":null,"doseu":null,"dosef":"QD","route":"ORAL","start_dtc":"2024-06-19","end_dtc":"2024-06-19","visit":null}]},"section_7_adverse_events":{"summary":{"total_aes":2,"serious_aes":0,"fatal_aes":0,"by_severity":{"MILD":2},"by_soc":{"Infections and infestations":2}},"events":[{"seq":"1","term":"NASOPHARYNGITIS","decod":"Nasopharyngitis","llt":"Nasopharyngitis","hlt":"Upper respiratory tract infections","hlgt":"Upper respiratory tract infections","soc":"Infections and infestations","bodsys":"Infections and infestations","severity":"MILD","serious":"N","causality":"UNLIKELY RELATED","action_taken":"DOSE NOT CHANGED","outcome":"RECOVERING/RESOLVING","fatal":"N","hospitalization":"N","life_threatening":"N","onset_dtc":"2024-04-23","end_dtc":"2024-05-06","onset_dy":"43","end_dy":"56","duration":null,"epoch":"TREATMENT","visit":null,"supplemental":{"AETRTEM":"Y"}},{"seq":"2","term":"NASOPHARYNGITIS","decod":"Nasopharyngitis","llt":"Nasopharyngitis","hlt":"Upper respiratory tract infections","hlgt":"Upper respiratory tract infections","soc":"Infections and infestations","bodsys":"Infections and infestations","severity":"MILD","serious":"N","causality":"UNLIKELY RELATED","action_taken":"DOSE NOT CHANGED","outcome":"NOT RECOVERED/NOT RESOLVED","fatal":"N","hospitalization":"N","life_threatening":"N","onset_dtc":"2024-07-10","end_dtc":null,"onset_dy":"121","end_dy":null,"duration":null,"epoch":"TREATMENT","visit":null,"supplemental":{"AETRTEM":"Y"}}]},"section_8_laboratory_results":{"summary":{"total_records":63,"abnormal_count":3,"abnormal_pct":4.8},"shift_summary":[{"testcd":"ALT","baseline_value":34.03,"baseline_nrind":"NORMAL","worst_post_baseline_value":35.84,"worst_post_baseline_nrind":"NORMAL","worst_visit":"WEEK 28 SAFETY FU"},{"testcd":"AST","baseline_value":23.14,"baseline_nrind":"NORMAL","worst_post_baseline_value":27.18,"worst_post_baseline_nrind":"NORMAL","worst_visit":"WEEK 16"},{"testcd":"CREAT","baseline_value":106.4,"baseline_nrind":"HIGH","worst_post_baseline_value":109.77,"worst_post_baseline_nrind":"HIGH","worst_visit":"WEEK 28 SAFETY FU"},{"testcd":"GLUC","baseline_value":5.22,"baseline_nrind":"NORMAL","worst_post_baseline_value":5.19,"worst_post_baseline_nrind":"NORMAL","worst_visit":"WEEK 16"},{"testcd":"HGB","baseline_value":140.8,"baseline_nrind":"NORMAL","worst_post_baseline_value":136.95,"worst_post_baseline_nrind":"NORMAL","worst_visit":"WEEK 28 SAFETY FU"},{"testcd":"PLAT","baseline_value":377.6,"baseline_nrind":"NORMAL","worst_post_baseline_value":385.33,"worst_post_baseline_nrind":"NORMAL","worst_visit":"WEEK 16"},{"testcd":"WBC","baseline_value":8.21,"baseline_nrind":"NORMAL","worst_post_baseline_value":8.94,"worst_post_baseline_nrind":"NORMAL","worst_visit":"WEEK 4"}],"results":[{"seq":"1","testcd":"ALT","test":"Alanine Aminotransferase","cat":"CHEMISTRY","orres":"34.03","orresu":"U/L","stresc":"34.03","stresn":"34.03","stresu":"U/L","stnrlo":"7","stnrhi":"56","nrind":"NORMAL","fast":null,"dtc":"2023-12-18","dy":"-85","visit":"SCREENING","visitnum":"1.0","epoch":"SCREENING","spec":null,"method":null},{"seq":"2","testcd":"AST","test":"Aspartate Aminotransferase","cat":"CHEMISTRY","orres":"23.14","orresu":"U/L","stresc":"23.14","stresn":"23.14","stresu":"U/L","stnrlo":"10","stnrhi":"40","nrind":"NORMAL","fast":null,"dtc":"2023-12-18","dy":"-85","visit":"SCREENING","visitnum":"1.0","epoch":"SCREENING","spec":null,"method":null},{"seq":"3","testcd":"CREAT","test":"Creatinine","cat":"CHEMISTRY","orres":"106.4","orresu":"umol/L","stresc":"106.4","stresn":"106.4","stresu":"umol/L","stnrlo":"62","stnrhi":"106","nrind":"HIGH","fast":null,"dtc":"2023-12-18","dy":"-85","visit":"SCREENING","visitnum":"1.0","epoch":"SCREENING","spec":null,"method":null},{"seq":"4","testcd":"GLUC","test":"Glucose","cat":"CHEMISTRY","orres":"5.22","orresu":"mmol/L","stresc":"5.22","stresn":"5.22","stresu":"mmol/L","stnrlo":"3.9","stnrhi":"5.6","nrind":"NORMAL","fast":null,"dtc":"2023-12-18","dy":"-85","visit":"SCREENING","visitnum":"1.0","epoch":"SCREENING","spec":null,"method":null},{"seq":"5","testcd":"HGB","test":"Hemoglobin","cat":"HEMATOLOGY","orres":"140.8","orresu":"g/L","stresc":"140.8","stresn":"140.8","stresu":"g/L","stnrlo":"130","stnrhi":"175","nrind":"NORMAL","fast":null,"dtc":"2023-12-18","dy":"-85","visit":"SCREENING","visitnum":"1.0","epoch":"SCREENING","spec":null,"method":null},{"seq":"6","testcd":"PLAT","test":"Platelets","cat":"HEMATOLOGY","orres":"377.6","orresu":"10^9/L","stresc":"377.6","stresn":"377.6","stresu":"10^9/L","stnrlo":"150","stnrhi":"400","nrind":"NORMAL","fast":null,"dtc":"2023-12-18","dy":"-85","visit":"SCREENING","visitnum":"1.0","epoch":"SCREENING","spec":null,"method":null},{"seq":"7","testcd":"WBC","test":"Leukocytes","cat":"HEMATOLOGY","orres":"8.21","orresu":"10^9/L","stresc":"8.21","stresn":"8.21","stresu":"10^9/L","stnrlo":"4.0","stnrhi":"11.0","nrind":"NORMAL","fast":null,"dtc":"2023-12-18","dy":"-85","visit":"SCREENING","visitnum":"1.0","epoch":"SCREENING","spec":null,"method":null},{"seq":"8","testcd":"ALT","test":"Alanine Aminotransferase","cat":"CHEMISTRY","orres":"30.8","orresu":"U/L","stresc":"30.8","stresn":"30.8","stresu":"U/L","stnrlo":"7","stnrhi":"56","nrind":"NORMAL","fast":null,"dtc":"2024-01-19","dy":"-53","visit":"RUN-IN START","visitnum":"2.0","epoch":"RUN_IN","spec":null,"method":null},{"seq":"9","testcd":"AST","test":"Aspartate Aminotransferase","cat":"CHEMISTRY","orres":"25.35","orresu":"U/L","stresc":"25.35","stresn":"25.35","stresu":"U/L","stnrlo":"10","stnrhi":"40","nrind":"NORMAL","fast":null,"dtc":"2024-01-19","dy":"-53","visit":"RUN-IN START","visitnum":"2.0","epoch":"RUN_IN","spec":null,"method":null},{"seq":"10","testcd":"CREAT","test":"Creatinine","cat":"CHEMISTRY","orres":"106.68","orresu":"umol/L","stresc":"106.68","stresn":"106.68","stresu":"umol/L","stnrlo":"62","stnrhi":"106","nrind":"HIGH","fast":null,"dtc":"2024-01-19","dy":"-53","visit":"RUN-IN START","visitnum":"2.0","epoch":"RUN_IN","spec":null,"method":null},{"seq":"11","testcd":"GLUC","test":"Glucose","cat":"CHEMISTRY","orres":"4.96","orresu":"mmol/L","stresc":"4.96","stresn":"4.96","stresu":"mmol/L","stnrlo":"3.9","stnrhi":"5.6","nrind":"NORMAL","fast":null,"dtc":"2024-01-19","dy":"-53","visit":"RUN-IN START","visitnum":"2.0","epoch":"RUN_IN","spec":null,"method":null},{"seq":"12","testcd":"HGB","test":"Hemoglobin","cat":"HEMATOLOGY","orres":"141.64","orresu":"g/L","stresc":"141.64","stresn":"141.64","stresu":"g/L","stnrlo":"130","stnrhi":"175","nrind":"NORMAL","fast":null,"dtc":"2024-01-19","dy":"-53","visit":"RUN-IN START","visitnum":"2.0","epoch":"RUN_IN","spec":null,"method":null},{"seq":"13","testcd":"PLAT","test":"Platelets","cat":"HEMATOLOGY","orres":"370.49","orresu":"10^9/L","stresc":"370.49","stresn":"370.49","stresu":"10^9/L","stnrlo":"150","stnrhi":"400","nrind":"NORMAL","fast":null,"dtc":"2024-01-19","dy":"-53","visit":"RUN-IN START","visitnum":"2.0","epoch":"RUN_IN","spec":null,"method":null},{"seq":"14","testcd":"WBC","test":"Leukocytes","cat":"HEMATOLOGY","orres":"8.21","orresu":"10^9/L","stresc":"8.21","stresn":"8.21","stresu":"10^9/L","stnrlo":"4.0","stnrhi":"11.0","nrind":"NORMAL","fast":null,"dtc":"2024-01-19","dy":"-53","visit":"RUN-IN START","visitnum":"2.0","epoch":"RUN_IN","spec":null,"method":null},{"seq":"15","testcd":"ALT","test":"Alanine Aminotransferase","cat":"CHEMISTRY","orres":"32.07","orresu":"U/L","stresc":"32.07","stresn":"32.07","stresu":"U/L","stnrlo":"7","stnrhi":"56","nrind":"NORMAL","fast":null,"dtc":"2024-03-12","dy":"1","visit":"RANDOMIZATION","visitnum":"3.0","epoch":"TREATMENT","spec":null,"method":null},{"seq":"16","testcd":"AST","test":"Aspartate Aminotransferase","cat":"CHEMISTRY","orres":"25.01","orresu":"U/L","stresc":"25.01","stresn":"25.01","stresu":"U/L","stnrlo":"10","stnrhi":"40","nrind":"NORMAL","fast":null,"dtc":"2024-03-12","dy":"1","visit":"RANDOMIZATION","visitnum":"3.0","epoch":"TREATMENT","spec":null,"method":null},{"seq":"17","testcd":"CREAT","test":"Creatinine","cat":"CHEMISTRY","orres":"105.33","orresu":"umol/L","stresc":"105.33","stresn":"105.33","stresu":"umol/L","stnrlo":"62","stnrhi":"106","nrind":"NORMAL","fast":null,"dtc":"2024-03-12","dy":"1","visit":"RANDOMIZATION","visitnum":"3.0","epoch":"TREATMENT","spec":null,"method":null},{"seq":"18","testcd":"GLUC","test":"Glucose","cat":"CHEMISTRY","orres":"5.06","orresu":"mmol/L","stresc":"5.06","stresn":"5.06","stresu":"mmol/L","stnrlo":"3.9","stnrhi":"5.6","nrind":"NORMAL","fast":null,"dtc":"2024-03-12","dy":"1","visit":"RANDOMIZATION","visitnum":"3.0","epoch":"TREATMENT","spec":null,"method":null},{"seq":"19","testcd":"HGB","test":"Hemoglobin","cat":"HEMATOLOGY","orres":"139.98","orresu":"g/L","stresc":"139.98","stresn":"139.98","stresu":"g/L","stnrlo":"130","stnrhi":"175","nrind":"NORMAL","fast":null,"dtc":"2024-03-12","dy":"1","visit":"RANDOMIZATION","visitnum":"3.0","epoch":"TREATMENT","spec":null,"method":null},{"seq":"20","testcd":"PLAT","test":"Platelets","cat":"HEMATOLOGY","orres":"346.73","orresu":"10^9/L","stresc":"346.73","stresn":"346.73","stresu":"10^9/L","stnrlo":"150","stnrhi":"400","nrind":"NORMAL","fast":null,"dtc":"2024-03-12","dy":"1","visit":"RANDOMIZATION","visitnum":"3.0","epoch":"TREATMENT","spec":null,"method":null},{"seq":"21","testcd":"WBC","test":"Leukocytes","cat":"HEMATOLOGY","orres":"8.72","orresu":"10^9/L","stresc":"8.72","stresn":"8.72","stresu":"10^9/L","stnrlo":"4.0","stnrhi":"11.0","nrind":"NORMAL","fast":null,"dtc":"2024-03-12","dy":"1","visit":"RANDOMIZATION","visitnum":"3.0","epoch":"TREATMENT","spec":null,"method":null},{"seq":"22","testcd":"ALT","test":"Alanine Aminotransferase","cat":"CHEMISTRY","orres":"32.2","orresu":"U/L","stresc":"32.2","stresn":"32.2","stresu":"U/L","stnrlo":"7","stnrhi":"56","nrind":"NORMAL","fast":null,"dtc":"2024-04-07","dy":"27","visit":"WEEK 4","visitnum":"5.0","epoch":"TREATMENT","spec":null,"method":null},{"seq":"23","testcd":"AST","test":"Aspartate Aminotransferase","cat":"CHEMISTRY","orres":"26.31","orresu":"U/L","stresc":"26.31","stresn":"26.31","stresu":"U/L","stnrlo":"10","stnrhi":"40","nrind":"NORMAL","fast":null,"dtc":"2024-04-07","dy":"27","visit":"WEEK 4","visitnum":"5.0","epoch":"TREATMENT","spec":null,"method":null},{"seq":"24","testcd":"CREAT","test":"Creatinine","cat":"CHEMISTRY","orres":"104.89","orresu":"umol/L","stresc":"104.89","stresn":"104.89","stresu":"umol/L","stnrlo":"62","stnrhi":"106","nrind":"NORMAL","fast":null,"dtc":"2024-04-07","dy":"27","visit":"WEEK 4","visitnum":"5.0","epoch":"TREATMENT","spec":null,"method":null},{"seq":"25","testcd":"GLUC","test":"Glucose","cat":"CHEMISTRY","orres":"5.09","orresu":"mmol/L","stresc":"5.09","stresn":"5.09","stresu":"mmol/L","stnrlo":"3.9","stnrhi":"5.6","nrind":"NORMAL","fast":null,"dtc":"2024-04-07","dy":"27","visit":"WEEK 4","visitnum":"5.0","epoch":"TREATMENT","spec":null,"method":null},{"seq":"26","testcd":"HGB","test":"Hemoglobin","cat":"HEMATOLOGY","orres":"141.02","orresu":"g/L","stresc":"141.02","stresn":"141.02","stresu":"g/L","stnrlo":"130","stnrhi":"175","nrind":"NORMAL","fast":null,"dtc":"2024-04-07","dy":"27","visit":"WEEK 4","visitnum":"5.0","epoch":"TREATMENT","spec":null,"method":null},{"seq":"27","testcd":"PLAT","test":"Platelets","cat":"HEMATOLOGY","orres":"365.42","orresu":"10^9/L","stresc":"365.42","stresn":"365.42","stresu":"10^9/L","stnrlo":"150","stnrhi":"400","nrind":"NORMAL","fast":null,"dtc":"2024-04-07","dy":"27","visit":"WEEK 4","visitnum":"5.0","epoch":"TREATMENT","spec":null,"method":null},{"seq":"28","testcd":"WBC","test":"Leukocytes","cat":"HEMATOLOGY","orres":"8.94","orresu":"10^9/L","stresc":"8.94","stresn":"8.94","stresu":"10^9/L","stnrlo":"4.0","stnrhi":"11.0","nrind":"NORMAL","fast":null,"dtc":"2024-04-07","dy":"27","visit":"WEEK 4","visitnum":"5.0","epoch":"TREATMENT","spec":null,"method":null},{"seq":"29","testcd":"ALT","test":"Alanine Aminotransferase","cat":"CHEMISTRY","orres":"32.89","orresu":"U/L","stresc":"32.89","stresn":"32.89","stresu":"U/L","stnrlo":"7","stnrhi":"56","nrind":"NORMAL","fast":null,"dtc":"2024-05-10","dy":"60","visit":"WEEK 8","visitnum":"6.0","epoch":"TREATMENT","spec":null,"method":null},{"seq":"30","testcd":"AST","test":"Aspartate Aminotransferase","cat":"CHEMISTRY","orres":"26.12","orresu":"U/L","stresc":"26.12","stresn":"26.12","stresu":"U/L","stnrlo":"10","stnrhi":"40","nrind":"NORMAL","fast":null,"dtc":"2024-05-10","dy":"60","visit":"WEEK 8","visitnum":"6.0","epoch":"TREATMENT","spec":null,"method":null},{"seq":"31","testcd":"CREAT","test":"Creatinine","cat":"CHEMISTRY","orres":"103.3","orresu":"umol/L","stresc":"103.3","stresn":"103.3","stresu":"umol/L","stnrlo":"62","stnrhi":"106","nrind":"NORMAL","fast":null,"dtc":"2024-05-10","dy":"60","visit":"WEEK 8","visitnum":"6.0","epoch":"TREATMENT","spec":null,"method":null},{"seq":"32","testcd":"GLUC","test":"Glucose","cat":"CHEMISTRY","orres":"5.12","orresu":"mmol/L","stresc":"5.12","stresn":"5.12","stresu":"mmol/L","stnrlo":"3.9","stnrhi":"5.6","nrind":"NORMAL","fast":null,"dtc":"2024-05-10","dy":"60","visit":"WEEK 8","visitnum":"6.0","epoch":"TREATMENT","spec":null,"method":null},{"seq":"33","testcd":"HGB","test":"Hemoglobin","cat":"HEMATOLOGY","orres":"140.13","orresu":"g/L","stresc":"140.13","stresn":"140.13","stresu":"g/L","stnrlo":"130","stnrhi":"175","nrind":"NORMAL","fast":null,"dtc":"2024-05-10","dy":"60","visit":"WEEK 8","visitnum":"6.0","epoch":"TREATMENT","spec":null,"method":null},{"seq":"34","testcd":"PLAT","test":"Platelets","cat":"HEMATOLOGY","orres":"379.09","orresu":"10^9/L","stresc":"379.09","stresn":"379.09","stresu":"10^9/L","stnrlo":"150","stnrhi":"400","nrind":"NORMAL","fast":null,"dtc":"2024-05-10","dy":"60","visit":"WEEK 8","visitnum":"6.0","epoch":"TREATMENT","spec":null,"method":null},{"seq":"35","testcd":"WBC","test":"Leukocytes","cat":"HEMATOLOGY","orres":"8.64","orresu":"10^9/L","stresc":"8.64","stresn":"8.64","stresu":"10^9/L","stnrlo":"4.0","stnrhi":"11.0","nrind":"NORMAL","fast":null,"dtc":"2024-05-10","dy":"60","visit":"WEEK 8","visitnum":"6.0","epoch":"TREATMENT","spec":null,"method":null},{"seq":"36","testcd":"ALT","test":"Alanine Aminotransferase","cat":"CHEMISTRY","orres":"33.19","orresu":"U/L","stresc":"33.19","stresn":"33.19","stresu":"U/L","stnrlo":"7","stnrhi":"56","nrind":"NORMAL","fast":null,"dtc":"2024-07-05","dy":"116","visit":"WEEK 16","visitnum":"8.0","epoch":"TREATMENT","spec":null,"method":null},{"seq":"37","testcd":"AST","test":"Aspartate Aminotransferase","cat":"CHEMISTRY","orres":"27.18","orresu":"U/L","stresc":"27.18","stresn":"27.18","stresu":"U/L","stnrlo":"10","stnrhi":"40","nrind":"NORMAL","fast":null,"dtc":"2024-07-05","dy":"116","visit":"WEEK 16","visitnum":"8.0","epoch":"TREATMENT","spec":null,"method":null},{"seq":"38","testcd":"CREAT","test":"Creatinine","cat":"CHEMISTRY","orres":"103.93","orresu":"umol/L","stresc":"103.93","stresn":"103.93","stresu":"umol/L","stnrlo":"62","stnrhi":"106","nrind":"NORMAL","fast":null,"dtc":"2024-07-05","dy":"116","visit":"WEEK 16","visitnum":"8.0","epoch":"TREATMENT","spec":null,"method":null},{"seq":"39","testcd":"GLUC","test":"Glucose","cat":"CHEMISTRY","orres":"5.19","orresu":"mmol/L","stresc":"5.19","stresn":"5.19","stresu":"mmol/L","stnrlo":"3.9","stnrhi":"5.6","nrind":"NORMAL","fast":null,"dtc":"2024-07-05","dy":"116","visit":"WEEK 16","visitnum":"8.0","epoch":"TREATMENT","spec":null,"method":null},{"seq":"40","testcd":"HGB","test":"Hemoglobin","cat":"HEMATOLOGY","orres":"138.36","orresu":"g/L","stresc":"138.36","stresn":"138.36","stresu":"g/L","stnrlo":"130","stnrhi":"175","nrind":"NORMAL","fast":null,"dtc":"2024-07-05","dy":"116","visit":"WEEK 16","visitnum":"8.0","epoch":"TREATMENT","spec":null,"method":null},{"seq":"41","testcd":"PLAT","test":"Platelets","cat":"HEMATOLOGY","orres":"385.33","orresu":"10^9/L","stresc":"385.33","stresn":"385.33","stresu":"10^9/L","stnrlo":"150","stnrhi":"400","nrind":"NORMAL","fast":null,"dtc":"2024-07-05","dy":"116","visit":"WEEK 16","visitnum":"8.0","epoch":"TREATMENT","spec":null,"method":null},{"seq":"42","testcd":"WBC","test":"Leukocytes","cat":"HEMATOLOGY","orres":"7.66","orresu":"10^9/L","stresc":"7.66","stresn":"7.66","stresu":"10^9/L","stnrlo":"4.0","stnrhi":"11.0","nrind":"NORMAL","fast":null,"dtc":"2024-07-05","dy":"116","visit":"WEEK 16","visitnum":"8.0","epoch":"TREATMENT","spec":null,"method":null},{"seq":"43","testcd":"ALT","test":"Alanine Aminotransferase","cat":"CHEMISTRY","orres":"34.65","orresu":"U/L","stresc":"34.65","stresn":"34.65","stresu":"U/L","stnrlo":"7","stnrhi":"56","nrind":"NORMAL","fast":null,"dtc":"2024-07-25","dy":"136","visit":"WEEK 20","visitnum":"9.0","epoch":"TREATMENT","spec":null,"method":null},{"seq":"44","testcd":"AST","test":"Aspartate Aminotransferase","cat":"CHEMISTRY","orres":"25.65","orresu":"U/L","stresc":"25.65","stresn":"25.65","stresu":"U/L","stnrlo":"10","stnrhi":"40","nrind":"NORMAL","fast":null,"dtc":"2024-07-25","dy":"136","visit":"WEEK 20","visitnum":"9.0","epoch":"TREATMENT","spec":null,"method":null},{"seq":"45","testcd":"CREAT","test":"Creatinine","cat":"CHEMISTRY","orres":"105.1","orresu":"umol/L","stresc":"105.1","stresn":"105.1","stresu":"umol/L","stnrlo":"62","stnrhi":"106","nrind":"NORMAL","fast":null,"dtc":"2024-07-25","dy":"136","visit":"WEEK 20","visitnum":"9.0","epoch":"TREATMENT","spec":null,"method":null},{"seq":"46","testcd":"GLUC","test":"Glucose","cat":"CHEMISTRY","orres":"5.13","orresu":"mmol/L","stresc":"5.13","stresn":"5.13","stresu":"mmol/L","stnrlo":"3.9","stnrhi":"5.6","nrind":"NORMAL","fast":null,"dtc":"2024-07-25","dy":"136","visit":"WEEK 20","visitnum":"9.0","epoch":"TREATMENT","spec":null,"method":null},{"seq":"47","testcd":"HGB","test":"Hemoglobin","cat":"HEMATOLOGY","orres":"138.02","orresu":"g/L","stresc":"138.02","stresn":"138.02","stresu":"g/L","stnrlo":"130","stnrhi":"175","nrind":"NORMAL","fast":null,"dtc":"2024-07-25","dy":"136","visit":"WEEK 20","visitnum":"9.0","epoch":"TREATMENT","spec":null,"method":null},{"seq":"48","testcd":"PLAT","test":"Platelets","cat":"HEMATOLOGY","orres":"384.32","orresu":"10^9/L","stresc":"384.32","stresn":"384.32","stresu":"10^9/L","stnrlo":"150","stnrhi":"400","nrind":"NORMAL","fast":null,"dtc":"2024-07-25","dy":"136","visit":"WEEK 20","visitnum":"9.0","epoch":"TREATMENT","spec":null,"method":null},{"seq":"49","testcd":"WBC","test":"Leukocytes","cat":"HEMATOLOGY","orres":"8.36","orresu":"10^9/L","stresc":"8.36","stresn":"8.36","stresu":"10^9/L","stnrlo":"4.0","stnrhi":"11.0","nrind":"NORMAL","fast":null,"dtc":"2024-07-25","dy":"136","visit":"WEEK 20","visitnum":"9.0","epoch":"TREATMENT","spec":null,"method":null},{"seq":"50","testcd":"ALT","test":"Alanine Aminotransferase","cat":"CHEMISTRY","orres":"34.0","orresu":"U/L","stresc":"34.0","stresn":"34.0","stresu":"U/L","stnrlo":"7","stnrhi":"56","nrind":"NORMAL","fast":null,"dtc":"2024-08-29","dy":"171","visit":"WEEK 24 EOT","visitnum":"10.0","epoch":"TREATMENT","spec":null,"method":null},{"seq":"51","testcd":"AST","test":"Aspartate Aminotransferase","cat":"CHEMISTRY","orres":"26.47","orresu":"U/L","stresc":"26.47","stresn":"26.47","stresu":"U/L","stnrlo":"10","stnrhi":"40","nrind":"NORMAL","fast":null,"dtc":"2024-08-29","dy":"171","visit":"WEEK 24 EOT","visitnum":"10.0","epoch":"TREATMENT","spec":null,"method":null},{"seq":"52","testcd":"CREAT","test":"Creatinine","cat":"CHEMISTRY","orres":"105.99","orresu":"umol/L","stresc":"105.99","stresn":"105.99","stresu":"umol/L","stnrlo":"62","stnrhi":"106","nrind":"NORMAL","fast":null,"dtc":"2024-08-29","dy":"171","visit":"WEEK 24 EOT","visitnum":"10.0","epoch":"TREATMENT","spec":null,"method":null},{"seq":"53","testcd":"GLUC","test":"Glucose","cat":"CHEMISTRY","orres":"5.17","orresu":"mmol/L","stresc":"5.17","stresn":"5.17","stresu":"mmol/L","stnrlo":"3.9","stnrhi":"5.6","nrind":"NORMAL","fast":null,"dtc":"2024-08-29","dy":"171","visit":"WEEK 24 EOT","visitnum":"10.0","epoch":"TREATMENT","spec":null,"method":null},{"seq":"54","testcd":"HGB","test":"Hemoglobin","cat":"HEMATOLOGY","orres":"137.51","orresu":"g/L","stresc":"137.51","stresn":"137.51","stresu":"g/L","stnrlo":"130","stnrhi":"175","nrind":"NORMAL","fast":null,"dtc":"2024-08-29","dy":"171","visit":"WEEK 24 EOT","visitnum":"10.0","epoch":"TREATMENT","spec":null,"method":null},{"seq":"55","testcd":"PLAT","test":"Platelets","cat":"HEMATOLOGY","orres":"365.06","orresu":"10^9/L","stresc":"365.06","stresn":"365.06","stresu":"10^9/L","stnrlo":"150","stnrhi":"400","nrind":"NORMAL","fast":null,"dtc":"2024-08-29","dy":"171","visit":"WEEK 24 EOT","visitnum":"10.0","epoch":"TREATMENT","spec":null,"method":null},{"seq":"56","testcd":"WBC","test":"Leukocytes","cat":"HEMATOLOGY","orres":"8.36","orresu":"10^9/L","stresc":"8.36","stresn":"8.36","stresu":"10^9/L","stnrlo":"4.0","stnrhi":"11.0","nrind":"NORMAL","fast":null,"dtc":"2024-08-29","dy":"171","visit":"WEEK 24 EOT","visitnum":"10.0","epoch":"TREATMENT","spec":null,"method":null},{"seq":"57","testcd":"ALT","test":"Alanine Aminotransferase","cat":"CHEMISTRY","orres":"35.84","orresu":"U/L","stresc":"35.84","stresn":"35.84","stresu":"U/L","stnrlo":"7","stnrhi":"56","nrind":"NORMAL","fast":null,"dtc":"2024-09-29","dy":"202","visit":"WEEK 28 SAFETY FU","visitnum":"11.0","epoch":"FOLLOW-UP","spec":null,"method":null},{"seq":"58","testcd":"AST","test":"Aspartate Aminotransferase","cat":"CHEMISTRY","orres":"24.21","orresu":"U/L","stresc":"24.21","stresn":"24.21","stresu":"U/L","stnrlo":"10","stnrhi":"40","nrind":"NORMAL","fast":null,"dtc":"2024-09-29","dy":"202","visit":"WEEK 28 SAFETY FU","visitnum":"11.0","epoch":"FOLLOW-UP","spec":null,"method":null},{"seq":"59","testcd":"CREAT","test":"Creatinine","cat":"CHEMISTRY","orres":"109.77","orresu":"umol/L","stresc":"109.77","stresn":"109.77","stresu":"umol/L","stnrlo":"62","stnrhi":"106","nrind":"HIGH","fast":null,"dtc":"2024-09-29","dy":"202","visit":"WEEK 28 SAFETY FU","visitnum":"11.0","epoch":"FOLLOW-UP","spec":null,"method":null},{"seq":"60","testcd":"GLUC","test":"Glucose","cat":"CHEMISTRY","orres":"5.07","orresu":"mmol/L","stresc":"5.07","stresn":"5.07","stresu":"mmol/L","stnrlo":"3.9","stnrhi":"5.6","nrind":"NORMAL","fast":null,"dtc":"2024-09-29","dy":"202","visit":"WEEK 28 SAFETY FU","visitnum":"11.0","epoch":"FOLLOW-UP","spec":null,"method":null},{"seq":"61","testcd":"HGB","test":"Hemoglobin","cat":"HEMATOLOGY","orres":"136.95","orresu":"g/L","stresc":"136.95","stresn":"136.95","stresu":"g/L","stnrlo":"130","stnrhi":"175","nrind":"NORMAL","fast":null,"dtc":"2024-09-29","dy":"202","visit":"WEEK 28 SAFETY FU","visitnum":"11.0","epoch":"FOLLOW-UP","spec":null,"method":null},{"seq":"62","testcd":"PLAT","test":"Platelets","cat":"HEMATOLOGY","orres":"362.96","orresu":"10^9/L","stresc":"362.96","stresn":"362.96","stresu":"10^9/L","stnrlo":"150","stnrhi":"400","nrind":"NORMAL","fast":null,"dtc":"2024-09-29","dy":"202","visit":"WEEK 28 SAFETY FU","visitnum":"11.0","epoch":"FOLLOW-UP","spec":null,"method":null},{"seq":"63","testcd":"WBC","test":"Leukocytes","cat":"HEMATOLOGY","orres":"8.93","orresu":"10^9/L","stresc":"8.93","stresn":"8.93","stresu":"10^9/L","stnrlo":"4.0","stnrhi":"11.0","nrind":"NORMAL","fast":null,"dtc":"2024-09-29","dy":"202","visit":"WEEK 28 SAFETY FU","visitnum":"11.0","epoch":"FOLLOW-UP","spec":null,"method":null}]},"section_9_vital_signs":{"summary":{"total_records":88},"trends":{"BMI":[{"visit":"SCREENING","visitnum":"1.0","dtc":"2023-12-18","value":"21.5","unit":"kg/m2"},{"visit":"RUN-IN START","visitnum":"2.0","dtc":"2024-01-19","value":"20.7","unit":"kg/m2"},{"visit":"RANDOMIZATION","visitnum":"3.0","dtc":"2024-03-12","value":"19.8","unit":"kg/m2"},{"visit":"WEEK 2","visitnum":"4.0","dtc":"2024-03-26","value":"19.4","unit":"kg/m2"},{"visit":"WEEK 4","visitnum":"5.0","dtc":"2024-04-07","value":"19.8","unit":"kg/m2"},{"visit":"WEEK 8","visitnum":"6.0","dtc":"2024-05-10","value":"20.5","unit":"kg/m2"},{"visit":"WEEK 12","visitnum":"7.0","dtc":"2024-05-31","value":"20.4","unit":"kg/m2"},{"visit":"WEEK 16","visitnum":"8.0","dtc":"2024-07-05","value":"20.2","unit":"kg/m2"},{"visit":"WEEK 20","visitnum":"9.0","dtc":"2024-07-25","value":"20.2","unit":"kg/m2"},{"visit":"WEEK 24 EOT","visitnum":"10.0","dtc":"2024-08-29","value":"20.1","unit":"kg/m2"},{"visit":"WEEK 28 SAFETY FU","visitnum":"11.0","dtc":"2024-09-29","value":"19.8","unit":"kg/m2"}],"DIABP":[{"visit":"SCREENING","visitnum":"1.0","dtc":"2023-12-18","value":"76.3","unit":"mmHg"},{"visit":"RUN-IN START","visitnum":"2.0","dtc":"2024-01-19","value":"74.7","unit":"mmHg"},{"visit":"RANDOMIZATION","visitnum":"3.0","dtc":"2024-03-12","value":"73.5","unit":"mmHg"},{"visit":"WEEK 2","visitnum":"4.0","dtc":"2024-03-26","value":"73.2","unit":"mmHg"},{"visit":"WEEK 4","visitnum":"5.0","dtc":"2024-04-07","value":"74.6","unit":"mmHg"},{"visit":"WEEK 8","visitnum":"6.0","dtc":"2024-05-10","value":"75.6","unit":"mmHg"},{"visit":"WEEK 12","visitnum":"7.0","dtc":"2024-05-31","value":"75.6","unit":"mmHg"},{"visit":"WEEK 16","visitnum":"8.0","dtc":"2024-07-05","value":"74.9","unit":"mmHg"},{"visit":"WEEK 20","visitnum":"9.0","dtc":"2024-07-25","value":"75.8","unit":"mmHg"},{"visit":"WEEK 24 EOT","visitnum":"10.0","dtc":"2024-08-29","value":"76.6","unit":"mmHg"},{"visit":"WEEK 28 SAFETY FU","visitnum":"11.0","dtc":"2024-09-29","value":"75.0","unit":"mmHg"}],"HEIGHT":[{"visit":"SCREENING","visitnum":"1.0","dtc":"2023-12-18","value":"180.2","unit":"cm"},{"visit":"RUN-IN START","visitnum":"2.0","dtc":"2024-01-19","value":"180.8","unit":"cm"},{"visit":"RANDOMIZATION","visitnum":"3.0","dtc":"2024-03-12","value":"180.5","unit":"cm"},{"visit":"WEEK 2","visitnum":"4.0","dtc":"2024-03-26","value":"180.3","unit":"cm"},{"visit":"WEEK 4","visitnum":"5.0","dtc":"2024-04-07","value":"179.7","unit":"cm"},{"visit":"WEEK 8","visitnum":"6.0","dtc":"2024-05-10","value":"179.6","unit":"cm"},{"visit":"WEEK 12","visitnum":"7.0","dtc":"2024-05-31","value":"179.9","unit":"cm"},{"visit":"WEEK 16","visitnum":"8.0","dtc":"2024-07-05","value":"180.5","unit":"cm"},{"visit":"WEEK 20","visitnum":"9.0","dtc":"2024-07-25","value":"180.4","unit":"cm"},{"visit":"WEEK 24 EOT","visitnum":"10.0","dtc":"2024-08-29","value":"180.5","unit":"cm"},{"visit":"WEEK 28 SAFETY FU","visitnum":"11.0","dtc":"2024-09-29","value":"180.3","unit":"cm"}],"PULSE":[{"visit":"SCREENING","visitnum":"1.0","dtc":"2023-12-18","value":"74.1","unit":"beats/min"},{"visit":"RUN-IN START","visitnum":"2.0","dtc":"2024-01-19","value":"76.5","unit":"beats/min"},{"visit":"RANDOMIZATION","visitnum":"3.0","dtc":"2024-03-12","value":"73.7","unit":"beats/min"},{"visit":"WEEK 2","visitnum":"4.0","dtc":"2024-03-26","value":"67.2","unit":"beats/min"},{"visit":"WEEK 4","visitnum":"5.0","dtc":"2024-04-07","value":"68.7","unit":"beats/min"},{"visit":"WEEK 8","visitnum":"6.0","dtc":"2024-05-10","value":"70.5","unit":"beats/min"},{"visit":"WEEK 12","visitnum":"7.0","dtc":"2024-05-31","value":"71.8","unit":"beats/min"},{"visit":"WEEK 16","visitnum":"8.0","dtc":"2024-07-05","value":"68.7","unit":"beats/min"},{"visit":"WEEK 20","visitnum":"9.0","dtc":"2024-07-25","value":"69.2","unit":"beats/min"},{"visit":"WEEK 28 SAFETY FU","visitnum":"11.0","dtc":"2024-09-29","value":"71.4","unit":"beats/min"}],"RESP":[{"visit":"SCREENING","visitnum":"1.0","dtc":"2023-12-18","value":"12.9","unit":"breaths/min"},{"visit":"RUN-IN START","visitnum":"2.0","dtc":"2024-01-19","value":"12.5","unit":"breaths/min"},{"visit":"RANDOMIZATION","visitnum":"3.0","dtc":"2024-03-12","value":"12.6","unit":"breaths/min"},{"visit":"WEEK 2","visitnum":"4.0","dtc":"2024-03-26","value":"12.5","unit":"breaths/min"},{"visit":"WEEK 4","visitnum":"5.0","dtc":"2024-04-07","value":"12.7","unit":"breaths/min"},{"visit":"WEEK 8","visitnum":"6.0","dtc":"2024-05-10","value":"12.3","unit":"breaths/min"},{"visit":"WEEK 12","visitnum":"7.0","dtc":"2024-05-31","value":"13.9","unit":"breaths/min"},{"visit":"WEEK 16","visitnum":"8.0","dtc":"2024-07-05","value":"13.8","unit":"breaths/min"},{"visit":"WEEK 24 EOT","visitnum":"10.0","dtc":"2024-08-29","value":"13.7","unit":"breaths/min"},{"visit":"WEEK 28 SAFETY FU","visitnum":"11.0","dtc":"2024-09-29","value":"13.4","unit":"breaths/min"}],"SYSBP":[{"visit":"SCREENING","visitnum":"1.0","dtc":"2023-12-18","value":"102.9","unit":"mmHg"},{"visit":"RUN-IN START","visitnum":"2.0","dtc":"2024-01-19","value":"103.9","unit":"mmHg"},{"visit":"RANDOMIZATION","visitnum":"3.0","dtc":"2024-03-12","value":"102.6","unit":"mmHg"},{"visit":"WEEK 2","visitnum":"4.0","dtc":"2024-03-26","value":"101.4","unit":"mmHg"},{"visit":"WEEK 4","visitnum":"5.0","dtc":"2024-04-07","value":"102.0","unit":"mmHg"},{"visit":"WEEK 8","visitnum":"6.0","dtc":"2024-05-10","value":"104.4","unit":"mmHg"},{"visit":"WEEK 12","visitnum":"7.0","dtc":"2024-05-31","value":"104.2","unit":"mmHg"},{"visit":"WEEK 16","visitnum":"8.0","dtc":"2024-07-05","value":"100.6","unit":"mmHg"},{"visit":"WEEK 20","visitnum":"9.0","dtc":"2024-07-25","value":"100.4","unit":"mmHg"},{"visit":"WEEK 24 EOT","visitnum":"10.0","dtc":"2024-08-29","value":"101.0","unit":"mmHg"},{"visit":"WEEK 28 SAFETY FU","visitnum":"11.0","dtc":"2024-09-29","value":"98.0","unit":"mmHg"}],"TEMP":[{"visit":"SCREENING","visitnum":"1.0","dtc":"2023-12-18","value":"37.2","unit":"C"},{"visit":"RUN-IN START","visitnum":"2.0","dtc":"2024-01-19","value":"37.2","unit":"C"},{"visit":"RANDOMIZATION","visitnum":"3.0","dtc":"2024-03-12","value":"37.0","unit":"C"},{"visit":"WEEK 2","visitnum":"4.0","dtc":"2024-03-26","value":"37.2","unit":"C"},{"visit":"WEEK 4","visitnum":"5.0","dtc":"2024-04-07","value":"37.0","unit":"C"},{"visit":"WEEK 8","visitnum":"6.0","dtc":"2024-05-10","value":"37.2","unit":"C"},{"visit":"WEEK 12","visitnum":"7.0","dtc":"2024-05-31","value":"37.4","unit":"C"},{"visit":"WEEK 16","visitnum":"8.0","dtc":"2024-07-05","value":"37.1","unit":"C"},{"visit":"WEEK 20","visitnum":"9.0","dtc":"2024-07-25","value":"37.0","unit":"C"},{"visit":"WEEK 24 EOT","visitnum":"10.0","dtc":"2024-08-29","value":"37.3","unit":"C"},{"visit":"WEEK 28 SAFETY FU","visitnum":"11.0","dtc":"2024-09-29","value":"37.2","unit":"C"}],"WEIGHT":[{"visit":"SCREENING","visitnum":"1.0","dtc":"2023-12-18","value":"69.8","unit":"kg"},{"visit":"RUN-IN START","visitnum":"2.0","dtc":"2024-01-19","value":"67.6","unit":"kg"},{"visit":"RANDOMIZATION","visitnum":"3.0","dtc":"2024-03-12","value":"64.5","unit":"kg"},{"visit":"WEEK 2","visitnum":"4.0","dtc":"2024-03-26","value":"63.1","unit":"kg"},{"visit":"WEEK 4","visitnum":"5.0","dtc":"2024-04-07","value":"63.9","unit":"kg"},{"visit":"WEEK 8","visitnum":"6.0","dtc":"2024-05-10","value":"66.1","unit":"kg"},{"visit":"WEEK 12","visitnum":"7.0","dtc":"2024-05-31","value":"66.1","unit":"kg"},{"visit":"WEEK 16","visitnum":"8.0","dtc":"2024-07-05","value":"65.9","unit":"kg"},{"visit":"WEEK 20","visitnum":"9.0","dtc":"2024-07-25","value":"65.8","unit":"kg"},{"visit":"WEEK 24 EOT","visitnum":"10.0","dtc":"2024-08-29","value":"65.4","unit":"kg"},{"visit":"WEEK 28 SAFETY FU","visitnum":"11.0","dtc":"2024-09-29","value":"64.4","unit":"kg"}]},"results":[{"seq":"1","testcd":"BMI","test":"BMI","cat":null,"orres":null,"orresu":null,"stresc":"21.5","stresn":"21.5","stresu":"kg/m2","stnrlo":null,"stnrhi":null,"nrind":null,"pos":null,"loc":null,"dtc":"2023-12-18","dy":"-85","visit":"SCREENING","visitnum":"1.0","epoch":"SCREENING"},{"seq":"2","testcd":"DIABP","test":"Diastolic Blood Pressure","cat":null,"orres":"76.3","orresu":"mmHg","stresc":"76.3","stresn":"76.3","stresu":"mmHg","stnrlo":null,"stnrhi":null,"nrind":null,"pos":null,"loc":null,"dtc":"2023-12-18","dy":"-85","visit":"SCREENING","visitnum":"1.0","epoch":"SCREENING"},{"seq":"3","testcd":"HEIGHT","test":"Height","cat":null,"orres":"180.2","orresu":"cm","stresc":"180.2","stresn":"180.2","stresu":"cm","stnrlo":null,"stnrhi":null,"nrind":null,"pos":null,"loc":null,"dtc":"2023-12-18","dy":"-85","visit":"SCREENING","visitnum":"1.0","epoch":"SCREENING"},{"seq":"4","testcd":"PULSE","test":"Pulse Rate","cat":null,"orres":"74.1","orresu":"beats/min","stresc":"74.1","stresn":"74.1","stresu":"beats/min","stnrlo":null,"stnrhi":null,"nrind":null,"pos":null,"loc":null,"dtc":"2023-12-18","dy":"-85","visit":"SCREENING","visitnum":"1.0","epoch":"SCREENING"},{"seq":"5","testcd":"RESP","test":"Respiratory Rate","cat":null,"orres":"12.9","orresu":"breaths/min","stresc":"12.9","stresn":"12.9","stresu":"breaths/min","stnrlo":null,"stnrhi":null,"nrind":null,"pos":null,"loc":null,"dtc":"2023-12-18","dy":"-85","visit":"SCREENING","visitnum":"1.0","epoch":"SCREENING"},{"seq":"6","testcd":"SYSBP","test":"Systolic Blood Pressure","cat":null,"orres":"102.9","orresu":"mmHg","stresc":"102.9","stresn":"102.9","stresu":"mmHg","stnrlo":null,"stnrhi":null,"nrind":null,"pos":null,"loc":null,"dtc":"2023-12-18","dy":"-85","visit":"SCREENING","visitnum":"1.0","epoch":"SCREENING"},{"seq":"7","testcd":"TEMP","test":"Temperature","cat":null,"orres":"37.2","orresu":"C","stresc":"37.2","stresn":"37.2","stresu":"C","stnrlo":null,"stnrhi":null,"nrind":null,"pos":null,"loc":null,"dtc":"2023-12-18","dy":"-85","visit":"SCREENING","visitnum":"1.0","epoch":"SCREENING"},{"seq":"8","testcd":"WEIGHT","test":"Weight","cat":null,"orres":"69.8","orresu":"kg","stresc":"69.8","stresn":"69.8","stresu":"kg","stnrlo":null,"stnrhi":null,"nrind":null,"pos":null,"loc":null,"dtc":"2023-12-18","dy":"-85","visit":"SCREENING","visitnum":"1.0","epoch":"SCREENING"},{"seq":"9","testcd":"BMI","test":"BMI","cat":null,"orres":null,"orresu":null,"stresc":"20.7","stresn":"20.7","stresu":"kg/m2","stnrlo":null,"stnrhi":null,"nrind":null,"pos":null,"loc":null,"dtc":"2024-01-19","dy":"-53","visit":"RUN-IN START","visitnum":"2.0","epoch":"RUN_IN"},{"seq":"10","testcd":"DIABP","test":"Diastolic Blood Pressure","cat":null,"orres":"74.7","orresu":"mmHg","stresc":"74.7","stresn":"74.7","stresu":"mmHg","stnrlo":null,"stnrhi":null,"nrind":null,"pos":null,"loc":null,"dtc":"2024-01-19","dy":"-53","visit":"RUN-IN START","visitnum":"2.0","epoch":"RUN_IN"},{"seq":"11","testcd":"HEIGHT","test":"Height","cat":null,"orres":"180.8","orresu":"cm","stresc":"180.8","stresn":"180.8","stresu":"cm","stnrlo":null,"stnrhi":null,"nrind":null,"pos":null,"loc":null,"dtc":"2024-01-19","dy":"-53","visit":"RUN-IN START","visitnum":"2.0","epoch":"RUN_IN"},{"seq":"12","testcd":"PULSE","test":"Pulse Rate","cat":null,"orres":"76.5","orresu":"beats/min","stresc":"76.5","stresn":"76.5","stresu":"beats/min","stnrlo":null,"stnrhi":null,"nrind":null,"pos":null,"loc":null,"dtc":"2024-01-19","dy":"-53","visit":"RUN-IN START","visitnum":"2.0","epoch":"RUN_IN"},{"seq":"13","testcd":"RESP","test":"Respiratory Rate","cat":null,"orres":"12.5","orresu":"breaths/min","stresc":"12.5","stresn":"12.5","stresu":"breaths/min","stnrlo":null,"stnrhi":null,"nrind":null,"pos":null,"loc":null,"dtc":"2024-01-19","dy":"-53","visit":"RUN-IN START","visitnum":"2.0","epoch":"RUN_IN"},{"seq":"14","testcd":"SYSBP","test":"Systolic Blood Pressure","cat":null,"orres":"103.9","orresu":"mmHg","stresc":"103.9","stresn":"103.9","stresu":"mmHg","stnrlo":null,"stnrhi":null,"nrind":null,"pos":null,"loc":null,"dtc":"2024-01-19","dy":"-53","visit":"RUN-IN START","visitnum":"2.0","epoch":"RUN_IN"},{"seq":"15","testcd":"TEMP","test":"Temperature","cat":null,"orres":"37.2","orresu":"C","stresc":"37.2","stresn":"37.2","stresu":"C","stnrlo":null,"stnrhi":null,"nrind":null,"pos":null,"loc":null,"dtc":"2024-01-19","dy":"-53","visit":"RUN-IN START","visitnum":"2.0","epoch":"RUN_IN"},{"seq":"16","testcd":"WEIGHT","test":"Weight","cat":null,"orres":"67.6","orresu":"kg","stresc":"67.6","stresn":"67.6","stresu":"kg","stnrlo":null,"stnrhi":null,"nrind":null,"pos":null,"loc":null,"dtc":"2024-01-19","dy":"-53","visit":"RUN-IN START","visitnum":"2.0","epoch":"RUN_IN"},{"seq":"17","testcd":"BMI","test":"BMI","cat":null,"orres":null,"orresu":null,"stresc":"19.8","stresn":"19.8","stresu":"kg/m2","stnrlo":null,"stnrhi":null,"nrind":null,"pos":null,"loc":null,"dtc":"2024-03-12","dy":"1","visit":"RANDOMIZATION","visitnum":"3.0","epoch":"TREATMENT"},{"seq":"18","testcd":"DIABP","test":"Diastolic Blood Pressure","cat":null,"orres":"73.5","orresu":"mmHg","stresc":"73.5","stresn":"73.5","stresu":"mmHg","stnrlo":null,"stnrhi":null,"nrind":null,"pos":null,"loc":null,"dtc":"2024-03-12","dy":"1","visit":"RANDOMIZATION","visitnum":"3.0","epoch":"TREATMENT"},{"seq":"19","testcd":"HEIGHT","test":"Height","cat":null,"orres":"180.5","orresu":"cm","stresc":"180.5","stresn":"180.5","stresu":"cm","stnrlo":null,"stnrhi":null,"nrind":null,"pos":null,"loc":null,"dtc":"2024-03-12","dy":"1","visit":"RANDOMIZATION","visitnum":"3.0","epoch":"TREATMENT"},{"seq":"20","testcd":"PULSE","test":"Pulse Rate","cat":null,"orres":"73.7","orresu":"beats/min","stresc":"73.7","stresn":"73.7","stresu":"beats/min","stnrlo":null,"stnrhi":null,"nrind":null,"pos":null,"loc":null,"dtc":"2024-03-12","dy":"1","visit":"RANDOMIZATION","visitnum":"3.0","epoch":"TREATMENT"},{"seq":"21","testcd":"RESP","test":"Respiratory Rate","cat":null,"orres":"12.6","orresu":"breaths/min","stresc":"12.6","stresn":"12.6","stresu":"breaths/min","stnrlo":null,"stnrhi":null,"nrind":null,"pos":null,"loc":null,"dtc":"2024-03-12","dy":"1","visit":"RANDOMIZATION","visitnum":"3.0","epoch":"TREATMENT"},{"seq":"22","testcd":"SYSBP","test":"Systolic Blood Pressure","cat":null,"orres":"102.6","orresu":"mmHg","stresc":"102.6","stresn":"102.6","stresu":"mmHg","stnrlo":null,"stnrhi":null,"nrind":null,"pos":null,"loc":null,"dtc":"2024-03-12","dy":"1","visit":"RANDOMIZATION","visitnum":"3.0","epoch":"TREATMENT"},{"seq":"23","testcd":"TEMP","test":"Temperature","cat":null,"orres":"37.0","orresu":"C","stresc":"37.0","stresn":"37.0","stresu":"C","stnrlo":null,"stnrhi":null,"nrind":null,"pos":null,"loc":null,"dtc":"2024-03-12","dy":"1","visit":"RANDOMIZATION","visitnum":"3.0","epoch":"TREATMENT"},{"seq":"24","testcd":"WEIGHT","test":"Weight","cat":null,"orres":"64.5","orresu":"kg","stresc":"64.5","stresn":"64.5","stresu":"kg","stnrlo":null,"stnrhi":null,"nrind":null,"pos":null,"loc":null,"dtc":"2024-03-12","dy":"1","visit":"RANDOMIZATION","visitnum":"3.0","epoch":"TREATMENT"},{"seq":"25","testcd":"BMI","test":"BMI","cat":null,"orres":null,"orresu":null,"stresc":"19.4","stresn":"19.4","stresu":"kg/m2","stnrlo":null,"stnrhi":null,"nrind":null,"pos":null,"loc":null,"dtc":"2024-03-26","dy":"15","visit":"WEEK 2","visitnum":"4.0","epoch":"TREATMENT"},{"seq":"26","testcd":"DIABP","test":"Diastolic Blood Pressure","cat":null,"orres":"73.2","orresu":"mmHg","stresc":"73.2","stresn":"73.2","stresu":"mmHg","stnrlo":null,"stnrhi":null,"nrind":null,"pos":null,"loc":null,"dtc":"2024-03-26","dy":"15","visit":"WEEK 2","visitnum":"4.0","epoch":"TREATMENT"},{"seq":"27","testcd":"HEIGHT","test":"Height","cat":null,"orres":"180.3","orresu":"cm","stresc":"180.3","stresn":"180.3","stresu":"cm","stnrlo":null,"stnrhi":null,"nrind":null,"pos":null,"loc":null,"dtc":"2024-03-26","dy":"15","visit":"WEEK 2","visitnum":"4.0","epoch":"TREATMENT"},{"seq":"28","testcd":"PULSE","test":"Pulse Rate","cat":null,"orres":"67.2","orresu":"beats/min","stresc":"67.2","stresn":"67.2","stresu":"beats/min","stnrlo":null,"stnrhi":null,"nrind":null,"pos":null,"loc":null,"dtc":"2024-03-26","dy":"15","visit":"WEEK 2","visitnum":"4.0","epoch":"TREATMENT"},{"seq":"29","testcd":"RESP","test":"Respiratory Rate","cat":null,"orres":"12.5","orresu":"breaths/min","stresc":"12.5","stresn":"12.5","stresu":"breaths/min","stnrlo":null,"stnrhi":null,"nrind":null,"pos":null,"loc":null,"dtc":"2024-03-26","dy":"15","visit":"WEEK 2","visitnum":"4.0","epoch":"TREATMENT"},{"seq":"30","testcd":"SYSBP","test":"Systolic Blood Pressure","cat":null,"orres":"101.4","orresu":"mmHg","stresc":"101.4","stresn":"101.4","stresu":"mmHg","stnrlo":null,"stnrhi":null,"nrind":null,"pos":null,"loc":null,"dtc":"2024-03-26","dy":"15","visit":"WEEK 2","visitnum":"4.0","epoch":"TREATMENT"},{"seq":"31","testcd":"TEMP","test":"Temperature","cat":null,"orres":"37.2","orresu":"C","stresc":"37.2","stresn":"37.2","stresu":"C","stnrlo":null,"stnrhi":null,"nrind":null,"pos":null,"loc":null,"dtc":"2024-03-26","dy":"15","visit":"WEEK 2","visitnum":"4.0","epoch":"TREATMENT"},{"seq":"32","testcd":"WEIGHT","test":"Weight","cat":null,"orres":"63.1","orresu":"kg","stresc":"63.1","stresn":"63.1","stresu":"kg","stnrlo":null,"stnrhi":null,"nrind":null,"pos":null,"loc":null,"dtc":"2024-03-26","dy":"15","visit":"WEEK 2","visitnum":"4.0","epoch":"TREATMENT"},{"seq":"33","testcd":"BMI","test":"BMI","cat":null,"orres":null,"orresu":null,"stresc":"19.8","stresn":"19.8","stresu":"kg/m2","stnrlo":null,"stnrhi":null,"nrind":null,"pos":null,"loc":null,"dtc":"2024-04-07","dy":"27","visit":"WEEK 4","visitnum":"5.0","epoch":"TREATMENT"},{"seq":"34","testcd":"DIABP","test":"Diastolic Blood Pressure","cat":null,"orres":"74.6","orresu":"mmHg","stresc":"74.6","stresn":"74.6","stresu":"mmHg","stnrlo":null,"stnrhi":null,"nrind":null,"pos":null,"loc":null,"dtc":"2024-04-07","dy":"27","visit":"WEEK 4","visitnum":"5.0","epoch":"TREATMENT"},{"seq":"35","testcd":"HEIGHT","test":"Height","cat":null,"orres":"179.7","orresu":"cm","stresc":"179.7","stresn":"179.7","stresu":"cm","stnrlo":null,"stnrhi":null,"nrind":null,"pos":null,"loc":null,"dtc":"2024-04-07","dy":"27","visit":"WEEK 4","visitnum":"5.0","epoch":"TREATMENT"},{"seq":"36","testcd":"PULSE","test":"Pulse Rate","cat":null,"orres":"68.7","orresu":"beats/min","stresc":"68.7","stresn":"68.7","stresu":"beats/min","stnrlo":null,"stnrhi":null,"nrind":null,"pos":null,"loc":null,"dtc":"2024-04-07","dy":"27","visit":"WEEK 4","visitnum":"5.0","epoch":"TREATMENT"},{"seq":"37","testcd":"RESP","test":"Respiratory Rate","cat":null,"orres":"12.7","orresu":"breaths/min","stresc":"12.7","stresn":"12.7","stresu":"breaths/min","stnrlo":null,"stnrhi":null,"nrind":null,"pos":null,"loc":null,"dtc":"2024-04-07","dy":"27","visit":"WEEK 4","visitnum":"5.0","epoch":"TREATMENT"},{"seq":"38","testcd":"SYSBP","test":"Systolic Blood Pressure","cat":null,"orres":"102.0","orresu":"mmHg","stresc":"102.0","stresn":"102.0","stresu":"mmHg","stnrlo":null,"stnrhi":null,"nrind":null,"pos":null,"loc":null,"dtc":"2024-04-07","dy":"27","visit":"WEEK 4","visitnum":"5.0","epoch":"TREATMENT"},{"seq":"39","testcd":"TEMP","test":"Temperature","cat":null,"orres":"37.0","orresu":"C","stresc":"37.0","stresn":"37.0","stresu":"C","stnrlo":null,"stnrhi":null,"nrind":null,"pos":null,"loc":null,"dtc":"2024-04-07","dy":"27","visit":"WEEK 4","visitnum":"5.0","epoch":"TREATMENT"},{"seq":"40","testcd":"WEIGHT","test":"Weight","cat":null,"orres":"63.9","orresu":"kg","stresc":"63.9","stresn":"63.9","stresu":"kg","stnrlo":null,"stnrhi":null,"nrind":null,"pos":null,"loc":null,"dtc":"2024-04-07","dy":"27","visit":"WEEK 4","visitnum":"5.0","epoch":"TREATMENT"},{"seq":"41","testcd":"BMI","test":"BMI","cat":null,"orres":null,"orresu":null,"stresc":"20.5","stresn":"20.5","stresu":"kg/m2","stnrlo":null,"stnrhi":null,"nrind":null,"pos":null,"loc":null,"dtc":"2024-05-10","dy":"60","visit":"WEEK 8","visitnum":"6.0","epoch":"TREATMENT"},{"seq":"42","testcd":"DIABP","test":"Diastolic Blood Pressure","cat":null,"orres":"75.6","orresu":"mmHg","stresc":"75.6","stresn":"75.6","stresu":"mmHg","stnrlo":null,"stnrhi":null,"nrind":null,"pos":null,"loc":null,"dtc":"2024-05-10","dy":"60","visit":"WEEK 8","visitnum":"6.0","epoch":"TREATMENT"},{"seq":"43","testcd":"HEIGHT","test":"Height","cat":null,"orres":"179.6","orresu":"cm","stresc":"179.6","stresn":"179.6","stresu":"cm","stnrlo":null,"stnrhi":null,"nrind":null,"pos":null,"loc":null,"dtc":"2024-05-10","dy":"60","visit":"WEEK 8","visitnum":"6.0","epoch":"TREATMENT"},{"seq":"44","testcd":"PULSE","test":"Pulse Rate","cat":null,"orres":"70.5","orresu":"beats/min","stresc":"70.5","stresn":"70.5","stresu":"beats/min","stnrlo":null,"stnrhi":null,"nrind":null,"pos":null,"loc":null,"dtc":"2024-05-10","dy":"60","visit":"WEEK 8","visitnum":"6.0","epoch":"TREATMENT"},{"seq":"45","testcd":"RESP","test":"Respiratory Rate","cat":null,"orres":"12.3","orresu":"breaths/min","stresc":"12.3","stresn":"12.3","stresu":"breaths/min","stnrlo":null,"stnrhi":null,"nrind":null,"pos":null,"loc":null,"dtc":"2024-05-10","dy":"60","visit":"WEEK 8","visitnum":"6.0","epoch":"TREATMENT"},{"seq":"46","testcd":"SYSBP","test":"Systolic Blood Pressure","cat":null,"orres":"104.4","orresu":"mmHg","stresc":"104.4","stresn":"104.4","stresu":"mmHg","stnrlo":null,"stnrhi":null,"nrind":null,"pos":null,"loc":null,"dtc":"2024-05-10","dy":"60","visit":"WEEK 8","visitnum":"6.0","epoch":"TREATMENT"},{"seq":"47","testcd":"TEMP","test":"Temperature","cat":null,"orres":"37.2","orresu":"C","stresc":"37.2","stresn":"37.2","stresu":"C","stnrlo":null,"stnrhi":null,"nrind":null,"pos":null,"loc":null,"dtc":"2024-05-10","dy":"60","visit":"WEEK 8","visitnum":"6.0","epoch":"TREATMENT"},{"seq":"48","testcd":"WEIGHT","test":"Weight","cat":null,"orres":"66.1","orresu":"kg","stresc":"66.1","stresn":"66.1","stresu":"kg","stnrlo":null,"stnrhi":null,"nrind":null,"pos":null,"loc":null,"dtc":"2024-05-10","dy":"60","visit":"WEEK 8","visitnum":"6.0","epoch":"TREATMENT"},{"seq":"49","testcd":"BMI","test":"BMI","cat":null,"orres":null,"orresu":null,"stresc":"20.4","stresn":"20.4","stresu":"kg/m2","stnrlo":null,"stnrhi":null,"nrind":null,"pos":null,"loc":null,"dtc":"2024-05-31","dy":"81","visit":"WEEK 12","visitnum":"7.0","epoch":"TREATMENT"},{"seq":"50","testcd":"DIABP","test":"Diastolic Blood Pressure","cat":null,"orres":"75.6","orresu":"mmHg","stresc":"75.6","stresn":"75.6","stresu":"mmHg","stnrlo":null,"stnrhi":null,"nrind":null,"pos":null,"loc":null,"dtc":"2024-05-31","dy":"81","visit":"WEEK 12","visitnum":"7.0","epoch":"TREATMENT"},{"seq":"51","testcd":"HEIGHT","test":"Height","cat":null,"orres":"179.9","orresu":"cm","stresc":"179.9","stresn":"179.9","stresu":"cm","stnrlo":null,"stnrhi":null,"nrind":null,"pos":null,"loc":null,"dtc":"2024-05-31","dy":"81","visit":"WEEK 12","visitnum":"7.0","epoch":"TREATMENT"},{"seq":"52","testcd":"PULSE","test":"Pulse Rate","cat":null,"orres":"71.8","orresu":"beats/min","stresc":"71.8","stresn":"71.8","stresu":"beats/min","stnrlo":null,"stnrhi":null,"nrind":null,"pos":null,"loc":null,"dtc":"2024-05-31","dy":"81","visit":"WEEK 12","visitnum":"7.0","epoch":"TREATMENT"},{"seq":"53","testcd":"RESP","test":"Respiratory Rate","cat":null,"orres":"13.9","orresu":"breaths/min","stresc":"13.9","stresn":"13.9","stresu":"breaths/min","stnrlo":null,"stnrhi":null,"nrind":null,"pos":null,"loc":null,"dtc":"2024-05-31","dy":"81","visit":"WEEK 12","visitnum":"7.0","epoch":"TREATMENT"},{"seq":"54","testcd":"SYSBP","test":"Systolic Blood Pressure","cat":null,"orres":"104.2","orresu":"mmHg","stresc":"104.2","stresn":"104.2","stresu":"mmHg","stnrlo":null,"stnrhi":null,"nrind":null,"pos":null,"loc":null,"dtc":"2024-05-31","dy":"81","visit":"WEEK 12","visitnum":"7.0","epoch":"TREATMENT"},{"seq":"55","testcd":"TEMP","test":"Temperature","cat":null,"orres":"37.4","orresu":"C","stresc":"37.4","stresn":"37.4","stresu":"C","stnrlo":null,"stnrhi":null,"nrind":null,"pos":null,"loc":null,"dtc":"2024-05-31","dy":"81","visit":"WEEK 12","visitnum":"7.0","epoch":"TREATMENT"},{"seq":"56","testcd":"WEIGHT","test":"Weight","cat":null,"orres":"66.1","orresu":"kg","stresc":"66.1","stresn":"66.1","stresu":"kg","stnrlo":null,"stnrhi":null,"nrind":null,"pos":null,"loc":null,"dtc":"2024-05-31","dy":"81","visit":"WEEK 12","visitnum":"7.0","epoch":"TREATMENT"},{"seq":"57","testcd":"BMI","test":"BMI","cat":null,"orres":null,"orresu":null,"stresc":"20.2","stresn":"20.2","stresu":"kg/m2","stnrlo":null,"stnrhi":null,"nrind":null,"pos":null,"loc":null,"dtc":"2024-07-05","dy":"116","visit":"WEEK 16","visitnum":"8.0","epoch":"TREATMENT"},{"seq":"58","testcd":"DIABP","test":"Diastolic Blood Pressure","cat":null,"orres":"74.9","orresu":"mmHg","stresc":"74.9","stresn":"74.9","stresu":"mmHg","stnrlo":null,"stnrhi":null,"nrind":null,"pos":null,"loc":null,"dtc":"2024-07-05","dy":"116","visit":"WEEK 16","visitnum":"8.0","epoch":"TREATMENT"},{"seq":"59","testcd":"HEIGHT","test":"Height","cat":null,"orres":"180.5","orresu":"cm","stresc":"180.5","stresn":"180.5","stresu":"cm","stnrlo":null,"stnrhi":null,"nrind":null,"pos":null,"loc":null,"dtc":"2024-07-05","dy":"116","visit":"WEEK 16","visitnum":"8.0","epoch":"TREATMENT"},{"seq":"60","testcd":"PULSE","test":"Pulse Rate","cat":null,"orres":"68.7","orresu":"beats/min","stresc":"68.7","stresn":"68.7","stresu":"beats/min","stnrlo":null,"stnrhi":null,"nrind":null,"pos":null,"loc":null,"dtc":"2024-07-05","dy":"116","visit":"WEEK 16","visitnum":"8.0","epoch":"TREATMENT"},{"seq":"61","testcd":"RESP","test":"Respiratory Rate","cat":null,"orres":"13.8","orresu":"breaths/min","stresc":"13.8","stresn":"13.8","stresu":"breaths/min","stnrlo":null,"stnrhi":null,"nrind":null,"pos":null,"loc":null,"dtc":"2024-07-05","dy":"116","visit":"WEEK 16","visitnum":"8.0","epoch":"TREATMENT"},{"seq":"62","testcd":"SYSBP","test":"Systolic Blood Pressure","cat":null,"orres":"100.6","orresu":"mmHg","stresc":"100.6","stresn":"100.6","stresu":"mmHg","stnrlo":null,"stnrhi":null,"nrind":null,"pos":null,"loc":null,"dtc":"2024-07-05","dy":"116","visit":"WEEK 16","visitnum":"8.0","epoch":"TREATMENT"},{"seq":"63","testcd":"TEMP","test":"Temperature","cat":null,"orres":"37.1","orresu":"C","stresc":"37.1","stresn":"37.1","stresu":"C","stnrlo":null,"stnrhi":null,"nrind":null,"pos":null,"loc":null,"dtc":"2024-07-05","dy":"116","visit":"WEEK 16","visitnum":"8.0","epoch":"TREATMENT"},{"seq":"64","testcd":"WEIGHT","test":"Weight","cat":null,"orres":"65.9","orresu":"kg","stresc":"65.9","stresn":"65.9","stresu":"kg","stnrlo":null,"stnrhi":null,"nrind":null,"pos":null,"loc":null,"dtc":"2024-07-05","dy":"116","visit":"WEEK 16","visitnum":"8.0","epoch":"TREATMENT"},{"seq":"65","testcd":"BMI","test":"BMI","cat":null,"orres":null,"orresu":null,"stresc":"20.2","stresn":"20.2","stresu":"kg/m2","stnrlo":null,"stnrhi":null,"nrind":null,"pos":null,"loc":null,"dtc":"2024-07-25","dy":"136","visit":"WEEK 20","visitnum":"9.0","epoch":"TREATMENT"},{"seq":"66","testcd":"DIABP","test":"Diastolic Blood Pressure","cat":null,"orres":"75.8","orresu":"mmHg","stresc":"75.8","stresn":"75.8","stresu":"mmHg","stnrlo":null,"stnrhi":null,"nrind":null,"pos":null,"loc":null,"dtc":"2024-07-25","dy":"136","visit":"WEEK 20","visitnum":"9.0","epoch":"TREATMENT"},{"seq":"67","testcd":"HEIGHT","test":"Height","cat":null,"orres":"180.4","orresu":"cm","stresc":"180.4","stresn":"180.4","stresu":"cm","stnrlo":null,"stnrhi":null,"nrind":null,"pos":null,"loc":null,"dtc":"2024-07-25","dy":"136","visit":"WEEK 20","visitnum":"9.0","epoch":"TREATMENT"},{"seq":"68","testcd":"PULSE","test":"Pulse Rate","cat":null,"orres":"69.2","orresu":"beats/min","stresc":"69.2","stresn":"69.2","stresu":"beats/min","stnrlo":null,"stnrhi":null,"nrind":null,"pos":null,"loc":null,"dtc":"2024-07-25","dy":"136","visit":"WEEK 20","visitnum":"9.0","epoch":"TREATMENT"},{"seq":"69","testcd":"RESP","test":"Respiratory Rate","cat":null,"orres":null,"orresu":null,"stresc":null,"stresn":null,"stresu":null,"stnrlo":null,"stnrhi":null,"nrind":null,"pos":null,"loc":null,"dtc":"2024-07-25","dy":"136","visit":"WEEK 20","visitnum":"9.0","epoch":"TREATMENT"},{"seq":"70","testcd":"SYSBP","test":"Systolic Blood Pressure","cat":null,"orres":"100.4","orresu":"mmHg","stresc":"100.4","stresn":"100.4","stresu":"mmHg","stnrlo":null,"stnrhi":null,"nrind":null,"pos":null,"loc":null,"dtc":"2024-07-25","dy":"136","visit":"WEEK 20","visitnum":"9.0","epoch":"TREATMENT"},{"seq":"71","testcd":"TEMP","test":"Temperature","cat":null,"orres":"37.0","orresu":"C","stresc":"37.0","stresn":"37.0","stresu":"C","stnrlo":null,"stnrhi":null,"nrind":null,"pos":null,"loc":null,"dtc":"2024-07-25","dy":"136","visit":"WEEK 20","visitnum":"9.0","epoch":"TREATMENT"},{"seq":"72","testcd":"WEIGHT","test":"Weight","cat":null,"orres":"65.8","orresu":"kg","stresc":"65.8","stresn":"65.8","stresu":"kg","stnrlo":null,"stnrhi":null,"nrind":null,"pos":null,"loc":null,"dtc":"2024-07-25","dy":"136","visit":"WEEK 20","visitnum":"9.0","epoch":"TREATMENT"},{"seq":"73","testcd":"BMI","test":"BMI","cat":null,"orres":null,"orresu":null,"stresc":"20.1","stresn":"20.1","stresu":"kg/m2","stnrlo":null,"stnrhi":null,"nrind":null,"pos":null,"loc":null,"dtc":"2024-08-29","dy":"171","visit":"WEEK 24 EOT","visitnum":"10.0","epoch":"TREATMENT"},{"seq":"74","testcd":"DIABP","test":"Diastolic Blood Pressure","cat":null,"orres":"76.6","orresu":"mmHg","stresc":"76.6","stresn":"76.6","stresu":"mmHg","stnrlo":null,"stnrhi":null,"nrind":null,"pos":null,"loc":null,"dtc":"2024-08-29","dy":"171","visit":"WEEK 24 EOT","visitnum":"10.0","epoch":"TREATMENT"},{"seq":"75","testcd":"HEIGHT","test":"Height","cat":null,"orres":"180.5","orresu":"cm","stresc":"180.5","stresn":"180.5","stresu":"cm","stnrlo":null,"stnrhi":null,"nrind":null,"pos":null,"loc":null,"dtc":"2024-08-29","dy":"171","visit":"WEEK 24 EOT","visitnum":"10.0","epoch":"TREATMENT"},{"seq":"76","testcd":"PULSE","test":"Pulse Rate","cat":null,"orres":null,"orresu":null,"stresc":null,"stresn":null,"stresu":null,"stnrlo":null,"stnrhi":null,"nrind":null,"pos":null,"loc":null,"dtc":"2024-08-29","dy":"171","visit":"WEEK 24 EOT","visitnum":"10.0","epoch":"TREATMENT"},{"seq":"77","testcd":"RESP","test":"Respiratory Rate","cat":null,"orres":"13.7","orresu":"breaths/min","stresc":"13.7","stresn":"13.7","stresu":"breaths/min","stnrlo":null,"stnrhi":null,"nrind":null,"pos":null,"loc":null,"dtc":"2024-08-29","dy":"171","visit":"WEEK 24 EOT","visitnum":"10.0","epoch":"TREATMENT"},{"seq":"78","testcd":"SYSBP","test":"Systolic Blood Pressure","cat":null,"orres":"101.0","orresu":"mmHg","stresc":"101.0","stresn":"101.0","stresu":"mmHg","stnrlo":null,"stnrhi":null,"nrind":null,"pos":null,"loc":null,"dtc":"2024-08-29","dy":"171","visit":"WEEK 24 EOT","visitnum":"10.0","epoch":"TREATMENT"},{"seq":"79","testcd":"TEMP","test":"Temperature","cat":null,"orres":"37.3","orresu":"C","stresc":"37.3","stresn":"37.3","stresu":"C","stnrlo":null,"stnrhi":null,"nrind":null,"pos":null,"loc":null,"dtc":"2024-08-29","dy":"171","visit":"WEEK 24 EOT","visitnum":"10.0","epoch":"TREATMENT"},{"seq":"80","testcd":"WEIGHT","test":"Weight","cat":null,"orres":"65.4","orresu":"kg","stresc":"65.4","stresn":"65.4","stresu":"kg","stnrlo":null,"stnrhi":null,"nrind":null,"pos":null,"loc":null,"dtc":"2024-08-29","dy":"171","visit":"WEEK 24 EOT","visitnum":"10.0","epoch":"TREATMENT"},{"seq":"81","testcd":"BMI","test":"BMI","cat":null,"orres":null,"orresu":null,"stresc":"19.8","stresn":"19.8","stresu":"kg/m2","stnrlo":null,"stnrhi":null,"nrind":null,"pos":null,"loc":null,"dtc":"2024-09-29","dy":"202","visit":"WEEK 28 SAFETY FU","visitnum":"11.0","epoch":"FOLLOW-UP"},{"seq":"82","testcd":"DIABP","test":"Diastolic Blood Pressure","cat":null,"orres":"75.0","orresu":"mmHg","stresc":"75.0","stresn":"75.0","stresu":"mmHg","stnrlo":null,"stnrhi":null,"nrind":null,"pos":null,"loc":null,"dtc":"2024-09-29","dy":"202","visit":"WEEK 28 SAFETY FU","visitnum":"11.0","epoch":"FOLLOW-UP"},{"seq":"83","testcd":"HEIGHT","test":"Height","cat":null,"orres":"180.3","orresu":"cm","stresc":"180.3","stresn":"180.3","stresu":"cm","stnrlo":null,"stnrhi":null,"nrind":null,"pos":null,"loc":null,"dtc":"2024-09-29","dy":"202","visit":"WEEK 28 SAFETY FU","visitnum":"11.0","epoch":"FOLLOW-UP"},{"seq":"84","testcd":"PULSE","test":"Pulse Rate","cat":null,"orres":"71.4","orresu":"beats/min","stresc":"71.4","stresn":"71.4","stresu":"beats/min","stnrlo":null,"stnrhi":null,"nrind":null,"pos":null,"loc":null,"dtc":"2024-09-29","dy":"202","visit":"WEEK 28 SAFETY FU","visitnum":"11.0","epoch":"FOLLOW-UP"},{"seq":"85","testcd":"RESP","test":"Respiratory Rate","cat":null,"orres":"13.4","orresu":"breaths/min","stresc":"13.4","stresn":"13.4","stresu":"breaths/min","stnrlo":null,"stnrhi":null,"nrind":null,"pos":null,"loc":null,"dtc":"2024-09-29","dy":"202","visit":"WEEK 28 SAFETY FU","visitnum":"11.0","epoch":"FOLLOW-UP"},{"seq":"86","testcd":"SYSBP","test":"Systolic Blood Pressure","cat":null,"orres":"98.0","orresu":"mmHg","stresc":"98.0","stresn":"98.0","stresu":"mmHg","stnrlo":null,"stnrhi":null,"nrind":null,"pos":null,"loc":null,"dtc":"2024-09-29","dy":"202","visit":"WEEK 28 SAFETY FU","visitnum":"11.0","epoch":"FOLLOW-UP"},{"seq":"87","testcd":"TEMP","test":"Temperature","cat":null,"orres":"37.2","orresu":"C","stresc":"37.2","stresn":"37.2","stresu":"C","stnrlo":null,"stnrhi":null,"nrind":null,"pos":null,"loc":null,"dtc":"2024-09-29","dy":"202","visit":"WEEK 28 SAFETY FU","visitnum":"11.0","epoch":"FOLLOW-UP"},{"seq":"88","testcd":"WEIGHT","test":"Weight","cat":null,"orres":"64.4","orresu":"kg","stresc":"64.4","stresn":"64.4","stresu":"kg","stnrlo":null,"stnrhi":null,"nrind":null,"pos":null,"loc":null,"dtc":"2024-09-29","dy":"202","visit":"WEEK 28 SAFETY FU","visitnum":"11.0","epoch":"FOLLOW-UP"}]},"section_10_questionnaires_and_scores":{"questionnaires":[],"findings_about":[]},"section_11_protocol_deviations":{"deviations":[{"seq":"1","term":"Visit WEEK 2 occurred 0 days late (Day 15 vs planned Day 15)","decod":"VISIT OCCURRED OUTSIDE VISIT WINDOW","cat":"MINOR","scat":"VISIT WINDOW","start_dtc":"2024-03-26","end_dtc":null,"visit":null},{"seq":"2","term":"Missed PLACEBO dose on 2024-03-30","decod":"MISSED DOSE","cat":"MINOR","scat":"DOSING","start_dtc":"2024-03-30","end_dtc":null,"visit":null},{"seq":"3","term":"Missed PLACEBO dose on 2024-04-04","decod":"MISSED DOSE","cat":"MINOR","scat":"DOSING","start_dtc":"2024-04-04","end_dtc":null,"visit":null},{"seq":"4","term":"Missed PLACEBO dose on 2024-05-02","decod":"MISSED DOSE","cat":"MINOR","scat":"DOSING","start_dtc":"2024-05-02","end_dtc":null,"visit":null},{"seq":"5","term":"Missed PLACEBO dose on 2024-05-06","decod":"MISSED DOSE","cat":"MINOR","scat":"DOSING","start_dtc":"2024-05-06","end_dtc":null,"visit":null},{"seq":"6","term":"Visit WEEK 8 occurred 3 days late (Day 60 vs planned Day 57)","decod":"VISIT OCCURRED OUTSIDE VISIT WINDOW","cat":"MINOR","scat":"VISIT WINDOW","start_dtc":"2024-05-10","end_dtc":null,"visit":null},{"seq":"7","term":"Missed PLACEBO dose on 2024-05-29","decod":"MISSED DOSE","cat":"MINOR","scat":"DOSING","start_dtc":"2024-05-29","end_dtc":null,"visit":null},{"seq":"8","term":"Missed PLACEBO dose on 2024-05-30","decod":"MISSED DOSE","cat":"MINOR","scat":"DOSING","start_dtc":"2024-05-30","end_dtc":null,"visit":null},{"seq":"9","term":"Missed PLACEBO dose on 2024-06-11","decod":"MISSED DOSE","cat":"MINOR","scat":"DOSING","start_dtc":"2024-06-11","end_dtc":null,"visit":null},{"seq":"10","term":"Missed PLACEBO dose on 2024-06-17","decod":"MISSED DOSE","cat":"MINOR","scat":"DOSING","start_dtc":"2024-06-17","end_dtc":null,"visit":null},{"seq":"11","term":"Visit WEEK 16 occurred 3 days late (Day 116 vs planned Day 113)","decod":"VISIT OCCURRED OUTSIDE VISIT WINDOW","cat":"MINOR","scat":"VISIT WINDOW","start_dtc":"2024-07-05","end_dtc":null,"visit":null},{"seq":"12","term":"Visit WEEK 20 occurred 5 days early (Day 136 vs planned Day 141)","decod":"VISIT OCCURRED OUTSIDE VISIT WINDOW","cat":"MINOR","scat":"VISIT WINDOW","start_dtc":"2024-07-25","end_dtc":null,"visit":null}],"total":12},"section_12_disposition":{"completion_status":"COMPLETED","disposition_records":[{"seq":"1","term":"INFORMED CONSENT OBTAINED","decod":"INFORMED CONSENT OBTAINED","cat":"PROTOCOL MILESTONE","scat":null,"dtc":"2024-02-12","dy":null,"visit":null,"epoch":"SCREENING"},{"seq":"2","term":"RANDOMIZED","decod":"RANDOMIZED","cat":"PROTOCOL MILESTONE","scat":null,"dtc":"2024-03-12","dy":null,"visit":null,"epoch":"RUN_IN"},{"seq":"3","term":"COMPLETED","decod":"COMPLETED","cat":"DISPOSITION EVENT","scat":null,"dtc":"2024-11-04","dy":null,"visit":null,"epoch":"FOLLOW-UP"}],"death":null},"section_13_hospitalizations":{"items":[],"total":0},"section_14_substance_use":{"items":[{"seq":"1","substance":"BEER/WINE/SPIRITS","decod":"ETHANOL","cat":"ALCOHOL","scat":null,"usage":"Y","dose":null,"dosu":null,"freq":null,"start_dtc":"1997-02-18","end_dtc":"2005-02-16"},{"seq":"2","substance":"COFFEE","decod":"COFFEE","cat":"CAFFEINE","scat":null,"usage":"Y","dose":"4.0","dosu":"CUPS/DAY","freq":"QD","start_dtc":"1998-02-18","end_dtc":null},{"seq":"3","substance":"CIGARETTES","decod":"CIGARETTES","cat":"TOBACCO","scat":null,"usage":"N","dose":null,"dosu":null,"freq":null,"start_dtc":null,"end_dtc":null}],"total":3},"section_15_subject_status":{"items":[{"seq":"1","testcd":"SURVSTAT","test":"Survival Status","orres":"ALIVE","stresc":"ALIVE","dtc":"2024-11-04","visit":null,"epoch":"FOLLOW-UP"}],"total":1}}