{"subject_id":"GB001-2001-USA_SITE01-0011","study_id":"GB001-2001","generated_at":"2026-07-07T05:10:47.233303+00:00","sdtmig_version":"3.4","flags":{"has_serious_ae":false,"has_fatal_ae":false,"has_protocol_deviation":true,"n_protocol_deviations":3,"n_adverse_events":5,"n_concomitant_meds":4,"max_ae_severity":"MODERATE","screen_failure":false,"discontinued_early":false,"discontinuation_reason":null,"death":false,"exposure_days":167},"timeline":[{"dtc":"2024-01-29","dy":"-75","event":"VISIT: SCREENING","domain":"SV","category":"visit"},{"dtc":"2024-02-24","dy":"-49","event":"VISIT: RUN-IN START","domain":"SV","category":"visit"},{"dtc":"2024-03-31","dy":"-13","event":"INFORMED CONSENT OBTAINED","domain":"DS","category":"milestone"},{"dtc":"2024-04-13","dy":"1","event":"RANDOMIZED","domain":"DS","category":"milestone"},{"dtc":"2024-04-13","dy":"1","event":"FIRST DOSE: GB001","domain":"EX","category":"exposure"},{"dtc":"2024-04-13","dy":"1","event":"VISIT: RANDOMIZATION","domain":"SV","category":"visit"},{"dtc":"2024-04-14","dy":"2","event":"AE: Headache (MODERATE)","domain":"AE","category":"adverse_event"},{"dtc":"2024-04-20","dy":"8","event":"AE: Back pain (MODERATE)","domain":"AE","category":"adverse_event"},{"dtc":"2024-04-20","dy":"8","event":"CM START: IBUPROFEN","domain":"CM","category":"concomitant_med"},{"dtc":"2024-04-24","dy":"12","event":"DEVIATION: MISSED ASSESSMENT","domain":"DV","category":"deviation"},{"dtc":"2024-04-24","dy":"12","event":"VISIT: WEEK 2","domain":"SV","category":"visit"},{"dtc":"2024-05-12","dy":"30","event":"VISIT: WEEK 4","domain":"SV","category":"visit"},{"dtc":"2024-06-04","dy":"53","event":"VISIT: WEEK 8","domain":"SV","category":"visit"},{"dtc":"2024-07-05","dy":"84","event":"VISIT: WEEK 12","domain":"SV","category":"visit"},{"dtc":"2024-07-23","dy":"102","event":"AE: Nausea (MILD)","domain":"AE","category":"adverse_event"},{"dtc":"2024-08-03","dy":"113","event":"VISIT: WEEK 16","domain":"SV","category":"visit"},{"dtc":"2024-08-26","dy":"136","event":"VISIT: WEEK 20","domain":"SV","category":"visit"},{"dtc":"2024-08-27","dy":"137","event":"AE: Nausea (MODERATE)","domain":"AE","category":"adverse_event"},{"dtc":"2024-08-27","dy":"137","event":"CM START: ONDANSETRON","domain":"CM","category":"concomitant_med"},{"dtc":"2024-09-04","dy":"145","event":"CM START: OMEPRAZOLE","domain":"CM","category":"concomitant_med"},{"dtc":"2024-09-05","dy":"146","event":"AE: Nausea (MODERATE)","domain":"AE","category":"adverse_event"},{"dtc":"2024-09-05","dy":"146","event":"CM START: METOCLOPRAMIDE","domain":"CM","category":"concomitant_med"},{"dtc":"2024-09-27","dy":"168","event":"LAST DOSE: GB001","domain":"EX","category":"exposure"},{"dtc":"2024-10-02","dy":"173","event":"DEVIATION: VISIT OCCURRED OUTSIDE VISIT WINDOW","domain":"DV","category":"deviation"},{"dtc":"2024-10-02","dy":"173","event":"VISIT: WEEK 24 EOT","domain":"SV","category":"visit"},{"dtc":"2024-10-27","dy":"198","event":"DEVIATION: VISIT OCCURRED OUTSIDE VISIT WINDOW","domain":"DV","category":"deviation"},{"dtc":"2024-10-27","dy":"198","event":"VISIT: WEEK 28 SAFETY FU","domain":"SV","category":"visit"},{"dtc":"2024-12-06","dy":"238","event":"COMPLETED","domain":"DS","category":"milestone"}],"section_1_demographics":{"usubjid":"GB001-2001-USA_SITE01-0011","subjid":"0011","siteid":"USA_SITE01","age":"35","ageu":"YEARS","sex":"F","race":"WHITE","ethnicity":"NOT HISPANIC OR LATINO","country":"USA","arm":"GB001 60 mg QD","armcd":"GB001_60","actarm":"GB001 60 mg QD","actarmcd":"GB001_60","randomization_date":null,"informed_consent_date":"2024-03-31","reference_start_date":"2024-04-13","reference_end_date":"2024-12-06","screen_failure":false,"death_flag":null,"death_date":null,"subject_characteristics":[{"testcd":"ALCUSE","test":"Alcohol Use","orres":"NON-DRINKER","stresc":"NON-DRINKER","visit":null,"dtc":"2024-03-31"},{"testcd":"BMI","test":"Body Mass Index","orres":"29.3","stresc":"29.3","visit":null,"dtc":"2024-03-31"},{"testcd":"DURDIS","test":"Duration of Disease","orres":"170 months","stresc":"170","visit":null,"dtc":"2024-03-31"},{"testcd":"TOBUSE","test":"Tobacco Use","orres":"NEVER SMOKED","stresc":"NEVER SMOKED","visit":null,"dtc":"2024-03-31"}]},"section_2_medical_history":{"items":[{"seq":"1","term":"ALLERGIC RHINITIS","decod":"ALLERGIC RHINITIS","cat":"RESPIRATORY","scat":null,"presp":null,"occur":null,"status":null,"onset_dtc":"2017-04-02","end_dtc":"2017-06-25","visit":null},{"seq":"2","term":"ECZEMA","decod":"ECZEMA","cat":"DERMATOLOGICAL","scat":null,"presp":null,"occur":null,"status":null,"onset_dtc":"2010-04-04","end_dtc":"2019-09-21","visit":null},{"seq":"3","term":"GASTROESOPHAGEAL REFLUX DISEASE","decod":"GASTROESOPHAGEAL REFLUX DISEASE","cat":"GASTROINTESTINAL","scat":null,"presp":null,"occur":null,"status":null,"onset_dtc":"2015-04-03","end_dtc":"2019-04-17","visit":null}]},"section_3_inclusion_exclusion":{"criteria":[]},"section_4_trial_participation":{"visits":[{"visitnum":"1.0","visit":"SCREENING","start_dtc":"2024-01-29","end_dtc":"2024-01-29","updes":null},{"visitnum":"2.0","visit":"RUN-IN START","start_dtc":"2024-02-24","end_dtc":"2024-02-24","updes":null},{"visitnum":"3.0","visit":"RANDOMIZATION","start_dtc":"2024-04-13","end_dtc":"2024-04-13","updes":null},{"visitnum":"4.0","visit":"WEEK 2","start_dtc":"2024-04-24","end_dtc":"2024-04-24","updes":null},{"visitnum":"5.0","visit":"WEEK 4","start_dtc":"2024-05-12","end_dtc":"2024-05-12","updes":null},{"visitnum":"6.0","visit":"WEEK 8","start_dtc":"2024-06-04","end_dtc":"2024-06-04","updes":null},{"visitnum":"7.0","visit":"WEEK 12","start_dtc":"2024-07-05","end_dtc":"2024-07-05","updes":null},{"visitnum":"8.0","visit":"WEEK 16","start_dtc":"2024-08-03","end_dtc":"2024-08-03","updes":null},{"visitnum":"9.0","visit":"WEEK 20","start_dtc":"2024-08-26","end_dtc":"2024-08-26","updes":null},{"visitnum":"10.0","visit":"WEEK 24 EOT","start_dtc":"2024-10-02","end_dtc":"2024-10-02","updes":null},{"visitnum":"11.0","visit":"WEEK 28 SAFETY FU","start_dtc":"2024-10-27","end_dtc":"2024-10-27","updes":null}],"epochs":[{"seq":"1","etcd":"SCRN","element":"Screening","start_dtc":"2024-03-30","end_dtc":"2024-04-13","updes":null},{"seq":"2","etcd":"RUNIN","element":"eDiary run-in","start_dtc":"2024-04-13","end_dtc":"2024-05-11","updes":null},{"seq":"3","etcd":"TRT","element":"Treatment","start_dtc":"2024-05-11","end_dtc":"2024-10-26","updes":null},{"seq":"4","etcd":"FU","element":"Safety follow-up","start_dtc":"2024-10-26","end_dtc":"2024-11-22","updes":null}],"visit_count":11},"section_5_concomitant_medications":{"medications":[{"seq":"1","trt":"IBUPROFEN","decod":"IBUPROFEN","cat":"CONCOMITANT","dose":"400","doseu":null,"dosef":"TID","route":"ORAL","indication":"BACK PAIN","start_dtc":"2024-04-20","end_dtc":"2024-04-23","ongoing":null,"visit":null},{"seq":"2","trt":"ONDANSETRON","decod":"ONDANSETRON","cat":"CONCOMITANT","dose":"4","doseu":null,"dosef":"PRN","route":"ORAL","indication":"NAUSEA","start_dtc":"2024-08-27","end_dtc":"2024-09-08","ongoing":null,"visit":null},{"seq":"3","trt":"OMEPRAZOLE","decod":"OMEPRAZOLE","cat":"CONCOMITANT","dose":null,"doseu":null,"dosef":"QD","route":"ORAL","indication":null,"start_dtc":"2024-09-04","end_dtc":"2024-09-21","ongoing":null,"visit":null},{"seq":"4","trt":"METOCLOPRAMIDE","decod":"METOCLOPRAMIDE","cat":"CONCOMITANT","dose":"10","doseu":null,"dosef":"TID","route":"ORAL","indication":"NAUSEA","start_dtc":"2024-09-05","end_dtc":"2024-09-17","ongoing":null,"visit":null}]},"section_6_exposure":{"exposure_as_administered":[{"seq":"1","trt":"GB001","dose":"60.0","doseu":null,"dosef":"QD","route":"ORAL","lot":null,"start_dtc":"2024-04-13","end_dtc":"2024-04-13","start_dy":"1","end_dy":"1","epoch":"RUN_IN","visit":null},{"seq":"2","trt":"GB001","dose":"60.0","doseu":null,"dosef":"QD","route":"ORAL","lot":null,"start_dtc":"2024-04-20","end_dtc":"2024-09-27","start_dy":"8","end_dy":"168","epoch":"RUN_IN","visit":null}],"exposure_as_collected":[{"seq":"1","trt":"GB001","dose":"60.0","doseu":null,"dosef":"QD","route":"ORAL","start_dtc":"2024-04-13","end_dtc":"2024-04-13","visit":"RANDOMIZATION"},{"seq":"2","trt":"GB001","dose":"60.0","doseu":null,"dosef":"QD","route":"ORAL","start_dtc":"2024-04-14","end_dtc":"2024-04-14","visit":"RANDOMIZATION"},{"seq":"3","trt":"GB001","dose":"60.0","doseu":null,"dosef":"QD","route":"ORAL","start_dtc":"2024-04-15","end_dtc":"2024-04-15","visit":"RANDOMIZATION"},{"seq":"4","trt":"GB001","dose":"60.0","doseu":null,"dosef":"QD","route":"ORAL","start_dtc":"2024-04-16","end_dtc":"2024-04-16","visit":"RANDOMIZATION"},{"seq":"5","trt":"GB001","dose":"60.0","doseu":null,"dosef":"QD","route":"ORAL","start_dtc":"2024-04-17","end_dtc":"2024-04-17","visit":null},{"seq":"6","trt":"GB001","dose":"60.0","doseu":null,"dosef":"QD","route":"ORAL","start_dtc":"2024-04-18","end_dtc":"2024-04-18","visit":null},{"seq":"7","trt":"GB001","dose":"60.0","doseu":null,"dosef":"QD","route":"ORAL","start_dtc":"2024-04-19","end_dtc":"2024-04-19","visit":null},{"seq":"8","trt":"GB001","dose":"60.0","doseu":null,"dosef":"QD","route":"ORAL","start_dtc":"2024-04-20","end_dtc":"2024-04-20","visit":null},{"seq":"9","trt":"GB001","dose":"60.0","doseu":null,"dosef":"QD","route":"ORAL","start_dtc":"2024-04-21","end_dtc":"2024-04-21","visit":null},{"seq":"10","trt":"GB001","dose":"60.0","doseu":null,"dosef":"QD","route":"ORAL","start_dtc":"2024-04-22","end_dtc":"2024-04-22","visit":null},{"seq":"11","trt":"GB001","dose":"60.0","doseu":null,"dosef":"QD","route":"ORAL","start_dtc":"2024-04-23","end_dtc":"2024-04-23","visit":null},{"seq":"12","trt":"GB001","dose":"60.0","doseu":null,"dosef":"QD","route":"ORAL","start_dtc":"2024-04-24","end_dtc":"2024-04-24","visit":"WEEK 2"},{"seq":"13","trt":"GB001","dose":"60.0","doseu":null,"dosef":"QD","route":"ORAL","start_dtc":"2024-04-25","end_dtc":"2024-04-25","visit":"WEEK 2"},{"seq":"14","trt":"GB001","dose":"60.0","doseu":null,"dosef":"QD","route":"ORAL","start_dtc":"2024-04-26","end_dtc":"2024-04-26","visit":"WEEK 2"},{"seq":"15","trt":"GB001","dose":"60.0","doseu":null,"dosef":"QD","route":"ORAL","start_dtc":"2024-04-27","end_dtc":"2024-04-27","visit":"WEEK 2"},{"seq":"16","trt":"GB001","dose":"60.0","doseu":null,"dosef":"QD","route":"ORAL","start_dtc":"2024-04-28","end_dtc":"2024-04-28","visit":"WEEK 2"},{"seq":"17","trt":"GB001","dose":"60.0","doseu":null,"dosef":"QD","route":"ORAL","start_dtc":"2024-04-29","end_dtc":"2024-04-29","visit":"WEEK 2"},{"seq":"18","trt":"GB001","dose":"60.0","doseu":null,"dosef":"QD","route":"ORAL","start_dtc":"2024-04-30","end_dtc":"2024-04-30","visit":"WEEK 2"},{"seq":"19","trt":"GB001","dose":"60.0","doseu":null,"dosef":"QD","route":"ORAL","start_dtc":"2024-05-01","end_dtc":"2024-05-01","visit":null},{"seq":"20","trt":"GB001","dose":"60.0","doseu":null,"dosef":"QD","route":"ORAL","start_dtc":"2024-05-02","end_dtc":"2024-05-02","visit":null},{"seq":"21","trt":"GB001","dose":"60.0","doseu":null,"dosef":"QD","route":"ORAL","start_dtc":"2024-05-03","end_dtc":"2024-05-03","visit":null},{"seq":"22","trt":"GB001","dose":"60.0","doseu":null,"dosef":"QD","route":"ORAL","start_dtc":"2024-05-04","end_dtc":"2024-05-04","visit":null},{"seq":"23","trt":"GB001","dose":"60.0","doseu":null,"dosef":"QD","route":"ORAL","start_dtc":"2024-05-05","end_dtc":"2024-05-05","visit":null},{"seq":"24","trt":"GB001","dose":"60.0","doseu":null,"dosef":"QD","route":"ORAL","start_dtc":"2024-05-06","end_dtc":"2024-05-06","visit":null},{"seq":"25","trt":"GB001","dose":"60.0","doseu":null,"dosef":"QD","route":"ORAL","start_dtc":"2024-05-07","end_dtc":"2024-05-07","visit":null},{"seq":"26","trt":"GB001","dose":"60.0","doseu":null,"dosef":"QD","route":"ORAL","start_dtc":"2024-05-08","end_dtc":"2024-05-08","visit":"WEEK 4"},{"seq":"27","trt":"GB001","dose":"60.0","doseu":null,"dosef":"QD","route":"ORAL","start_dtc":"2024-05-09","end_dtc":"2024-05-09","visit":"WEEK 4"},{"seq":"28","trt":"GB001","dose":"60.0","doseu":null,"dosef":"QD","route":"ORAL","start_dtc":"2024-05-10","end_dtc":"2024-05-10","visit":"WEEK 4"},{"seq":"29","trt":"GB001","dose":"60.0","doseu":null,"dosef":"QD","route":"ORAL","start_dtc":"2024-05-11","end_dtc":"2024-05-11","visit":"WEEK 4"},{"seq":"30","trt":"GB001","dose":"60.0","doseu":null,"dosef":"QD","route":"ORAL","start_dtc":"2024-05-12","end_dtc":"2024-05-12","visit":"WEEK 4"},{"seq":"31","trt":"GB001","dose":"60.0","doseu":null,"dosef":"QD","route":"ORAL","start_dtc":"2024-05-13","end_dtc":"2024-05-13","visit":"WEEK 4"},{"seq":"32","trt":"GB001","dose":"60.0","doseu":null,"dosef":"QD","route":"ORAL","start_dtc":"2024-05-14","end_dtc":"2024-05-14","visit":"WEEK 4"},{"seq":"33","trt":"GB001","dose":"60.0","doseu":null,"dosef":"QD","route":"ORAL","start_dtc":"2024-05-15","end_dtc":"2024-05-15","visit":null},{"seq":"34","trt":"GB001","dose":"60.0","doseu":null,"dosef":"QD","route":"ORAL","start_dtc":"2024-05-16","end_dtc":"2024-05-16","visit":null},{"seq":"35","trt":"GB001","dose":"60.0","doseu":null,"dosef":"QD","route":"ORAL","start_dtc":"2024-05-17","end_dtc":"2024-05-17","visit":null},{"seq":"36","trt":"GB001","dose":"60.0","doseu":null,"dosef":"QD","route":"ORAL","start_dtc":"2024-05-18","end_dtc":"2024-05-18","visit":null},{"seq":"37","trt":"GB001","dose":"60.0","doseu":null,"dosef":"QD","route":"ORAL","start_dtc":"2024-05-19","end_dtc":"2024-05-19","visit":null},{"seq":"38","trt":"GB001","dose":"60.0","doseu":null,"dosef":"QD","route":"ORAL","start_dtc":"2024-05-20","end_dtc":"2024-05-20","visit":null},{"seq":"39","trt":"GB001","dose":"60.0","doseu":null,"dosef":"QD","route":"ORAL","start_dtc":"2024-05-21","end_dtc":"2024-05-21","visit":null},{"seq":"40","trt":"GB001","dose":"60.0","doseu":null,"dosef":"QD","route":"ORAL","start_dtc":"2024-05-22","end_dtc":"2024-05-22","visit":null},{"seq":"41","trt":"GB001","dose":"60.0","doseu":null,"dosef":"QD","route":"ORAL","start_dtc":"2024-05-23","end_dtc":"2024-05-23","visit":null},{"seq":"42","trt":"GB001","dose":"60.0","doseu":null,"dosef":"QD","route":"ORAL","start_dtc":"2024-05-24","end_dtc":"2024-05-24","visit":null},{"seq":"43","trt":"GB001","dose":"60.0","doseu":null,"dosef":"QD","route":"ORAL","start_dtc":"2024-05-25","end_dtc":"2024-05-25","visit":null},{"seq":"44","trt":"GB001","dose":"60.0","doseu":null,"dosef":"QD","route":"ORAL","start_dtc":"2024-05-26","end_dtc":"2024-05-26","visit":null},{"seq":"45","trt":"GB001","dose":"60.0","doseu":null,"dosef":"QD","route":"ORAL","start_dtc":"2024-05-27","end_dtc":"2024-05-27","visit":null},{"seq":"46","trt":"GB001","dose":"60.0","doseu":null,"dosef":"QD","route":"ORAL","start_dtc":"2024-05-28","end_dtc":"2024-05-28","visit":null},{"seq":"47","trt":"GB001","dose":"60.0","doseu":null,"dosef":"QD","route":"ORAL","start_dtc":"2024-05-29","end_dtc":"2024-05-29","visit":null},{"seq":"48","trt":"GB001","dose":"60.0","doseu":null,"dosef":"QD","route":"ORAL","start_dtc":"2024-05-30","end_dtc":"2024-05-30","visit":null},{"seq":"49","trt":"GB001","dose":"60.0","doseu":null,"dosef":"QD","route":"ORAL","start_dtc":"2024-05-31","end_dtc":"2024-05-31","visit":null},{"seq":"50","trt":"GB001","dose":"60.0","doseu":null,"dosef":"QD","route":"ORAL","start_dtc":"2024-06-01","end_dtc":"2024-06-01","visit":null},{"seq":"51","trt":"GB001","dose":"60.0","doseu":null,"dosef":"QD","route":"ORAL","start_dtc":"2024-06-02","end_dtc":"2024-06-02","visit":null},{"seq":"52","trt":"GB001","dose":"60.0","doseu":null,"dosef":"QD","route":"ORAL","start_dtc":"2024-06-03","end_dtc":"2024-06-03","visit":null},{"seq":"53","trt":"GB001","dose":"60.0","doseu":null,"dosef":"QD","route":"ORAL","start_dtc":"2024-06-04","end_dtc":"2024-06-04","visit":null},{"seq":"54","trt":"GB001","dose":"60.0","doseu":null,"dosef":"QD","route":"ORAL","start_dtc":"2024-06-05","end_dtc":"2024-06-05","visit":"WEEK 8"},{"seq":"55","trt":"GB001","dose":"60.0","doseu":null,"dosef":"QD","route":"ORAL","start_dtc":"2024-06-06","end_dtc":"2024-06-06","visit":"WEEK 8"},{"seq":"56","trt":"GB001","dose":"60.0","doseu":null,"dosef":"QD","route":"ORAL","start_dtc":"2024-06-07","end_dtc":"2024-06-07","visit":"WEEK 8"},{"seq":"57","trt":"GB001","dose":"60.0","doseu":null,"dosef":"QD","route":"ORAL","start_dtc":"2024-06-08","end_dtc":"2024-06-08","visit":"WEEK 8"},{"seq":"58","trt":"GB001","dose":"60.0","doseu":null,"dosef":"QD","route":"ORAL","start_dtc":"2024-06-09","end_dtc":"2024-06-09","visit":"WEEK 8"},{"seq":"59","trt":"GB001","dose":"60.0","doseu":null,"dosef":"QD","route":"ORAL","start_dtc":"2024-06-10","end_dtc":"2024-06-10","visit":"WEEK 8"},{"seq":"60","trt":"GB001","dose":"60.0","doseu":null,"dosef":"QD","route":"ORAL","start_dtc":"2024-06-11","end_dtc":"2024-06-11","visit":"WEEK 8"},{"seq":"61","trt":"GB001","dose":"60.0","doseu":null,"dosef":"QD","route":"ORAL","start_dtc":"2024-06-12","end_dtc":"2024-06-12","visit":null},{"seq":"62","trt":"GB001","dose":"60.0","doseu":null,"dosef":"QD","route":"ORAL","start_dtc":"2024-06-13","end_dtc":"2024-06-13","visit":null},{"seq":"63","trt":"GB001","dose":"60.0","doseu":null,"dosef":"QD","route":"ORAL","start_dtc":"2024-06-14","end_dtc":"2024-06-14","visit":null},{"seq":"64","trt":"GB001","dose":"60.0","doseu":null,"dosef":"QD","route":"ORAL","start_dtc":"2024-06-15","end_dtc":"2024-06-15","visit":null},{"seq":"65","trt":"GB001","dose":"60.0","doseu":null,"dosef":"QD","route":"ORAL","start_dtc":"2024-06-16","end_dtc":"2024-06-16","visit":null},{"seq":"66","trt":"GB001","dose":"60.0","doseu":null,"dosef":"QD","route":"ORAL","start_dtc":"2024-06-17","end_dtc":"2024-06-17","visit":null},{"seq":"67","trt":"GB001","dose":"60.0","doseu":null,"dosef":"QD","route":"ORAL","start_dtc":"2024-06-18","end_dtc":"2024-06-18","visit":null},{"seq":"68","trt":"GB001","dose":"60.0","doseu":null,"dosef":"QD","route":"ORAL","start_dtc":"2024-06-19","end_dtc":"2024-06-19","visit":null},{"seq":"69","trt":"GB001","dose":"60.0","doseu":null,"dosef":"QD","route":"ORAL","start_dtc":"2024-06-20","end_dtc":"2024-06-20","visit":null},{"seq":"70","trt":"GB001","dose":"60.0","doseu":null,"dosef":"QD","route":"ORAL","start_dtc":"2024-06-21","end_dtc":"2024-06-21","visit":null},{"seq":"71","trt":"GB001","dose":"60.0","doseu":null,"dosef":"QD","route":"ORAL","start_dtc":"2024-06-22","end_dtc":"2024-06-22","visit":null},{"seq":"72","trt":"GB001","dose":"60.0","doseu":null,"dosef":"QD","route":"ORAL","start_dtc":"2024-06-23","end_dtc":"2024-06-23","visit":null},{"seq":"73","trt":"GB001","dose":"60.0","doseu":null,"dosef":"QD","route":"ORAL","start_dtc":"2024-06-24","end_dtc":"2024-06-24","visit":null},{"seq":"74","trt":"GB001","dose":"60.0","doseu":null,"dosef":"QD","route":"ORAL","start_dtc":"2024-06-25","end_dtc":"2024-06-25","visit":null},{"seq":"75","trt":"GB001","dose":"60.0","doseu":null,"dosef":"QD","route":"ORAL","start_dtc":"2024-06-26","end_dtc":"2024-06-26","visit":null},{"seq":"76","trt":"GB001","dose":"60.0","doseu":null,"dosef":"QD","route":"ORAL","start_dtc":"2024-06-27","end_dtc":"2024-06-27","visit":null},{"seq":"77","trt":"GB001","dose":"60.0","doseu":null,"dosef":"QD","route":"ORAL","start_dtc":"2024-06-28","end_dtc":"2024-06-28","visit":null},{"seq":"78","trt":"GB001","dose":"60.0","doseu":null,"dosef":"QD","route":"ORAL","start_dtc":"2024-06-29","end_dtc":"2024-06-29","visit":null},{"seq":"79","trt":"GB001","dose":"60.0","doseu":null,"dosef":"QD","route":"ORAL","start_dtc":"2024-06-30","end_dtc":"2024-06-30","visit":null},{"seq":"80","trt":"GB001","dose":"60.0","doseu":null,"dosef":"QD","route":"ORAL","start_dtc":"2024-07-01","end_dtc":"2024-07-01","visit":null},{"seq":"81","trt":"GB001","dose":"60.0","doseu":null,"dosef":"QD","route":"ORAL","start_dtc":"2024-07-02","end_dtc":"2024-07-02","visit":null},{"seq":"82","trt":"GB001","dose":"60.0","doseu":null,"dosef":"QD","route":"ORAL","start_dtc":"2024-07-03","end_dtc":"2024-07-03","visit":"WEEK 12"},{"seq":"83","trt":"GB001","dose":"60.0","doseu":null,"dosef":"QD","route":"ORAL","start_dtc":"2024-07-04","end_dtc":"2024-07-04","visit":"WEEK 12"},{"seq":"84","trt":"GB001","dose":"60.0","doseu":null,"dosef":"QD","route":"ORAL","start_dtc":"2024-07-05","end_dtc":"2024-07-05","visit":"WEEK 12"},{"seq":"85","trt":"GB001","dose":"60.0","doseu":null,"dosef":"QD","route":"ORAL","start_dtc":"2024-07-06","end_dtc":"2024-07-06","visit":"WEEK 12"},{"seq":"86","trt":"GB001","dose":"60.0","doseu":null,"dosef":"QD","route":"ORAL","start_dtc":"2024-07-07","end_dtc":"2024-07-07","visit":"WEEK 12"},{"seq":"87","trt":"GB001","dose":"60.0","doseu":null,"dosef":"QD","route":"ORAL","start_dtc":"2024-07-08","end_dtc":"2024-07-08","visit":"WEEK 12"},{"seq":"88","trt":"GB001","dose":"60.0","doseu":null,"dosef":"QD","route":"ORAL","start_dtc":"2024-07-09","end_dtc":"2024-07-09","visit":"WEEK 12"},{"seq":"89","trt":"GB001","dose":"60.0","doseu":null,"dosef":"QD","route":"ORAL","start_dtc":"2024-07-10","end_dtc":"2024-07-10","visit":null},{"seq":"90","trt":"GB001","dose":"60.0","doseu":null,"dosef":"QD","route":"ORAL","start_dtc":"2024-07-11","end_dtc":"2024-07-11","visit":null},{"seq":"91","trt":"GB001","dose":"60.0","doseu":null,"dosef":"QD","route":"ORAL","start_dtc":"2024-07-12","end_dtc":"2024-07-12","visit":null},{"seq":"92","trt":"GB001","dose":"60.0","doseu":null,"dosef":"QD","route":"ORAL","start_dtc":"2024-07-13","end_dtc":"2024-07-13","visit":null},{"seq":"93","trt":"GB001","dose":"60.0","doseu":null,"dosef":"QD","route":"ORAL","start_dtc":"2024-07-14","end_dtc":"2024-07-14","visit":null},{"seq":"94","trt":"GB001","dose":"60.0","doseu":null,"dosef":"QD","route":"ORAL","start_dtc":"2024-07-15","end_dtc":"2024-07-15","visit":null},{"seq":"95","trt":"GB001","dose":"60.0","doseu":null,"dosef":"QD","route":"ORAL","start_dtc":"2024-07-16","end_dtc":"2024-07-16","visit":null},{"seq":"96","trt":"GB001","dose":"60.0","doseu":null,"dosef":"QD","route":"ORAL","start_dtc":"2024-07-17","end_dtc":"2024-07-17","visit":null},{"seq":"97","trt":"GB001","dose":"60.0","doseu":null,"dosef":"QD","route":"ORAL","start_dtc":"2024-07-18","end_dtc":"2024-07-18","visit":null},{"seq":"98","trt":"GB001","dose":"60.0","doseu":null,"dosef":"QD","route":"ORAL","start_dtc":"2024-07-19","end_dtc":"2024-07-19","visit":null},{"seq":"99","trt":"GB001","dose":"60.0","doseu":null,"dosef":"QD","route":"ORAL","start_dtc":"2024-07-20","end_dtc":"2024-07-20","visit":null},{"seq":"100","trt":"GB001","dose":"60.0","doseu":null,"dosef":"QD","route":"ORAL","start_dtc":"2024-07-21","end_dtc":"2024-07-21","visit":null},{"seq":"101","trt":"GB001","dose":"60.0","doseu":null,"dosef":"QD","route":"ORAL","start_dtc":"2024-07-22","end_dtc":"2024-07-22","visit":null},{"seq":"102","trt":"GB001","dose":"60.0","doseu":null,"dosef":"QD","route":"ORAL","start_dtc":"2024-07-23","end_dtc":"2024-07-23","visit":null},{"seq":"103","trt":"GB001","dose":"60.0","doseu":null,"dosef":"QD","route":"ORAL","start_dtc":"2024-07-24","end_dtc":"2024-07-24","visit":null},{"seq":"104","trt":"GB001","dose":"60.0","doseu":null,"dosef":"QD","route":"ORAL","start_dtc":"2024-07-25","end_dtc":"2024-07-25","visit":null},{"seq":"105","trt":"GB001","dose":"60.0","doseu":null,"dosef":"QD","route":"ORAL","start_dtc":"2024-07-26","end_dtc":"2024-07-26","visit":null},{"seq":"106","trt":"GB001","dose":"60.0","doseu":null,"dosef":"QD","route":"ORAL","start_dtc":"2024-07-27","end_dtc":"2024-07-27","visit":null},{"seq":"107","trt":"GB001","dose":"60.0","doseu":null,"dosef":"QD","route":"ORAL","start_dtc":"2024-07-28","end_dtc":"2024-07-28","visit":null},{"seq":"108","trt":"GB001","dose":"60.0","doseu":null,"dosef":"QD","route":"ORAL","start_dtc":"2024-07-29","end_dtc":"2024-07-29","visit":null},{"seq":"109","trt":"GB001","dose":"60.0","doseu":null,"dosef":"QD","route":"ORAL","start_dtc":"2024-07-30","end_dtc":"2024-07-30","visit":null},{"seq":"110","trt":"GB001","dose":"60.0","doseu":null,"dosef":"QD","route":"ORAL","start_dtc":"2024-07-31","end_dtc":"2024-07-31","visit":"WEEK 16"},{"seq":"111","trt":"GB001","dose":"60.0","doseu":null,"dosef":"QD","route":"ORAL","start_dtc":"2024-08-01","end_dtc":"2024-08-01","visit":"WEEK 16"},{"seq":"112","trt":"GB001","dose":"60.0","doseu":null,"dosef":"QD","route":"ORAL","start_dtc":"2024-08-02","end_dtc":"2024-08-02","visit":"WEEK 16"},{"seq":"113","trt":"GB001","dose":"60.0","doseu":null,"dosef":"QD","route":"ORAL","start_dtc":"2024-08-03","end_dtc":"2024-08-03","visit":"WEEK 16"},{"seq":"114","trt":"GB001","dose":"60.0","doseu":null,"dosef":"QD","route":"ORAL","start_dtc":"2024-08-04","end_dtc":"2024-08-04","visit":"WEEK 16"},{"seq":"115","trt":"GB001","dose":"60.0","doseu":null,"dosef":"QD","route":"ORAL","start_dtc":"2024-08-05","end_dtc":"2024-08-05","visit":"WEEK 16"},{"seq":"116","trt":"GB001","dose":"60.0","doseu":null,"dosef":"QD","route":"ORAL","start_dtc":"2024-08-06","end_dtc":"2024-08-06","visit":"WEEK 16"},{"seq":"117","trt":"GB001","dose":"60.0","doseu":null,"dosef":"QD","route":"ORAL","start_dtc":"2024-08-07","end_dtc":"2024-08-07","visit":null},{"seq":"118","trt":"GB001","dose":"60.0","doseu":null,"dosef":"QD","route":"ORAL","start_dtc":"2024-08-08","end_dtc":"2024-08-08","visit":null},{"seq":"119","trt":"GB001","dose":"60.0","doseu":null,"dosef":"QD","route":"ORAL","start_dtc":"2024-08-09","end_dtc":"2024-08-09","visit":null},{"seq":"120","trt":"GB001","dose":"60.0","doseu":null,"dosef":"QD","route":"ORAL","start_dtc":"2024-08-10","end_dtc":"2024-08-10","visit":null},{"seq":"121","trt":"GB001","dose":"60.0","doseu":null,"dosef":"QD","route":"ORAL","start_dtc":"2024-08-11","end_dtc":"2024-08-11","visit":null},{"seq":"122","trt":"GB001","dose":"60.0","doseu":null,"dosef":"QD","route":"ORAL","start_dtc":"2024-08-12","end_dtc":"2024-08-12","visit":null},{"seq":"123","trt":"GB001","dose":"60.0","doseu":null,"dosef":"QD","route":"ORAL","start_dtc":"2024-08-13","end_dtc":"2024-08-13","visit":null},{"seq":"124","trt":"GB001","dose":"60.0","doseu":null,"dosef":"QD","route":"ORAL","start_dtc":"2024-08-14","end_dtc":"2024-08-14","visit":null},{"seq":"125","trt":"GB001","dose":"60.0","doseu":null,"dosef":"QD","route":"ORAL","start_dtc":"2024-08-15","end_dtc":"2024-08-15","visit":null},{"seq":"126","trt":"GB001","dose":"60.0","doseu":null,"dosef":"QD","route":"ORAL","start_dtc":"2024-08-16","end_dtc":"2024-08-16","visit":null},{"seq":"127","trt":"GB001","dose":"60.0","doseu":null,"dosef":"QD","route":"ORAL","start_dtc":"2024-08-17","end_dtc":"2024-08-17","visit":null},{"seq":"128","trt":"GB001","dose":"60.0","doseu":null,"dosef":"QD","route":"ORAL","start_dtc":"2024-08-18","end_dtc":"2024-08-18","visit":null},{"seq":"129","trt":"GB001","dose":"60.0","doseu":null,"dosef":"QD","route":"ORAL","start_dtc":"2024-08-19","end_dtc":"2024-08-19","visit":null},{"seq":"130","trt":"GB001","dose":"60.0","doseu":null,"dosef":"QD","route":"ORAL","start_dtc":"2024-08-20","end_dtc":"2024-08-20","visit":null},{"seq":"131","trt":"GB001","dose":"60.0","doseu":null,"dosef":"QD","route":"ORAL","start_dtc":"2024-08-21","end_dtc":"2024-08-21","visit":null},{"seq":"132","trt":"GB001","dose":"60.0","doseu":null,"dosef":"QD","route":"ORAL","start_dtc":"2024-08-22","end_dtc":"2024-08-22","visit":null},{"seq":"133","trt":"GB001","dose":"60.0","doseu":null,"dosef":"QD","route":"ORAL","start_dtc":"2024-08-23","end_dtc":"2024-08-23","visit":null},{"seq":"134","trt":"GB001","dose":"60.0","doseu":null,"dosef":"QD","route":"ORAL","start_dtc":"2024-08-24","end_dtc":"2024-08-24","visit":null},{"seq":"135","trt":"GB001","dose":"60.0","doseu":null,"dosef":"QD","route":"ORAL","start_dtc":"2024-08-25","end_dtc":"2024-08-25","visit":null},{"seq":"136","trt":"GB001","dose":"60.0","doseu":null,"dosef":"QD","route":"ORAL","start_dtc":"2024-08-26","end_dtc":"2024-08-26","visit":null},{"seq":"137","trt":"GB001","dose":"60.0","doseu":null,"dosef":"QD","route":"ORAL","start_dtc":"2024-08-27","end_dtc":"2024-08-27","visit":null},{"seq":"138","trt":"GB001","dose":"60.0","doseu":null,"dosef":"QD","route":"ORAL","start_dtc":"2024-08-28","end_dtc":"2024-08-28","visit":"WEEK 20"},{"seq":"139","trt":"GB001","dose":"60.0","doseu":null,"dosef":"QD","route":"ORAL","start_dtc":"2024-08-29","end_dtc":"2024-08-29","visit":"WEEK 20"},{"seq":"140","trt":"GB001","dose":"60.0","doseu":null,"dosef":"QD","route":"ORAL","start_dtc":"2024-08-30","end_dtc":"2024-08-30","visit":"WEEK 20"},{"seq":"141","trt":"GB001","dose":"60.0","doseu":null,"dosef":"QD","route":"ORAL","start_dtc":"2024-08-31","end_dtc":"2024-08-31","visit":"WEEK 20"},{"seq":"142","trt":"GB001","dose":"60.0","doseu":null,"dosef":"QD","route":"ORAL","start_dtc":"2024-09-01","end_dtc":"2024-09-01","visit":"WEEK 20"},{"seq":"143","trt":"GB001","dose":"60.0","doseu":null,"dosef":"QD","route":"ORAL","start_dtc":"2024-09-02","end_dtc":"2024-09-02","visit":"WEEK 20"},{"seq":"144","trt":"GB001","dose":"60.0","doseu":null,"dosef":"QD","route":"ORAL","start_dtc":"2024-09-03","end_dtc":"2024-09-03","visit":"WEEK 20"},{"seq":"145","trt":"GB001","dose":"60.0","doseu":null,"dosef":"QD","route":"ORAL","start_dtc":"2024-09-04","end_dtc":"2024-09-04","visit":null},{"seq":"146","trt":"GB001","dose":"60.0","doseu":null,"dosef":"QD","route":"ORAL","start_dtc":"2024-09-05","end_dtc":"2024-09-05","visit":null},{"seq":"147","trt":"GB001","dose":"60.0","doseu":null,"dosef":"QD","route":"ORAL","start_dtc":"2024-09-06","end_dtc":"2024-09-06","visit":null},{"seq":"148","trt":"GB001","dose":"60.0","doseu":null,"dosef":"QD","route":"ORAL","start_dtc":"2024-09-07","end_dtc":"2024-09-07","visit":null},{"seq":"149","trt":"GB001","dose":"60.0","doseu":null,"dosef":"QD","route":"ORAL","start_dtc":"2024-09-08","end_dtc":"2024-09-08","visit":null},{"seq":"150","trt":"GB001","dose":"60.0","doseu":null,"dosef":"QD","route":"ORAL","start_dtc":"2024-09-09","end_dtc":"2024-09-09","visit":null},{"seq":"151","trt":"GB001","dose":"60.0","doseu":null,"dosef":"QD","route":"ORAL","start_dtc":"2024-09-10","end_dtc":"2024-09-10","visit":null},{"seq":"152","trt":"GB001","dose":"60.0","doseu":null,"dosef":"QD","route":"ORAL","start_dtc":"2024-09-11","end_dtc":"2024-09-11","visit":null},{"seq":"153","trt":"GB001","dose":"60.0","doseu":null,"dosef":"QD","route":"ORAL","start_dtc":"2024-09-12","end_dtc":"2024-09-12","visit":null},{"seq":"154","trt":"GB001","dose":"60.0","doseu":null,"dosef":"QD","route":"ORAL","start_dtc":"2024-09-13","end_dtc":"2024-09-13","visit":null},{"seq":"155","trt":"GB001","dose":"60.0","doseu":null,"dosef":"QD","route":"ORAL","start_dtc":"2024-09-14","end_dtc":"2024-09-14","visit":null},{"seq":"156","trt":"GB001","dose":"60.0","doseu":null,"dosef":"QD","route":"ORAL","start_dtc":"2024-09-15","end_dtc":"2024-09-15","visit":null},{"seq":"157","trt":"GB001","dose":"60.0","doseu":null,"dosef":"QD","route":"ORAL","start_dtc":"2024-09-16","end_dtc":"2024-09-16","visit":null},{"seq":"158","trt":"GB001","dose":"60.0","doseu":null,"dosef":"QD","route":"ORAL","start_dtc":"2024-09-17","end_dtc":"2024-09-17","visit":null},{"seq":"159","trt":"GB001","dose":"60.0","doseu":null,"dosef":"QD","route":"ORAL","start_dtc":"2024-09-18","end_dtc":"2024-09-18","visit":null},{"seq":"160","trt":"GB001","dose":"60.0","doseu":null,"dosef":"QD","route":"ORAL","start_dtc":"2024-09-19","end_dtc":"2024-09-19","visit":null},{"seq":"161","trt":"GB001","dose":"60.0","doseu":null,"dosef":"QD","route":"ORAL","start_dtc":"2024-09-20","end_dtc":"2024-09-20","visit":null},{"seq":"162","trt":"GB001","dose":"60.0","doseu":null,"dosef":"QD","route":"ORAL","start_dtc":"2024-09-21","end_dtc":"2024-09-21","visit":null},{"seq":"163","trt":"GB001","dose":"60.0","doseu":null,"dosef":"QD","route":"ORAL","start_dtc":"2024-09-22","end_dtc":"2024-09-22","visit":null},{"seq":"164","trt":"GB001","dose":"60.0","doseu":null,"dosef":"QD","route":"ORAL","start_dtc":"2024-09-23","end_dtc":"2024-09-23","visit":null},{"seq":"165","trt":"GB001","dose":"60.0","doseu":null,"dosef":"QD","route":"ORAL","start_dtc":"2024-09-24","end_dtc":"2024-09-24","visit":null},{"seq":"166","trt":"GB001","dose":"60.0","doseu":null,"dosef":"QD","route":"ORAL","start_dtc":"2024-09-25","end_dtc":"2024-09-25","visit":"WEEK 24 EOT"},{"seq":"167","trt":"GB001","dose":"60.0","doseu":null,"dosef":"QD","route":"ORAL","start_dtc":"2024-09-26","end_dtc":"2024-09-26","visit":"WEEK 24 EOT"},{"seq":"168","trt":"GB001","dose":"60.0","doseu":null,"dosef":"QD","route":"ORAL","start_dtc":"2024-09-27","end_dtc":"2024-09-27","visit":"WEEK 24 EOT"}]},"section_7_adverse_events":{"summary":{"total_aes":5,"serious_aes":0,"fatal_aes":0,"by_severity":{"MODERATE":4,"MILD":1},"by_soc":{"Nervous system disorders":1,"Musculoskeletal and connective tissue disorders":1,"Gastrointestinal disorders":3}},"events":[{"seq":"1","term":"HEADACHE","decod":"Headache","llt":"Headache","hlt":"Headaches NEC","hlgt":"Headaches","soc":"Nervous system disorders","bodsys":"Nervous system disorders","severity":"MODERATE","serious":"N","causality":"POSSIBLY RELATED","action_taken":"DRUG INTERRUPTED","outcome":"RECOVERING/RESOLVING","fatal":"N","hospitalization":"N","life_threatening":"N","onset_dtc":"2024-04-14","end_dtc":"2024-04-20","onset_dy":"2","end_dy":"8","duration":null,"epoch":"RUN_IN","visit":null,"supplemental":{"AETRTEM":"Y"}},{"seq":"2","term":"BACK PAIN","decod":"Back pain","llt":"Back pain","hlt":"Spinal column and cord signs and symptoms","hlgt":"Musculoskeletal and connective tissue signs and symptoms NEC","soc":"Musculoskeletal and connective tissue disorders","bodsys":"Musculoskeletal and connective tissue disorders","severity":"MODERATE","serious":"N","causality":"NOT RELATED","action_taken":"DOSE NOT CHANGED","outcome":"RECOVERED/RESOLVED","fatal":"N","hospitalization":"N","life_threatening":"N","onset_dtc":"2024-04-20","end_dtc":"2024-05-05","onset_dy":"8","end_dy":"23","duration":null,"epoch":"RUN_IN","visit":null,"supplemental":{"AETRTEM":"Y"}},{"seq":"3","term":"NAUSEA","decod":"Nausea","llt":"Nausea","hlt":"Nausea and vomiting symptoms","hlgt":"Gastrointestinal signs and symptoms","soc":"Gastrointestinal disorders","bodsys":"Gastrointestinal disorders","severity":"MILD","serious":"N","causality":"POSSIBLY RELATED","action_taken":"DOSE NOT CHANGED","outcome":"RECOVERED/RESOLVED","fatal":"N","hospitalization":"N","life_threatening":"N","onset_dtc":"2024-07-23","end_dtc":"2024-07-24","onset_dy":"102","end_dy":"103","duration":null,"epoch":"TREATMENT","visit":null,"supplemental":{"AETRTEM":"Y"}},{"seq":"4","term":"NAUSEA","decod":"Nausea","llt":"Nausea","hlt":"Nausea and vomiting symptoms","hlgt":"Gastrointestinal signs and symptoms","soc":"Gastrointestinal disorders","bodsys":"Gastrointestinal disorders","severity":"MODERATE","serious":"N","causality":"NOT RELATED","action_taken":"DOSE NOT CHANGED","outcome":"RECOVERED/RESOLVED","fatal":"N","hospitalization":"N","life_threatening":"N","onset_dtc":"2024-08-27","end_dtc":"2024-08-28","onset_dy":"137","end_dy":"138","duration":null,"epoch":"TREATMENT","visit":null,"supplemental":{"AETRTEM":"Y"}},{"seq":"5","term":"NAUSEA","decod":"Nausea","llt":"Nausea","hlt":"Nausea and vomiting symptoms","hlgt":"Gastrointestinal signs and symptoms","soc":"Gastrointestinal disorders","bodsys":"Gastrointestinal disorders","severity":"MODERATE","serious":"N","causality":"NOT RELATED","action_taken":"DOSE NOT CHANGED","outcome":"RECOVERED/RESOLVED","fatal":"N","hospitalization":"N","life_threatening":"N","onset_dtc":"2024-09-05","end_dtc":"2024-09-09","onset_dy":"146","end_dy":"150","duration":null,"epoch":"TREATMENT","visit":null,"supplemental":{"AETRTEM":"Y"}}]},"section_8_laboratory_results":{"summary":{"total_records":77,"abnormal_count":7,"abnormal_pct":9.1},"shift_summary":[{"testcd":"ALT","baseline_value":46.14,"baseline_nrind":"NORMAL","worst_post_baseline_value":46.42,"worst_post_baseline_nrind":"NORMAL","worst_visit":"WEEK 24 EOT"},{"testcd":"AST","baseline_value":18.68,"baseline_nrind":"NORMAL","worst_post_baseline_value":17.48,"worst_post_baseline_nrind":"NORMAL","worst_visit":"WEEK 8"},{"testcd":"CREAT","baseline_value":55.04,"baseline_nrind":"NORMAL","worst_post_baseline_value":64.45,"worst_post_baseline_nrind":"NORMAL","worst_visit":"WEEK 28 SAFETY FU"},{"testcd":"GLUC","baseline_value":5.07,"baseline_nrind":"NORMAL","worst_post_baseline_value":5.4,"worst_post_baseline_nrind":"NORMAL","worst_visit":"WEEK 28 SAFETY FU"},{"testcd":"HGB","baseline_value":120.7,"baseline_nrind":"NORMAL","worst_post_baseline_value":122.21,"worst_post_baseline_nrind":"NORMAL","worst_visit":"RUN-IN START"},{"testcd":"PLAT","baseline_value":259.18,"baseline_nrind":"NORMAL","worst_post_baseline_value":260.76,"worst_post_baseline_nrind":"NORMAL","worst_visit":"RUN-IN START"},{"testcd":"WBC","baseline_value":3.82,"baseline_nrind":"LOW","worst_post_baseline_value":4.48,"worst_post_baseline_nrind":"NORMAL","worst_visit":"WEEK 16"}],"results":[{"seq":"1","testcd":"ALT","test":"Alanine Aminotransferase","cat":"CHEMISTRY","orres":"46.14","orresu":"U/L","stresc":"46.14","stresn":"46.14","stresu":"U/L","stnrlo":"7","stnrhi":"56","nrind":"NORMAL","fast":null,"dtc":"2024-01-29","dy":"-75","visit":"SCREENING","visitnum":"1.0","epoch":"SCREENING","spec":null,"method":null},{"seq":"2","testcd":"AST","test":"Aspartate Aminotransferase","cat":"CHEMISTRY","orres":"18.68","orresu":"U/L","stresc":"18.68","stresn":"18.68","stresu":"U/L","stnrlo":"10","stnrhi":"40","nrind":"NORMAL","fast":null,"dtc":"2024-01-29","dy":"-75","visit":"SCREENING","visitnum":"1.0","epoch":"SCREENING","spec":null,"method":null},{"seq":"3","testcd":"CREAT","test":"Creatinine","cat":"CHEMISTRY","orres":"55.04","orresu":"umol/L","stresc":"55.04","stresn":"55.04","stresu":"umol/L","stnrlo":"44","stnrhi":"80","nrind":"NORMAL","fast":null,"dtc":"2024-01-29","dy":"-75","visit":"SCREENING","visitnum":"1.0","epoch":"SCREENING","spec":null,"method":null},{"seq":"4","testcd":"GLUC","test":"Glucose","cat":"CHEMISTRY","orres":"5.07","orresu":"mmol/L","stresc":"5.07","stresn":"5.07","stresu":"mmol/L","stnrlo":"3.9","stnrhi":"5.6","nrind":"NORMAL","fast":null,"dtc":"2024-01-29","dy":"-75","visit":"SCREENING","visitnum":"1.0","epoch":"SCREENING","spec":null,"method":null},{"seq":"5","testcd":"HGB","test":"Hemoglobin","cat":"HEMATOLOGY","orres":"120.7","orresu":"g/L","stresc":"120.7","stresn":"120.7","stresu":"g/L","stnrlo":"120","stnrhi":"155","nrind":"NORMAL","fast":null,"dtc":"2024-01-29","dy":"-75","visit":"SCREENING","visitnum":"1.0","epoch":"SCREENING","spec":null,"method":null},{"seq":"6","testcd":"PLAT","test":"Platelets","cat":"HEMATOLOGY","orres":"259.18","orresu":"10^9/L","stresc":"259.18","stresn":"259.18","stresu":"10^9/L","stnrlo":"150","stnrhi":"400","nrind":"NORMAL","fast":null,"dtc":"2024-01-29","dy":"-75","visit":"SCREENING","visitnum":"1.0","epoch":"SCREENING","spec":null,"method":null},{"seq":"7","testcd":"WBC","test":"Leukocytes","cat":"HEMATOLOGY","orres":"3.82","orresu":"10^9/L","stresc":"3.82","stresn":"3.82","stresu":"10^9/L","stnrlo":"4.0","stnrhi":"11.0","nrind":"LOW","fast":null,"dtc":"2024-01-29","dy":"-75","visit":"SCREENING","visitnum":"1.0","epoch":"SCREENING","spec":null,"method":null},{"seq":"8","testcd":"ALT","test":"Alanine Aminotransferase","cat":"CHEMISTRY","orres":"44.55","orresu":"U/L","stresc":"44.55","stresn":"44.55","stresu":"U/L","stnrlo":"7","stnrhi":"56","nrind":"NORMAL","fast":null,"dtc":"2024-02-24","dy":"-49","visit":"RUN-IN START","visitnum":"2.0","epoch":"RUN_IN","spec":null,"method":null},{"seq":"9","testcd":"AST","test":"Aspartate Aminotransferase","cat":"CHEMISTRY","orres":"17.11","orresu":"U/L","stresc":"17.11","stresn":"17.11","stresu":"U/L","stnrlo":"10","stnrhi":"40","nrind":"NORMAL","fast":null,"dtc":"2024-02-24","dy":"-49","visit":"RUN-IN START","visitnum":"2.0","epoch":"RUN_IN","spec":null,"method":null},{"seq":"10","testcd":"CREAT","test":"Creatinine","cat":"CHEMISTRY","orres":"53.98","orresu":"umol/L","stresc":"53.98","stresn":"53.98","stresu":"umol/L","stnrlo":"44","stnrhi":"80","nrind":"NORMAL","fast":null,"dtc":"2024-02-24","dy":"-49","visit":"RUN-IN START","visitnum":"2.0","epoch":"RUN_IN","spec":null,"method":null},{"seq":"11","testcd":"GLUC","test":"Glucose","cat":"CHEMISTRY","orres":"5.18","orresu":"mmol/L","stresc":"5.18","stresn":"5.18","stresu":"mmol/L","stnrlo":"3.9","stnrhi":"5.6","nrind":"NORMAL","fast":null,"dtc":"2024-02-24","dy":"-49","visit":"RUN-IN START","visitnum":"2.0","epoch":"RUN_IN","spec":null,"method":null},{"seq":"12","testcd":"HGB","test":"Hemoglobin","cat":"HEMATOLOGY","orres":"122.21","orresu":"g/L","stresc":"122.21","stresn":"122.21","stresu":"g/L","stnrlo":"120","stnrhi":"155","nrind":"NORMAL","fast":null,"dtc":"2024-02-24","dy":"-49","visit":"RUN-IN START","visitnum":"2.0","epoch":"RUN_IN","spec":null,"method":null},{"seq":"13","testcd":"PLAT","test":"Platelets","cat":"HEMATOLOGY","orres":"260.76","orresu":"10^9/L","stresc":"260.76","stresn":"260.76","stresu":"10^9/L","stnrlo":"150","stnrhi":"400","nrind":"NORMAL","fast":null,"dtc":"2024-02-24","dy":"-49","visit":"RUN-IN START","visitnum":"2.0","epoch":"RUN_IN","spec":null,"method":null},{"seq":"14","testcd":"WBC","test":"Leukocytes","cat":"HEMATOLOGY","orres":"3.2","orresu":"10^9/L","stresc":"3.2","stresn":"3.2","stresu":"10^9/L","stnrlo":"4.0","stnrhi":"11.0","nrind":"LOW","fast":null,"dtc":"2024-02-24","dy":"-49","visit":"RUN-IN START","visitnum":"2.0","epoch":"RUN_IN","spec":null,"method":null},{"seq":"15","testcd":"ALT","test":"Alanine Aminotransferase","cat":"CHEMISTRY","orres":"45.8","orresu":"U/L","stresc":"45.8","stresn":"45.8","stresu":"U/L","stnrlo":"7","stnrhi":"56","nrind":"NORMAL","fast":null,"dtc":"2024-04-13","dy":"1","visit":"RANDOMIZATION","visitnum":"3.0","epoch":"TREATMENT","spec":null,"method":null},{"seq":"16","testcd":"AST","test":"Aspartate Aminotransferase","cat":"CHEMISTRY","orres":"17.18","orresu":"U/L","stresc":"17.18","stresn":"17.18","stresu":"U/L","stnrlo":"10","stnrhi":"40","nrind":"NORMAL","fast":null,"dtc":"2024-04-13","dy":"1","visit":"RANDOMIZATION","visitnum":"3.0","epoch":"TREATMENT","spec":null,"method":null},{"seq":"17","testcd":"CREAT","test":"Creatinine","cat":"CHEMISTRY","orres":"58.11","orresu":"umol/L","stresc":"58.11","stresn":"58.11","stresu":"umol/L","stnrlo":"44","stnrhi":"80","nrind":"NORMAL","fast":null,"dtc":"2024-04-13","dy":"1","visit":"RANDOMIZATION","visitnum":"3.0","epoch":"TREATMENT","spec":null,"method":null},{"seq":"18","testcd":"GLUC","test":"Glucose","cat":"CHEMISTRY","orres":"5.35","orresu":"mmol/L","stresc":"5.35","stresn":"5.35","stresu":"mmol/L","stnrlo":"3.9","stnrhi":"5.6","nrind":"NORMAL","fast":null,"dtc":"2024-04-13","dy":"1","visit":"RANDOMIZATION","visitnum":"3.0","epoch":"TREATMENT","spec":null,"method":null},{"seq":"19","testcd":"HGB","test":"Hemoglobin","cat":"HEMATOLOGY","orres":"122.21","orresu":"g/L","stresc":"122.21","stresn":"122.21","stresu":"g/L","stnrlo":"120","stnrhi":"155","nrind":"NORMAL","fast":null,"dtc":"2024-04-13","dy":"1","visit":"RANDOMIZATION","visitnum":"3.0","epoch":"TREATMENT","spec":null,"method":null},{"seq":"20","testcd":"PLAT","test":"Platelets","cat":"HEMATOLOGY","orres":"250.86","orresu":"10^9/L","stresc":"250.86","stresn":"250.86","stresu":"10^9/L","stnrlo":"150","stnrhi":"400","nrind":"NORMAL","fast":null,"dtc":"2024-04-13","dy":"1","visit":"RANDOMIZATION","visitnum":"3.0","epoch":"TREATMENT","spec":null,"method":null},{"seq":"21","testcd":"WBC","test":"Leukocytes","cat":"HEMATOLOGY","orres":"3.36","orresu":"10^9/L","stresc":"3.36","stresn":"3.36","stresu":"10^9/L","stnrlo":"4.0","stnrhi":"11.0","nrind":"LOW","fast":null,"dtc":"2024-04-13","dy":"1","visit":"RANDOMIZATION","visitnum":"3.0","epoch":"TREATMENT","spec":null,"method":null},{"seq":"22","testcd":"ALT","test":"Alanine Aminotransferase","cat":"CHEMISTRY","orres":"43.74","orresu":"U/L","stresc":"43.74","stresn":"43.74","stresu":"U/L","stnrlo":"7","stnrhi":"56","nrind":"NORMAL","fast":null,"dtc":"2024-04-24","dy":"12","visit":"WEEK 2","visitnum":"4.0","epoch":"TREATMENT","spec":null,"method":null},{"seq":"23","testcd":"AST","test":"Aspartate Aminotransferase","cat":"CHEMISTRY","orres":"16.56","orresu":"U/L","stresc":"16.56","stresn":"16.56","stresu":"U/L","stnrlo":"10","stnrhi":"40","nrind":"NORMAL","fast":null,"dtc":"2024-04-24","dy":"12","visit":"WEEK 2","visitnum":"4.0","epoch":"TREATMENT","spec":null,"method":null},{"seq":"24","testcd":"CREAT","test":"Creatinine","cat":"CHEMISTRY","orres":"58.83","orresu":"umol/L","stresc":"58.83","stresn":"58.83","stresu":"umol/L","stnrlo":"44","stnrhi":"80","nrind":"NORMAL","fast":null,"dtc":"2024-04-24","dy":"12","visit":"WEEK 2","visitnum":"4.0","epoch":"TREATMENT","spec":null,"method":null},{"seq":"25","testcd":"GLUC","test":"Glucose","cat":"CHEMISTRY","orres":"5.27","orresu":"mmol/L","stresc":"5.27","stresn":"5.27","stresu":"mmol/L","stnrlo":"3.9","stnrhi":"5.6","nrind":"NORMAL","fast":null,"dtc":"2024-04-24","dy":"12","visit":"WEEK 2","visitnum":"4.0","epoch":"TREATMENT","spec":null,"method":null},{"seq":"26","testcd":"HGB","test":"Hemoglobin","cat":"HEMATOLOGY","orres":"122.95","orresu":"g/L","stresc":"122.95","stresn":"122.95","stresu":"g/L","stnrlo":"120","stnrhi":"155","nrind":"NORMAL","fast":null,"dtc":"2024-04-24","dy":"12","visit":"WEEK 2","visitnum":"4.0","epoch":"TREATMENT","spec":null,"method":null},{"seq":"27","testcd":"PLAT","test":"Platelets","cat":"HEMATOLOGY","orres":"256.82","orresu":"10^9/L","stresc":"256.82","stresn":"256.82","stresu":"10^9/L","stnrlo":"150","stnrhi":"400","nrind":"NORMAL","fast":null,"dtc":"2024-04-24","dy":"12","visit":"WEEK 2","visitnum":"4.0","epoch":"TREATMENT","spec":null,"method":null},{"seq":"28","testcd":"WBC","test":"Leukocytes","cat":"HEMATOLOGY","orres":"3.65","orresu":"10^9/L","stresc":"3.65","stresn":"3.65","stresu":"10^9/L","stnrlo":"4.0","stnrhi":"11.0","nrind":"LOW","fast":null,"dtc":"2024-04-24","dy":"12","visit":"WEEK 2","visitnum":"4.0","epoch":"TREATMENT","spec":null,"method":null},{"seq":"29","testcd":"ALT","test":"Alanine Aminotransferase","cat":"CHEMISTRY","orres":"42.48","orresu":"U/L","stresc":"42.48","stresn":"42.48","stresu":"U/L","stnrlo":"7","stnrhi":"56","nrind":"NORMAL","fast":null,"dtc":"2024-05-12","dy":"30","visit":"WEEK 4","visitnum":"5.0","epoch":"TREATMENT","spec":null,"method":null},{"seq":"30","testcd":"AST","test":"Aspartate Aminotransferase","cat":"CHEMISTRY","orres":"16.67","orresu":"U/L","stresc":"16.67","stresn":"16.67","stresu":"U/L","stnrlo":"10","stnrhi":"40","nrind":"NORMAL","fast":null,"dtc":"2024-05-12","dy":"30","visit":"WEEK 4","visitnum":"5.0","epoch":"TREATMENT","spec":null,"method":null},{"seq":"31","testcd":"CREAT","test":"Creatinine","cat":"CHEMISTRY","orres":"61.26","orresu":"umol/L","stresc":"61.26","stresn":"61.26","stresu":"umol/L","stnrlo":"44","stnrhi":"80","nrind":"NORMAL","fast":null,"dtc":"2024-05-12","dy":"30","visit":"WEEK 4","visitnum":"5.0","epoch":"TREATMENT","spec":null,"method":null},{"seq":"32","testcd":"GLUC","test":"Glucose","cat":"CHEMISTRY","orres":"5.12","orresu":"mmol/L","stresc":"5.12","stresn":"5.12","stresu":"mmol/L","stnrlo":"3.9","stnrhi":"5.6","nrind":"NORMAL","fast":null,"dtc":"2024-05-12","dy":"30","visit":"WEEK 4","visitnum":"5.0","epoch":"TREATMENT","spec":null,"method":null},{"seq":"33","testcd":"HGB","test":"Hemoglobin","cat":"HEMATOLOGY","orres":"123.1","orresu":"g/L","stresc":"123.1","stresn":"123.1","stresu":"g/L","stnrlo":"120","stnrhi":"155","nrind":"NORMAL","fast":null,"dtc":"2024-05-12","dy":"30","visit":"WEEK 4","visitnum":"5.0","epoch":"TREATMENT","spec":null,"method":null},{"seq":"34","testcd":"PLAT","test":"Platelets","cat":"HEMATOLOGY","orres":"245.58","orresu":"10^9/L","stresc":"245.58","stresn":"245.58","stresu":"10^9/L","stnrlo":"150","stnrhi":"400","nrind":"NORMAL","fast":null,"dtc":"2024-05-12","dy":"30","visit":"WEEK 4","visitnum":"5.0","epoch":"TREATMENT","spec":null,"method":null},{"seq":"35","testcd":"WBC","test":"Leukocytes","cat":"HEMATOLOGY","orres":"3.75","orresu":"10^9/L","stresc":"3.75","stresn":"3.75","stresu":"10^9/L","stnrlo":"4.0","stnrhi":"11.0","nrind":"LOW","fast":null,"dtc":"2024-05-12","dy":"30","visit":"WEEK 4","visitnum":"5.0","epoch":"TREATMENT","spec":null,"method":null},{"seq":"36","testcd":"ALT","test":"Alanine Aminotransferase","cat":"CHEMISTRY","orres":"40.6","orresu":"U/L","stresc":"40.6","stresn":"40.6","stresu":"U/L","stnrlo":"7","stnrhi":"56","nrind":"NORMAL","fast":null,"dtc":"2024-06-04","dy":"53","visit":"WEEK 8","visitnum":"6.0","epoch":"TREATMENT","spec":null,"method":null},{"seq":"37","testcd":"AST","test":"Aspartate Aminotransferase","cat":"CHEMISTRY","orres":"17.48","orresu":"U/L","stresc":"17.48","stresn":"17.48","stresu":"U/L","stnrlo":"10","stnrhi":"40","nrind":"NORMAL","fast":null,"dtc":"2024-06-04","dy":"53","visit":"WEEK 8","visitnum":"6.0","epoch":"TREATMENT","spec":null,"method":null},{"seq":"38","testcd":"CREAT","test":"Creatinine","cat":"CHEMISTRY","orres":"60.05","orresu":"umol/L","stresc":"60.05","stresn":"60.05","stresu":"umol/L","stnrlo":"44","stnrhi":"80","nrind":"NORMAL","fast":null,"dtc":"2024-06-04","dy":"53","visit":"WEEK 8","visitnum":"6.0","epoch":"TREATMENT","spec":null,"method":null},{"seq":"39","testcd":"GLUC","test":"Glucose","cat":"CHEMISTRY","orres":"5.2","orresu":"mmol/L","stresc":"5.2","stresn":"5.2","stresu":"mmol/L","stnrlo":"3.9","stnrhi":"5.6","nrind":"NORMAL","fast":null,"dtc":"2024-06-04","dy":"53","visit":"WEEK 8","visitnum":"6.0","epoch":"TREATMENT","spec":null,"method":null},{"seq":"40","testcd":"HGB","test":"Hemoglobin","cat":"HEMATOLOGY","orres":"122.5","orresu":"g/L","stresc":"122.5","stresn":"122.5","stresu":"g/L","stnrlo":"120","stnrhi":"155","nrind":"NORMAL","fast":null,"dtc":"2024-06-04","dy":"53","visit":"WEEK 8","visitnum":"6.0","epoch":"TREATMENT","spec":null,"method":null},{"seq":"41","testcd":"PLAT","test":"Platelets","cat":"HEMATOLOGY","orres":"248.03","orresu":"10^9/L","stresc":"248.03","stresn":"248.03","stresu":"10^9/L","stnrlo":"150","stnrhi":"400","nrind":"NORMAL","fast":null,"dtc":"2024-06-04","dy":"53","visit":"WEEK 8","visitnum":"6.0","epoch":"TREATMENT","spec":null,"method":null},{"seq":"42","testcd":"WBC","test":"Leukocytes","cat":"HEMATOLOGY","orres":"3.57","orresu":"10^9/L","stresc":"3.57","stresn":"3.57","stresu":"10^9/L","stnrlo":"4.0","stnrhi":"11.0","nrind":"LOW","fast":null,"dtc":"2024-06-04","dy":"53","visit":"WEEK 8","visitnum":"6.0","epoch":"TREATMENT","spec":null,"method":null},{"seq":"43","testcd":"ALT","test":"Alanine Aminotransferase","cat":"CHEMISTRY","orres":"41.25","orresu":"U/L","stresc":"41.25","stresn":"41.25","stresu":"U/L","stnrlo":"7","stnrhi":"56","nrind":"NORMAL","fast":null,"dtc":"2024-07-05","dy":"84","visit":"WEEK 12","visitnum":"7.0","epoch":"TREATMENT","spec":null,"method":null},{"seq":"44","testcd":"AST","test":"Aspartate Aminotransferase","cat":"CHEMISTRY","orres":"15.81","orresu":"U/L","stresc":"15.81","stresn":"15.81","stresu":"U/L","stnrlo":"10","stnrhi":"40","nrind":"NORMAL","fast":null,"dtc":"2024-07-05","dy":"84","visit":"WEEK 12","visitnum":"7.0","epoch":"TREATMENT","spec":null,"method":null},{"seq":"45","testcd":"CREAT","test":"Creatinine","cat":"CHEMISTRY","orres":"58.56","orresu":"umol/L","stresc":"58.56","stresn":"58.56","stresu":"umol/L","stnrlo":"44","stnrhi":"80","nrind":"NORMAL","fast":null,"dtc":"2024-07-05","dy":"84","visit":"WEEK 12","visitnum":"7.0","epoch":"TREATMENT","spec":null,"method":null},{"seq":"46","testcd":"GLUC","test":"Glucose","cat":"CHEMISTRY","orres":"5.24","orresu":"mmol/L","stresc":"5.24","stresn":"5.24","stresu":"mmol/L","stnrlo":"3.9","stnrhi":"5.6","nrind":"NORMAL","fast":null,"dtc":"2024-07-05","dy":"84","visit":"WEEK 12","visitnum":"7.0","epoch":"TREATMENT","spec":null,"method":null},{"seq":"47","testcd":"HGB","test":"Hemoglobin","cat":"HEMATOLOGY","orres":"122.68","orresu":"g/L","stresc":"122.68","stresn":"122.68","stresu":"g/L","stnrlo":"120","stnrhi":"155","nrind":"NORMAL","fast":null,"dtc":"2024-07-05","dy":"84","visit":"WEEK 12","visitnum":"7.0","epoch":"TREATMENT","spec":null,"method":null},{"seq":"48","testcd":"PLAT","test":"Platelets","cat":"HEMATOLOGY","orres":"240.32","orresu":"10^9/L","stresc":"240.32","stresn":"240.32","stresu":"10^9/L","stnrlo":"150","stnrhi":"400","nrind":"NORMAL","fast":null,"dtc":"2024-07-05","dy":"84","visit":"WEEK 12","visitnum":"7.0","epoch":"TREATMENT","spec":null,"method":null},{"seq":"49","testcd":"WBC","test":"Leukocytes","cat":"HEMATOLOGY","orres":"4.37","orresu":"10^9/L","stresc":"4.37","stresn":"4.37","stresu":"10^9/L","stnrlo":"4.0","stnrhi":"11.0","nrind":"NORMAL","fast":null,"dtc":"2024-07-05","dy":"84","visit":"WEEK 12","visitnum":"7.0","epoch":"TREATMENT","spec":null,"method":null},{"seq":"50","testcd":"ALT","test":"Alanine Aminotransferase","cat":"CHEMISTRY","orres":"43.24","orresu":"U/L","stresc":"43.24","stresn":"43.24","stresu":"U/L","stnrlo":"7","stnrhi":"56","nrind":"NORMAL","fast":null,"dtc":"2024-08-03","dy":"113","visit":"WEEK 16","visitnum":"8.0","epoch":"TREATMENT","spec":null,"method":null},{"seq":"51","testcd":"AST","test":"Aspartate Aminotransferase","cat":"CHEMISTRY","orres":"15.04","orresu":"U/L","stresc":"15.04","stresn":"15.04","stresu":"U/L","stnrlo":"10","stnrhi":"40","nrind":"NORMAL","fast":null,"dtc":"2024-08-03","dy":"113","visit":"WEEK 16","visitnum":"8.0","epoch":"TREATMENT","spec":null,"method":null},{"seq":"52","testcd":"CREAT","test":"Creatinine","cat":"CHEMISTRY","orres":"61.63","orresu":"umol/L","stresc":"61.63","stresn":"61.63","stresu":"umol/L","stnrlo":"44","stnrhi":"80","nrind":"NORMAL","fast":null,"dtc":"2024-08-03","dy":"113","visit":"WEEK 16","visitnum":"8.0","epoch":"TREATMENT","spec":null,"method":null},{"seq":"53","testcd":"GLUC","test":"Glucose","cat":"CHEMISTRY","orres":"5.27","orresu":"mmol/L","stresc":"5.27","stresn":"5.27","stresu":"mmol/L","stnrlo":"3.9","stnrhi":"5.6","nrind":"NORMAL","fast":null,"dtc":"2024-08-03","dy":"113","visit":"WEEK 16","visitnum":"8.0","epoch":"TREATMENT","spec":null,"method":null},{"seq":"54","testcd":"HGB","test":"Hemoglobin","cat":"HEMATOLOGY","orres":"123.96","orresu":"g/L","stresc":"123.96","stresn":"123.96","stresu":"g/L","stnrlo":"120","stnrhi":"155","nrind":"NORMAL","fast":null,"dtc":"2024-08-03","dy":"113","visit":"WEEK 16","visitnum":"8.0","epoch":"TREATMENT","spec":null,"method":null},{"seq":"55","testcd":"PLAT","test":"Platelets","cat":"HEMATOLOGY","orres":"246.56","orresu":"10^9/L","stresc":"246.56","stresn":"246.56","stresu":"10^9/L","stnrlo":"150","stnrhi":"400","nrind":"NORMAL","fast":null,"dtc":"2024-08-03","dy":"113","visit":"WEEK 16","visitnum":"8.0","epoch":"TREATMENT","spec":null,"method":null},{"seq":"56","testcd":"WBC","test":"Leukocytes","cat":"HEMATOLOGY","orres":"4.48","orresu":"10^9/L","stresc":"4.48","stresn":"4.48","stresu":"10^9/L","stnrlo":"4.0","stnrhi":"11.0","nrind":"NORMAL","fast":null,"dtc":"2024-08-03","dy":"113","visit":"WEEK 16","visitnum":"8.0","epoch":"TREATMENT","spec":null,"method":null},{"seq":"57","testcd":"ALT","test":"Alanine Aminotransferase","cat":"CHEMISTRY","orres":"43.5","orresu":"U/L","stresc":"43.5","stresn":"43.5","stresu":"U/L","stnrlo":"7","stnrhi":"56","nrind":"NORMAL","fast":null,"dtc":"2024-08-26","dy":"136","visit":"WEEK 20","visitnum":"9.0","epoch":"TREATMENT","spec":null,"method":null},{"seq":"58","testcd":"AST","test":"Aspartate Aminotransferase","cat":"CHEMISTRY","orres":"15.6","orresu":"U/L","stresc":"15.6","stresn":"15.6","stresu":"U/L","stnrlo":"10","stnrhi":"40","nrind":"NORMAL","fast":null,"dtc":"2024-08-26","dy":"136","visit":"WEEK 20","visitnum":"9.0","epoch":"TREATMENT","spec":null,"method":null},{"seq":"59","testcd":"CREAT","test":"Creatinine","cat":"CHEMISTRY","orres":"61.84","orresu":"umol/L","stresc":"61.84","stresn":"61.84","stresu":"umol/L","stnrlo":"44","stnrhi":"80","nrind":"NORMAL","fast":null,"dtc":"2024-08-26","dy":"136","visit":"WEEK 20","visitnum":"9.0","epoch":"TREATMENT","spec":null,"method":null},{"seq":"60","testcd":"GLUC","test":"Glucose","cat":"CHEMISTRY","orres":"5.24","orresu":"mmol/L","stresc":"5.24","stresn":"5.24","stresu":"mmol/L","stnrlo":"3.9","stnrhi":"5.6","nrind":"NORMAL","fast":null,"dtc":"2024-08-26","dy":"136","visit":"WEEK 20","visitnum":"9.0","epoch":"TREATMENT","spec":null,"method":null},{"seq":"61","testcd":"HGB","test":"Hemoglobin","cat":"HEMATOLOGY","orres":"124.19","orresu":"g/L","stresc":"124.19","stresn":"124.19","stresu":"g/L","stnrlo":"120","stnrhi":"155","nrind":"NORMAL","fast":null,"dtc":"2024-08-26","dy":"136","visit":"WEEK 20","visitnum":"9.0","epoch":"TREATMENT","spec":null,"method":null},{"seq":"62","testcd":"PLAT","test":"Platelets","cat":"HEMATOLOGY","orres":"243.31","orresu":"10^9/L","stresc":"243.31","stresn":"243.31","stresu":"10^9/L","stnrlo":"150","stnrhi":"400","nrind":"NORMAL","fast":null,"dtc":"2024-08-26","dy":"136","visit":"WEEK 20","visitnum":"9.0","epoch":"TREATMENT","spec":null,"method":null},{"seq":"63","testcd":"WBC","test":"Leukocytes","cat":"HEMATOLOGY","orres":"4.44","orresu":"10^9/L","stresc":"4.44","stresn":"4.44","stresu":"10^9/L","stnrlo":"4.0","stnrhi":"11.0","nrind":"NORMAL","fast":null,"dtc":"2024-08-26","dy":"136","visit":"WEEK 20","visitnum":"9.0","epoch":"TREATMENT","spec":null,"method":null},{"seq":"64","testcd":"ALT","test":"Alanine Aminotransferase","cat":"CHEMISTRY","orres":"46.42","orresu":"U/L","stresc":"46.42","stresn":"46.42","stresu":"U/L","stnrlo":"7","stnrhi":"56","nrind":"NORMAL","fast":null,"dtc":"2024-10-02","dy":"173","visit":"WEEK 24 EOT","visitnum":"10.0","epoch":"TREATMENT","spec":null,"method":null},{"seq":"65","testcd":"AST","test":"Aspartate Aminotransferase","cat":"CHEMISTRY","orres":"15.87","orresu":"U/L","stresc":"15.87","stresn":"15.87","stresu":"U/L","stnrlo":"10","stnrhi":"40","nrind":"NORMAL","fast":null,"dtc":"2024-10-02","dy":"173","visit":"WEEK 24 EOT","visitnum":"10.0","epoch":"TREATMENT","spec":null,"method":null},{"seq":"66","testcd":"CREAT","test":"Creatinine","cat":"CHEMISTRY","orres":"63.69","orresu":"umol/L","stresc":"63.69","stresn":"63.69","stresu":"umol/L","stnrlo":"44","stnrhi":"80","nrind":"NORMAL","fast":null,"dtc":"2024-10-02","dy":"173","visit":"WEEK 24 EOT","visitnum":"10.0","epoch":"TREATMENT","spec":null,"method":null},{"seq":"67","testcd":"GLUC","test":"Glucose","cat":"CHEMISTRY","orres":"5.18","orresu":"mmol/L","stresc":"5.18","stresn":"5.18","stresu":"mmol/L","stnrlo":"3.9","stnrhi":"5.6","nrind":"NORMAL","fast":null,"dtc":"2024-10-02","dy":"173","visit":"WEEK 24 EOT","visitnum":"10.0","epoch":"TREATMENT","spec":null,"method":null},{"seq":"68","testcd":"HGB","test":"Hemoglobin","cat":"HEMATOLOGY","orres":"123.63","orresu":"g/L","stresc":"123.63","stresn":"123.63","stresu":"g/L","stnrlo":"120","stnrhi":"155","nrind":"NORMAL","fast":null,"dtc":"2024-10-02","dy":"173","visit":"WEEK 24 EOT","visitnum":"10.0","epoch":"TREATMENT","spec":null,"method":null},{"seq":"69","testcd":"PLAT","test":"Platelets","cat":"HEMATOLOGY","orres":"237.33","orresu":"10^9/L","stresc":"237.33","stresn":"237.33","stresu":"10^9/L","stnrlo":"150","stnrhi":"400","nrind":"NORMAL","fast":null,"dtc":"2024-10-02","dy":"173","visit":"WEEK 24 EOT","visitnum":"10.0","epoch":"TREATMENT","spec":null,"method":null},{"seq":"70","testcd":"WBC","test":"Leukocytes","cat":"HEMATOLOGY","orres":"4.03","orresu":"10^9/L","stresc":"4.03","stresn":"4.03","stresu":"10^9/L","stnrlo":"4.0","stnrhi":"11.0","nrind":"NORMAL","fast":null,"dtc":"2024-10-02","dy":"173","visit":"WEEK 24 EOT","visitnum":"10.0","epoch":"TREATMENT","spec":null,"method":null},{"seq":"71","testcd":"ALT","test":"Alanine Aminotransferase","cat":"CHEMISTRY","orres":"45.11","orresu":"U/L","stresc":"45.11","stresn":"45.11","stresu":"U/L","stnrlo":"7","stnrhi":"56","nrind":"NORMAL","fast":null,"dtc":"2024-10-27","dy":"198","visit":"WEEK 28 SAFETY FU","visitnum":"11.0","epoch":"FOLLOW-UP","spec":null,"method":null},{"seq":"72","testcd":"AST","test":"Aspartate Aminotransferase","cat":"CHEMISTRY","orres":"16.82","orresu":"U/L","stresc":"16.82","stresn":"16.82","stresu":"U/L","stnrlo":"10","stnrhi":"40","nrind":"NORMAL","fast":null,"dtc":"2024-10-27","dy":"198","visit":"WEEK 28 SAFETY FU","visitnum":"11.0","epoch":"FOLLOW-UP","spec":null,"method":null},{"seq":"73","testcd":"CREAT","test":"Creatinine","cat":"CHEMISTRY","orres":"64.45","orresu":"umol/L","stresc":"64.45","stresn":"64.45","stresu":"umol/L","stnrlo":"44","stnrhi":"80","nrind":"NORMAL","fast":null,"dtc":"2024-10-27","dy":"198","visit":"WEEK 28 SAFETY FU","visitnum":"11.0","epoch":"FOLLOW-UP","spec":null,"method":null},{"seq":"74","testcd":"GLUC","test":"Glucose","cat":"CHEMISTRY","orres":"5.4","orresu":"mmol/L","stresc":"5.4","stresn":"5.4","stresu":"mmol/L","stnrlo":"3.9","stnrhi":"5.6","nrind":"NORMAL","fast":null,"dtc":"2024-10-27","dy":"198","visit":"WEEK 28 SAFETY FU","visitnum":"11.0","epoch":"FOLLOW-UP","spec":null,"method":null},{"seq":"75","testcd":"HGB","test":"Hemoglobin","cat":"HEMATOLOGY","orres":"122.81","orresu":"g/L","stresc":"122.81","stresn":"122.81","stresu":"g/L","stnrlo":"120","stnrhi":"155","nrind":"NORMAL","fast":null,"dtc":"2024-10-27","dy":"198","visit":"WEEK 28 SAFETY FU","visitnum":"11.0","epoch":"FOLLOW-UP","spec":null,"method":null},{"seq":"76","testcd":"PLAT","test":"Platelets","cat":"HEMATOLOGY","orres":"235.3","orresu":"10^9/L","stresc":"235.3","stresn":"235.3","stresu":"10^9/L","stnrlo":"150","stnrhi":"400","nrind":"NORMAL","fast":null,"dtc":"2024-10-27","dy":"198","visit":"WEEK 28 SAFETY FU","visitnum":"11.0","epoch":"FOLLOW-UP","spec":null,"method":null},{"seq":"77","testcd":"WBC","test":"Leukocytes","cat":"HEMATOLOGY","orres":"3.86","orresu":"10^9/L","stresc":"3.86","stresn":"3.86","stresu":"10^9/L","stnrlo":"4.0","stnrhi":"11.0","nrind":"LOW","fast":null,"dtc":"2024-10-27","dy":"198","visit":"WEEK 28 SAFETY FU","visitnum":"11.0","epoch":"FOLLOW-UP","spec":null,"method":null}]},"section_9_vital_signs":{"summary":{"total_records":88},"trends":{"BMI":[{"visit":"SCREENING","visitnum":"1.0","dtc":"2024-01-29","value":"29.3","unit":"kg/m2"},{"visit":"RUN-IN START","visitnum":"2.0","dtc":"2024-02-24","value":"29.3","unit":"kg/m2"},{"visit":"RANDOMIZATION","visitnum":"3.0","dtc":"2024-04-13","value":"28.6","unit":"kg/m2"},{"visit":"WEEK 2","visitnum":"4.0","dtc":"2024-04-24","value":"27.9","unit":"kg/m2"},{"visit":"WEEK 4","visitnum":"5.0","dtc":"2024-05-12","value":"27.3","unit":"kg/m2"},{"visit":"WEEK 8","visitnum":"6.0","dtc":"2024-06-04","value":"26.7","unit":"kg/m2"},{"visit":"WEEK 12","visitnum":"7.0","dtc":"2024-07-05","value":"26.7","unit":"kg/m2"},{"visit":"WEEK 16","visitnum":"8.0","dtc":"2024-08-03","value":"26.4","unit":"kg/m2"},{"visit":"WEEK 20","visitnum":"9.0","dtc":"2024-08-26","value":"24.5","unit":"kg/m2"},{"visit":"WEEK 24 EOT","visitnum":"10.0","dtc":"2024-10-02","value":"25.6","unit":"kg/m2"},{"visit":"WEEK 28 SAFETY FU","visitnum":"11.0","dtc":"2024-10-27","value":"26.6","unit":"kg/m2"}],"DIABP":[{"visit":"SCREENING","visitnum":"1.0","dtc":"2024-01-29","value":"67.3","unit":"mmHg"},{"visit":"RUN-IN START","visitnum":"2.0","dtc":"2024-02-24","value":"67.6","unit":"mmHg"},{"visit":"RANDOMIZATION","visitnum":"3.0","dtc":"2024-04-13","value":"68.5","unit":"mmHg"},{"visit":"WEEK 2","visitnum":"4.0","dtc":"2024-04-24","value":"68.3","unit":"mmHg"},{"visit":"WEEK 4","visitnum":"5.0","dtc":"2024-05-12","value":"69.8","unit":"mmHg"},{"visit":"WEEK 8","visitnum":"6.0","dtc":"2024-06-04","value":"70.2","unit":"mmHg"},{"visit":"WEEK 12","visitnum":"7.0","dtc":"2024-07-05","value":"72.1","unit":"mmHg"},{"visit":"WEEK 16","visitnum":"8.0","dtc":"2024-08-03","value":"70.2","unit":"mmHg"},{"visit":"WEEK 20","visitnum":"9.0","dtc":"2024-08-26","value":"69.6","unit":"mmHg"},{"visit":"WEEK 24 EOT","visitnum":"10.0","dtc":"2024-10-02","value":"72.0","unit":"mmHg"},{"visit":"WEEK 28 SAFETY FU","visitnum":"11.0","dtc":"2024-10-27","value":"71.6","unit":"mmHg"}],"HEIGHT":[{"visit":"SCREENING","visitnum":"1.0","dtc":"2024-01-29","value":"152.6","unit":"cm"},{"visit":"RUN-IN START","visitnum":"2.0","dtc":"2024-02-24","value":"153.7","unit":"cm"},{"visit":"RANDOMIZATION","visitnum":"3.0","dtc":"2024-04-13","value":"153.8","unit":"cm"},{"visit":"WEEK 2","visitnum":"4.0","dtc":"2024-04-24","value":"154.5","unit":"cm"},{"visit":"WEEK 4","visitnum":"5.0","dtc":"2024-05-12","value":"154.3","unit":"cm"},{"visit":"WEEK 8","visitnum":"6.0","dtc":"2024-06-04","value":"154.2","unit":"cm"},{"visit":"WEEK 12","visitnum":"7.0","dtc":"2024-07-05","value":"154.1","unit":"cm"},{"visit":"WEEK 16","visitnum":"8.0","dtc":"2024-08-03","value":"154.6","unit":"cm"},{"visit":"WEEK 20","visitnum":"9.0","dtc":"2024-08-26","value":"154.6","unit":"cm"},{"visit":"WEEK 24 EOT","visitnum":"10.0","dtc":"2024-10-02","value":"154.9","unit":"cm"},{"visit":"WEEK 28 SAFETY FU","visitnum":"11.0","dtc":"2024-10-27","value":"154.0","unit":"cm"}],"PULSE":[{"visit":"SCREENING","visitnum":"1.0","dtc":"2024-01-29","value":"73.3","unit":"beats/min"},{"visit":"RUN-IN START","visitnum":"2.0","dtc":"2024-02-24","value":"82.0","unit":"beats/min"},{"visit":"RANDOMIZATION","visitnum":"3.0","dtc":"2024-04-13","value":"79.5","unit":"beats/min"},{"visit":"WEEK 2","visitnum":"4.0","dtc":"2024-04-24","value":"74.9","unit":"beats/min"},{"visit":"WEEK 4","visitnum":"5.0","dtc":"2024-05-12","value":"73.2","unit":"beats/min"},{"visit":"WEEK 8","visitnum":"6.0","dtc":"2024-06-04","value":"69.8","unit":"beats/min"},{"visit":"WEEK 12","visitnum":"7.0","dtc":"2024-07-05","value":"69.7","unit":"beats/min"},{"visit":"WEEK 16","visitnum":"8.0","dtc":"2024-08-03","value":"61.4","unit":"beats/min"},{"visit":"WEEK 20","visitnum":"9.0","dtc":"2024-08-26","value":"65.9","unit":"beats/min"},{"visit":"WEEK 24 EOT","visitnum":"10.0","dtc":"2024-10-02","value":"61.9","unit":"beats/min"},{"visit":"WEEK 28 SAFETY FU","visitnum":"11.0","dtc":"2024-10-27","value":"69.6","unit":"beats/min"}],"RESP":[{"visit":"SCREENING","visitnum":"1.0","dtc":"2024-01-29","value":"13.8","unit":"breaths/min"},{"visit":"RUN-IN START","visitnum":"2.0","dtc":"2024-02-24","value":"13.2","unit":"breaths/min"},{"visit":"RANDOMIZATION","visitnum":"3.0","dtc":"2024-04-13","value":"13.3","unit":"breaths/min"},{"visit":"WEEK 2","visitnum":"4.0","dtc":"2024-04-24","value":"13.8","unit":"breaths/min"},{"visit":"WEEK 4","visitnum":"5.0","dtc":"2024-05-12","value":"13.3","unit":"breaths/min"},{"visit":"WEEK 8","visitnum":"6.0","dtc":"2024-06-04","value":"13.8","unit":"breaths/min"},{"visit":"WEEK 12","visitnum":"7.0","dtc":"2024-07-05","value":"14.3","unit":"breaths/min"},{"visit":"WEEK 16","visitnum":"8.0","dtc":"2024-08-03","value":"12.8","unit":"breaths/min"},{"visit":"WEEK 20","visitnum":"9.0","dtc":"2024-08-26","value":"14.7","unit":"breaths/min"},{"visit":"WEEK 24 EOT","visitnum":"10.0","dtc":"2024-10-02","value":"14.1","unit":"breaths/min"},{"visit":"WEEK 28 SAFETY FU","visitnum":"11.0","dtc":"2024-10-27","value":"15.5","unit":"breaths/min"}],"SYSBP":[{"visit":"SCREENING","visitnum":"1.0","dtc":"2024-01-29","value":"114.5","unit":"mmHg"},{"visit":"RUN-IN START","visitnum":"2.0","dtc":"2024-02-24","value":"114.3","unit":"mmHg"},{"visit":"RANDOMIZATION","visitnum":"3.0","dtc":"2024-04-13","value":"116.5","unit":"mmHg"},{"visit":"WEEK 4","visitnum":"5.0","dtc":"2024-05-12","value":"117.1","unit":"mmHg"},{"visit":"WEEK 8","visitnum":"6.0","dtc":"2024-06-04","value":"117.1","unit":"mmHg"},{"visit":"WEEK 12","visitnum":"7.0","dtc":"2024-07-05","value":"119.9","unit":"mmHg"},{"visit":"WEEK 16","visitnum":"8.0","dtc":"2024-08-03","value":"116.0","unit":"mmHg"},{"visit":"WEEK 20","visitnum":"9.0","dtc":"2024-08-26","value":"112.8","unit":"mmHg"},{"visit":"WEEK 24 EOT","visitnum":"10.0","dtc":"2024-10-02","value":"118.4","unit":"mmHg"},{"visit":"WEEK 28 SAFETY FU","visitnum":"11.0","dtc":"2024-10-27","value":"119.0","unit":"mmHg"}],"TEMP":[{"visit":"SCREENING","visitnum":"1.0","dtc":"2024-01-29","value":"36.6","unit":"C"},{"visit":"RUN-IN START","visitnum":"2.0","dtc":"2024-02-24","value":"36.5","unit":"C"},{"visit":"RANDOMIZATION","visitnum":"3.0","dtc":"2024-04-13","value":"36.6","unit":"C"},{"visit":"WEEK 2","visitnum":"4.0","dtc":"2024-04-24","value":"36.5","unit":"C"},{"visit":"WEEK 4","visitnum":"5.0","dtc":"2024-05-12","value":"36.4","unit":"C"},{"visit":"WEEK 8","visitnum":"6.0","dtc":"2024-06-04","value":"36.9","unit":"C"},{"visit":"WEEK 12","visitnum":"7.0","dtc":"2024-07-05","value":"36.5","unit":"C"},{"visit":"WEEK 16","visitnum":"8.0","dtc":"2024-08-03","value":"36.8","unit":"C"},{"visit":"WEEK 20","visitnum":"9.0","dtc":"2024-08-26","value":"36.9","unit":"C"},{"visit":"WEEK 24 EOT","visitnum":"10.0","dtc":"2024-10-02","value":"36.9","unit":"C"},{"visit":"WEEK 28 SAFETY FU","visitnum":"11.0","dtc":"2024-10-27","value":"36.6","unit":"C"}],"WEIGHT":[{"visit":"SCREENING","visitnum":"1.0","dtc":"2024-01-29","value":"68.3","unit":"kg"},{"visit":"RUN-IN START","visitnum":"2.0","dtc":"2024-02-24","value":"69.2","unit":"kg"},{"visit":"RANDOMIZATION","visitnum":"3.0","dtc":"2024-04-13","value":"67.7","unit":"kg"},{"visit":"WEEK 2","visitnum":"4.0","dtc":"2024-04-24","value":"66.7","unit":"kg"},{"visit":"WEEK 4","visitnum":"5.0","dtc":"2024-05-12","value":"65.1","unit":"kg"},{"visit":"WEEK 8","visitnum":"6.0","dtc":"2024-06-04","value":"63.5","unit":"kg"},{"visit":"WEEK 12","visitnum":"7.0","dtc":"2024-07-05","value":"63.5","unit":"kg"},{"visit":"WEEK 16","visitnum":"8.0","dtc":"2024-08-03","value":"63.2","unit":"kg"},{"visit":"WEEK 20","visitnum":"9.0","dtc":"2024-08-26","value":"58.6","unit":"kg"},{"visit":"WEEK 24 EOT","visitnum":"10.0","dtc":"2024-10-02","value":"61.4","unit":"kg"},{"visit":"WEEK 28 SAFETY FU","visitnum":"11.0","dtc":"2024-10-27","value":"63.1","unit":"kg"}]},"results":[{"seq":"1","testcd":"BMI","test":"BMI","cat":null,"orres":null,"orresu":null,"stresc":"29.3","stresn":"29.3","stresu":"kg/m2","stnrlo":null,"stnrhi":null,"nrind":null,"pos":null,"loc":null,"dtc":"2024-01-29","dy":"-75","visit":"SCREENING","visitnum":"1.0","epoch":"SCREENING"},{"seq":"2","testcd":"DIABP","test":"Diastolic Blood Pressure","cat":null,"orres":"67.3","orresu":"mmHg","stresc":"67.3","stresn":"67.3","stresu":"mmHg","stnrlo":null,"stnrhi":null,"nrind":null,"pos":null,"loc":null,"dtc":"2024-01-29","dy":"-75","visit":"SCREENING","visitnum":"1.0","epoch":"SCREENING"},{"seq":"3","testcd":"HEIGHT","test":"Height","cat":null,"orres":"152.6","orresu":"cm","stresc":"152.6","stresn":"152.6","stresu":"cm","stnrlo":null,"stnrhi":null,"nrind":null,"pos":null,"loc":null,"dtc":"2024-01-29","dy":"-75","visit":"SCREENING","visitnum":"1.0","epoch":"SCREENING"},{"seq":"4","testcd":"PULSE","test":"Pulse Rate","cat":null,"orres":"73.3","orresu":"beats/min","stresc":"73.3","stresn":"73.3","stresu":"beats/min","stnrlo":null,"stnrhi":null,"nrind":null,"pos":null,"loc":null,"dtc":"2024-01-29","dy":"-75","visit":"SCREENING","visitnum":"1.0","epoch":"SCREENING"},{"seq":"5","testcd":"RESP","test":"Respiratory Rate","cat":null,"orres":"13.8","orresu":"breaths/min","stresc":"13.8","stresn":"13.8","stresu":"breaths/min","stnrlo":null,"stnrhi":null,"nrind":null,"pos":null,"loc":null,"dtc":"2024-01-29","dy":"-75","visit":"SCREENING","visitnum":"1.0","epoch":"SCREENING"},{"seq":"6","testcd":"SYSBP","test":"Systolic Blood Pressure","cat":null,"orres":"114.5","orresu":"mmHg","stresc":"114.5","stresn":"114.5","stresu":"mmHg","stnrlo":null,"stnrhi":null,"nrind":null,"pos":null,"loc":null,"dtc":"2024-01-29","dy":"-75","visit":"SCREENING","visitnum":"1.0","epoch":"SCREENING"},{"seq":"7","testcd":"TEMP","test":"Temperature","cat":null,"orres":"36.6","orresu":"C","stresc":"36.6","stresn":"36.6","stresu":"C","stnrlo":null,"stnrhi":null,"nrind":null,"pos":null,"loc":null,"dtc":"2024-01-29","dy":"-75","visit":"SCREENING","visitnum":"1.0","epoch":"SCREENING"},{"seq":"8","testcd":"WEIGHT","test":"Weight","cat":null,"orres":"68.3","orresu":"kg","stresc":"68.3","stresn":"68.3","stresu":"kg","stnrlo":null,"stnrhi":null,"nrind":null,"pos":null,"loc":null,"dtc":"2024-01-29","dy":"-75","visit":"SCREENING","visitnum":"1.0","epoch":"SCREENING"},{"seq":"9","testcd":"BMI","test":"BMI","cat":null,"orres":null,"orresu":null,"stresc":"29.3","stresn":"29.3","stresu":"kg/m2","stnrlo":null,"stnrhi":null,"nrind":null,"pos":null,"loc":null,"dtc":"2024-02-24","dy":"-49","visit":"RUN-IN START","visitnum":"2.0","epoch":"RUN_IN"},{"seq":"10","testcd":"DIABP","test":"Diastolic Blood Pressure","cat":null,"orres":"67.6","orresu":"mmHg","stresc":"67.6","stresn":"67.6","stresu":"mmHg","stnrlo":null,"stnrhi":null,"nrind":null,"pos":null,"loc":null,"dtc":"2024-02-24","dy":"-49","visit":"RUN-IN START","visitnum":"2.0","epoch":"RUN_IN"},{"seq":"11","testcd":"HEIGHT","test":"Height","cat":null,"orres":"153.7","orresu":"cm","stresc":"153.7","stresn":"153.7","stresu":"cm","stnrlo":null,"stnrhi":null,"nrind":null,"pos":null,"loc":null,"dtc":"2024-02-24","dy":"-49","visit":"RUN-IN START","visitnum":"2.0","epoch":"RUN_IN"},{"seq":"12","testcd":"PULSE","test":"Pulse Rate","cat":null,"orres":"82.0","orresu":"beats/min","stresc":"82.0","stresn":"82.0","stresu":"beats/min","stnrlo":null,"stnrhi":null,"nrind":null,"pos":null,"loc":null,"dtc":"2024-02-24","dy":"-49","visit":"RUN-IN START","visitnum":"2.0","epoch":"RUN_IN"},{"seq":"13","testcd":"RESP","test":"Respiratory Rate","cat":null,"orres":"13.2","orresu":"breaths/min","stresc":"13.2","stresn":"13.2","stresu":"breaths/min","stnrlo":null,"stnrhi":null,"nrind":null,"pos":null,"loc":null,"dtc":"2024-02-24","dy":"-49","visit":"RUN-IN START","visitnum":"2.0","epoch":"RUN_IN"},{"seq":"14","testcd":"SYSBP","test":"Systolic Blood Pressure","cat":null,"orres":"114.3","orresu":"mmHg","stresc":"114.3","stresn":"114.3","stresu":"mmHg","stnrlo":null,"stnrhi":null,"nrind":null,"pos":null,"loc":null,"dtc":"2024-02-24","dy":"-49","visit":"RUN-IN START","visitnum":"2.0","epoch":"RUN_IN"},{"seq":"15","testcd":"TEMP","test":"Temperature","cat":null,"orres":"36.5","orresu":"C","stresc":"36.5","stresn":"36.5","stresu":"C","stnrlo":null,"stnrhi":null,"nrind":null,"pos":null,"loc":null,"dtc":"2024-02-24","dy":"-49","visit":"RUN-IN START","visitnum":"2.0","epoch":"RUN_IN"},{"seq":"16","testcd":"WEIGHT","test":"Weight","cat":null,"orres":"69.2","orresu":"kg","stresc":"69.2","stresn":"69.2","stresu":"kg","stnrlo":null,"stnrhi":null,"nrind":null,"pos":null,"loc":null,"dtc":"2024-02-24","dy":"-49","visit":"RUN-IN START","visitnum":"2.0","epoch":"RUN_IN"},{"seq":"17","testcd":"BMI","test":"BMI","cat":null,"orres":null,"orresu":null,"stresc":"28.6","stresn":"28.6","stresu":"kg/m2","stnrlo":null,"stnrhi":null,"nrind":null,"pos":null,"loc":null,"dtc":"2024-04-13","dy":"1","visit":"RANDOMIZATION","visitnum":"3.0","epoch":"TREATMENT"},{"seq":"18","testcd":"DIABP","test":"Diastolic Blood Pressure","cat":null,"orres":"68.5","orresu":"mmHg","stresc":"68.5","stresn":"68.5","stresu":"mmHg","stnrlo":null,"stnrhi":null,"nrind":null,"pos":null,"loc":null,"dtc":"2024-04-13","dy":"1","visit":"RANDOMIZATION","visitnum":"3.0","epoch":"TREATMENT"},{"seq":"19","testcd":"HEIGHT","test":"Height","cat":null,"orres":"153.8","orresu":"cm","stresc":"153.8","stresn":"153.8","stresu":"cm","stnrlo":null,"stnrhi":null,"nrind":null,"pos":null,"loc":null,"dtc":"2024-04-13","dy":"1","visit":"RANDOMIZATION","visitnum":"3.0","epoch":"TREATMENT"},{"seq":"20","testcd":"PULSE","test":"Pulse Rate","cat":null,"orres":"79.5","orresu":"beats/min","stresc":"79.5","stresn":"79.5","stresu":"beats/min","stnrlo":null,"stnrhi":null,"nrind":null,"pos":null,"loc":null,"dtc":"2024-04-13","dy":"1","visit":"RANDOMIZATION","visitnum":"3.0","epoch":"TREATMENT"},{"seq":"21","testcd":"RESP","test":"Respiratory Rate","cat":null,"orres":"13.3","orresu":"breaths/min","stresc":"13.3","stresn":"13.3","stresu":"breaths/min","stnrlo":null,"stnrhi":null,"nrind":null,"pos":null,"loc":null,"dtc":"2024-04-13","dy":"1","visit":"RANDOMIZATION","visitnum":"3.0","epoch":"TREATMENT"},{"seq":"22","testcd":"SYSBP","test":"Systolic Blood Pressure","cat":null,"orres":"116.5","orresu":"mmHg","stresc":"116.5","stresn":"116.5","stresu":"mmHg","stnrlo":null,"stnrhi":null,"nrind":null,"pos":null,"loc":null,"dtc":"2024-04-13","dy":"1","visit":"RANDOMIZATION","visitnum":"3.0","epoch":"TREATMENT"},{"seq":"23","testcd":"TEMP","test":"Temperature","cat":null,"orres":"36.6","orresu":"C","stresc":"36.6","stresn":"36.6","stresu":"C","stnrlo":null,"stnrhi":null,"nrind":null,"pos":null,"loc":null,"dtc":"2024-04-13","dy":"1","visit":"RANDOMIZATION","visitnum":"3.0","epoch":"TREATMENT"},{"seq":"24","testcd":"WEIGHT","test":"Weight","cat":null,"orres":"67.7","orresu":"kg","stresc":"67.7","stresn":"67.7","stresu":"kg","stnrlo":null,"stnrhi":null,"nrind":null,"pos":null,"loc":null,"dtc":"2024-04-13","dy":"1","visit":"RANDOMIZATION","visitnum":"3.0","epoch":"TREATMENT"},{"seq":"25","testcd":"BMI","test":"BMI","cat":null,"orres":null,"orresu":null,"stresc":"27.9","stresn":"27.9","stresu":"kg/m2","stnrlo":null,"stnrhi":null,"nrind":null,"pos":null,"loc":null,"dtc":"2024-04-24","dy":"12","visit":"WEEK 2","visitnum":"4.0","epoch":"TREATMENT"},{"seq":"26","testcd":"DIABP","test":"Diastolic Blood Pressure","cat":null,"orres":"68.3","orresu":"mmHg","stresc":"68.3","stresn":"68.3","stresu":"mmHg","stnrlo":null,"stnrhi":null,"nrind":null,"pos":null,"loc":null,"dtc":"2024-04-24","dy":"12","visit":"WEEK 2","visitnum":"4.0","epoch":"TREATMENT"},{"seq":"27","testcd":"HEIGHT","test":"Height","cat":null,"orres":"154.5","orresu":"cm","stresc":"154.5","stresn":"154.5","stresu":"cm","stnrlo":null,"stnrhi":null,"nrind":null,"pos":null,"loc":null,"dtc":"2024-04-24","dy":"12","visit":"WEEK 2","visitnum":"4.0","epoch":"TREATMENT"},{"seq":"28","testcd":"PULSE","test":"Pulse Rate","cat":null,"orres":"74.9","orresu":"beats/min","stresc":"74.9","stresn":"74.9","stresu":"beats/min","stnrlo":null,"stnrhi":null,"nrind":null,"pos":null,"loc":null,"dtc":"2024-04-24","dy":"12","visit":"WEEK 2","visitnum":"4.0","epoch":"TREATMENT"},{"seq":"29","testcd":"RESP","test":"Respiratory Rate","cat":null,"orres":"13.8","orresu":"breaths/min","stresc":"13.8","stresn":"13.8","stresu":"breaths/min","stnrlo":null,"stnrhi":null,"nrind":null,"pos":null,"loc":null,"dtc":"2024-04-24","dy":"12","visit":"WEEK 2","visitnum":"4.0","epoch":"TREATMENT"},{"seq":"30","testcd":"SYSBP","test":"Systolic Blood Pressure","cat":null,"orres":null,"orresu":null,"stresc":null,"stresn":null,"stresu":null,"stnrlo":null,"stnrhi":null,"nrind":null,"pos":null,"loc":null,"dtc":"2024-04-24","dy":"12","visit":"WEEK 2","visitnum":"4.0","epoch":"TREATMENT"},{"seq":"31","testcd":"TEMP","test":"Temperature","cat":null,"orres":"36.5","orresu":"C","stresc":"36.5","stresn":"36.5","stresu":"C","stnrlo":null,"stnrhi":null,"nrind":null,"pos":null,"loc":null,"dtc":"2024-04-24","dy":"12","visit":"WEEK 2","visitnum":"4.0","epoch":"TREATMENT"},{"seq":"32","testcd":"WEIGHT","test":"Weight","cat":null,"orres":"66.7","orresu":"kg","stresc":"66.7","stresn":"66.7","stresu":"kg","stnrlo":null,"stnrhi":null,"nrind":null,"pos":null,"loc":null,"dtc":"2024-04-24","dy":"12","visit":"WEEK 2","visitnum":"4.0","epoch":"TREATMENT"},{"seq":"33","testcd":"BMI","test":"BMI","cat":null,"orres":null,"orresu":null,"stresc":"27.3","stresn":"27.3","stresu":"kg/m2","stnrlo":null,"stnrhi":null,"nrind":null,"pos":null,"loc":null,"dtc":"2024-05-12","dy":"30","visit":"WEEK 4","visitnum":"5.0","epoch":"TREATMENT"},{"seq":"34","testcd":"DIABP","test":"Diastolic Blood Pressure","cat":null,"orres":"69.8","orresu":"mmHg","stresc":"69.8","stresn":"69.8","stresu":"mmHg","stnrlo":null,"stnrhi":null,"nrind":null,"pos":null,"loc":null,"dtc":"2024-05-12","dy":"30","visit":"WEEK 4","visitnum":"5.0","epoch":"TREATMENT"},{"seq":"35","testcd":"HEIGHT","test":"Height","cat":null,"orres":"154.3","orresu":"cm","stresc":"154.3","stresn":"154.3","stresu":"cm","stnrlo":null,"stnrhi":null,"nrind":null,"pos":null,"loc":null,"dtc":"2024-05-12","dy":"30","visit":"WEEK 4","visitnum":"5.0","epoch":"TREATMENT"},{"seq":"36","testcd":"PULSE","test":"Pulse Rate","cat":null,"orres":"73.2","orresu":"beats/min","stresc":"73.2","stresn":"73.2","stresu":"beats/min","stnrlo":null,"stnrhi":null,"nrind":null,"pos":null,"loc":null,"dtc":"2024-05-12","dy":"30","visit":"WEEK 4","visitnum":"5.0","epoch":"TREATMENT"},{"seq":"37","testcd":"RESP","test":"Respiratory Rate","cat":null,"orres":"13.3","orresu":"breaths/min","stresc":"13.3","stresn":"13.3","stresu":"breaths/min","stnrlo":null,"stnrhi":null,"nrind":null,"pos":null,"loc":null,"dtc":"2024-05-12","dy":"30","visit":"WEEK 4","visitnum":"5.0","epoch":"TREATMENT"},{"seq":"38","testcd":"SYSBP","test":"Systolic Blood Pressure","cat":null,"orres":"117.1","orresu":"mmHg","stresc":"117.1","stresn":"117.1","stresu":"mmHg","stnrlo":null,"stnrhi":null,"nrind":null,"pos":null,"loc":null,"dtc":"2024-05-12","dy":"30","visit":"WEEK 4","visitnum":"5.0","epoch":"TREATMENT"},{"seq":"39","testcd":"TEMP","test":"Temperature","cat":null,"orres":"36.4","orresu":"C","stresc":"36.4","stresn":"36.4","stresu":"C","stnrlo":null,"stnrhi":null,"nrind":null,"pos":null,"loc":null,"dtc":"2024-05-12","dy":"30","visit":"WEEK 4","visitnum":"5.0","epoch":"TREATMENT"},{"seq":"40","testcd":"WEIGHT","test":"Weight","cat":null,"orres":"65.1","orresu":"kg","stresc":"65.1","stresn":"65.1","stresu":"kg","stnrlo":null,"stnrhi":null,"nrind":null,"pos":null,"loc":null,"dtc":"2024-05-12","dy":"30","visit":"WEEK 4","visitnum":"5.0","epoch":"TREATMENT"},{"seq":"41","testcd":"BMI","test":"BMI","cat":null,"orres":null,"orresu":null,"stresc":"26.7","stresn":"26.7","stresu":"kg/m2","stnrlo":null,"stnrhi":null,"nrind":null,"pos":null,"loc":null,"dtc":"2024-06-04","dy":"53","visit":"WEEK 8","visitnum":"6.0","epoch":"TREATMENT"},{"seq":"42","testcd":"DIABP","test":"Diastolic Blood Pressure","cat":null,"orres":"70.2","orresu":"mmHg","stresc":"70.2","stresn":"70.2","stresu":"mmHg","stnrlo":null,"stnrhi":null,"nrind":null,"pos":null,"loc":null,"dtc":"2024-06-04","dy":"53","visit":"WEEK 8","visitnum":"6.0","epoch":"TREATMENT"},{"seq":"43","testcd":"HEIGHT","test":"Height","cat":null,"orres":"154.2","orresu":"cm","stresc":"154.2","stresn":"154.2","stresu":"cm","stnrlo":null,"stnrhi":null,"nrind":null,"pos":null,"loc":null,"dtc":"2024-06-04","dy":"53","visit":"WEEK 8","visitnum":"6.0","epoch":"TREATMENT"},{"seq":"44","testcd":"PULSE","test":"Pulse Rate","cat":null,"orres":"69.8","orresu":"beats/min","stresc":"69.8","stresn":"69.8","stresu":"beats/min","stnrlo":null,"stnrhi":null,"nrind":null,"pos":null,"loc":null,"dtc":"2024-06-04","dy":"53","visit":"WEEK 8","visitnum":"6.0","epoch":"TREATMENT"},{"seq":"45","testcd":"RESP","test":"Respiratory Rate","cat":null,"orres":"13.8","orresu":"breaths/min","stresc":"13.8","stresn":"13.8","stresu":"breaths/min","stnrlo":null,"stnrhi":null,"nrind":null,"pos":null,"loc":null,"dtc":"2024-06-04","dy":"53","visit":"WEEK 8","visitnum":"6.0","epoch":"TREATMENT"},{"seq":"46","testcd":"SYSBP","test":"Systolic Blood Pressure","cat":null,"orres":"117.1","orresu":"mmHg","stresc":"117.1","stresn":"117.1","stresu":"mmHg","stnrlo":null,"stnrhi":null,"nrind":null,"pos":null,"loc":null,"dtc":"2024-06-04","dy":"53","visit":"WEEK 8","visitnum":"6.0","epoch":"TREATMENT"},{"seq":"47","testcd":"TEMP","test":"Temperature","cat":null,"orres":"36.9","orresu":"C","stresc":"36.9","stresn":"36.9","stresu":"C","stnrlo":null,"stnrhi":null,"nrind":null,"pos":null,"loc":null,"dtc":"2024-06-04","dy":"53","visit":"WEEK 8","visitnum":"6.0","epoch":"TREATMENT"},{"seq":"48","testcd":"WEIGHT","test":"Weight","cat":null,"orres":"63.5","orresu":"kg","stresc":"63.5","stresn":"63.5","stresu":"kg","stnrlo":null,"stnrhi":null,"nrind":null,"pos":null,"loc":null,"dtc":"2024-06-04","dy":"53","visit":"WEEK 8","visitnum":"6.0","epoch":"TREATMENT"},{"seq":"49","testcd":"BMI","test":"BMI","cat":null,"orres":null,"orresu":null,"stresc":"26.7","stresn":"26.7","stresu":"kg/m2","stnrlo":null,"stnrhi":null,"nrind":null,"pos":null,"loc":null,"dtc":"2024-07-05","dy":"84","visit":"WEEK 12","visitnum":"7.0","epoch":"TREATMENT"},{"seq":"50","testcd":"DIABP","test":"Diastolic Blood Pressure","cat":null,"orres":"72.1","orresu":"mmHg","stresc":"72.1","stresn":"72.1","stresu":"mmHg","stnrlo":null,"stnrhi":null,"nrind":null,"pos":null,"loc":null,"dtc":"2024-07-05","dy":"84","visit":"WEEK 12","visitnum":"7.0","epoch":"TREATMENT"},{"seq":"51","testcd":"HEIGHT","test":"Height","cat":null,"orres":"154.1","orresu":"cm","stresc":"154.1","stresn":"154.1","stresu":"cm","stnrlo":null,"stnrhi":null,"nrind":null,"pos":null,"loc":null,"dtc":"2024-07-05","dy":"84","visit":"WEEK 12","visitnum":"7.0","epoch":"TREATMENT"},{"seq":"52","testcd":"PULSE","test":"Pulse Rate","cat":null,"orres":"69.7","orresu":"beats/min","stresc":"69.7","stresn":"69.7","stresu":"beats/min","stnrlo":null,"stnrhi":null,"nrind":null,"pos":null,"loc":null,"dtc":"2024-07-05","dy":"84","visit":"WEEK 12","visitnum":"7.0","epoch":"TREATMENT"},{"seq":"53","testcd":"RESP","test":"Respiratory Rate","cat":null,"orres":"14.3","orresu":"breaths/min","stresc":"14.3","stresn":"14.3","stresu":"breaths/min","stnrlo":null,"stnrhi":null,"nrind":null,"pos":null,"loc":null,"dtc":"2024-07-05","dy":"84","visit":"WEEK 12","visitnum":"7.0","epoch":"TREATMENT"},{"seq":"54","testcd":"SYSBP","test":"Systolic Blood Pressure","cat":null,"orres":"119.9","orresu":"mmHg","stresc":"119.9","stresn":"119.9","stresu":"mmHg","stnrlo":null,"stnrhi":null,"nrind":null,"pos":null,"loc":null,"dtc":"2024-07-05","dy":"84","visit":"WEEK 12","visitnum":"7.0","epoch":"TREATMENT"},{"seq":"55","testcd":"TEMP","test":"Temperature","cat":null,"orres":"36.5","orresu":"C","stresc":"36.5","stresn":"36.5","stresu":"C","stnrlo":null,"stnrhi":null,"nrind":null,"pos":null,"loc":null,"dtc":"2024-07-05","dy":"84","visit":"WEEK 12","visitnum":"7.0","epoch":"TREATMENT"},{"seq":"56","testcd":"WEIGHT","test":"Weight","cat":null,"orres":"63.5","orresu":"kg","stresc":"63.5","stresn":"63.5","stresu":"kg","stnrlo":null,"stnrhi":null,"nrind":null,"pos":null,"loc":null,"dtc":"2024-07-05","dy":"84","visit":"WEEK 12","visitnum":"7.0","epoch":"TREATMENT"},{"seq":"57","testcd":"BMI","test":"BMI","cat":null,"orres":null,"orresu":null,"stresc":"26.4","stresn":"26.4","stresu":"kg/m2","stnrlo":null,"stnrhi":null,"nrind":null,"pos":null,"loc":null,"dtc":"2024-08-03","dy":"113","visit":"WEEK 16","visitnum":"8.0","epoch":"TREATMENT"},{"seq":"58","testcd":"DIABP","test":"Diastolic Blood Pressure","cat":null,"orres":"70.2","orresu":"mmHg","stresc":"70.2","stresn":"70.2","stresu":"mmHg","stnrlo":null,"stnrhi":null,"nrind":null,"pos":null,"loc":null,"dtc":"2024-08-03","dy":"113","visit":"WEEK 16","visitnum":"8.0","epoch":"TREATMENT"},{"seq":"59","testcd":"HEIGHT","test":"Height","cat":null,"orres":"154.6","orresu":"cm","stresc":"154.6","stresn":"154.6","stresu":"cm","stnrlo":null,"stnrhi":null,"nrind":null,"pos":null,"loc":null,"dtc":"2024-08-03","dy":"113","visit":"WEEK 16","visitnum":"8.0","epoch":"TREATMENT"},{"seq":"60","testcd":"PULSE","test":"Pulse Rate","cat":null,"orres":"61.4","orresu":"beats/min","stresc":"61.4","stresn":"61.4","stresu":"beats/min","stnrlo":null,"stnrhi":null,"nrind":null,"pos":null,"loc":null,"dtc":"2024-08-03","dy":"113","visit":"WEEK 16","visitnum":"8.0","epoch":"TREATMENT"},{"seq":"61","testcd":"RESP","test":"Respiratory Rate","cat":null,"orres":"12.8","orresu":"breaths/min","stresc":"12.8","stresn":"12.8","stresu":"breaths/min","stnrlo":null,"stnrhi":null,"nrind":null,"pos":null,"loc":null,"dtc":"2024-08-03","dy":"113","visit":"WEEK 16","visitnum":"8.0","epoch":"TREATMENT"},{"seq":"62","testcd":"SYSBP","test":"Systolic Blood Pressure","cat":null,"orres":"116.0","orresu":"mmHg","stresc":"116.0","stresn":"116.0","stresu":"mmHg","stnrlo":null,"stnrhi":null,"nrind":null,"pos":null,"loc":null,"dtc":"2024-08-03","dy":"113","visit":"WEEK 16","visitnum":"8.0","epoch":"TREATMENT"},{"seq":"63","testcd":"TEMP","test":"Temperature","cat":null,"orres":"36.8","orresu":"C","stresc":"36.8","stresn":"36.8","stresu":"C","stnrlo":null,"stnrhi":null,"nrind":null,"pos":null,"loc":null,"dtc":"2024-08-03","dy":"113","visit":"WEEK 16","visitnum":"8.0","epoch":"TREATMENT"},{"seq":"64","testcd":"WEIGHT","test":"Weight","cat":null,"orres":"63.2","orresu":"kg","stresc":"63.2","stresn":"63.2","stresu":"kg","stnrlo":null,"stnrhi":null,"nrind":null,"pos":null,"loc":null,"dtc":"2024-08-03","dy":"113","visit":"WEEK 16","visitnum":"8.0","epoch":"TREATMENT"},{"seq":"65","testcd":"BMI","test":"BMI","cat":null,"orres":null,"orresu":null,"stresc":"24.5","stresn":"24.5","stresu":"kg/m2","stnrlo":null,"stnrhi":null,"nrind":null,"pos":null,"loc":null,"dtc":"2024-08-26","dy":"136","visit":"WEEK 20","visitnum":"9.0","epoch":"TREATMENT"},{"seq":"66","testcd":"DIABP","test":"Diastolic Blood Pressure","cat":null,"orres":"69.6","orresu":"mmHg","stresc":"69.6","stresn":"69.6","stresu":"mmHg","stnrlo":null,"stnrhi":null,"nrind":null,"pos":null,"loc":null,"dtc":"2024-08-26","dy":"136","visit":"WEEK 20","visitnum":"9.0","epoch":"TREATMENT"},{"seq":"67","testcd":"HEIGHT","test":"Height","cat":null,"orres":"154.6","orresu":"cm","stresc":"154.6","stresn":"154.6","stresu":"cm","stnrlo":null,"stnrhi":null,"nrind":null,"pos":null,"loc":null,"dtc":"2024-08-26","dy":"136","visit":"WEEK 20","visitnum":"9.0","epoch":"TREATMENT"},{"seq":"68","testcd":"PULSE","test":"Pulse Rate","cat":null,"orres":"65.9","orresu":"beats/min","stresc":"65.9","stresn":"65.9","stresu":"beats/min","stnrlo":null,"stnrhi":null,"nrind":null,"pos":null,"loc":null,"dtc":"2024-08-26","dy":"136","visit":"WEEK 20","visitnum":"9.0","epoch":"TREATMENT"},{"seq":"69","testcd":"RESP","test":"Respiratory Rate","cat":null,"orres":"14.7","orresu":"breaths/min","stresc":"14.7","stresn":"14.7","stresu":"breaths/min","stnrlo":null,"stnrhi":null,"nrind":null,"pos":null,"loc":null,"dtc":"2024-08-26","dy":"136","visit":"WEEK 20","visitnum":"9.0","epoch":"TREATMENT"},{"seq":"70","testcd":"SYSBP","test":"Systolic Blood Pressure","cat":null,"orres":"112.8","orresu":"mmHg","stresc":"112.8","stresn":"112.8","stresu":"mmHg","stnrlo":null,"stnrhi":null,"nrind":null,"pos":null,"loc":null,"dtc":"2024-08-26","dy":"136","visit":"WEEK 20","visitnum":"9.0","epoch":"TREATMENT"},{"seq":"71","testcd":"TEMP","test":"Temperature","cat":null,"orres":"36.9","orresu":"C","stresc":"36.9","stresn":"36.9","stresu":"C","stnrlo":null,"stnrhi":null,"nrind":null,"pos":null,"loc":null,"dtc":"2024-08-26","dy":"136","visit":"WEEK 20","visitnum":"9.0","epoch":"TREATMENT"},{"seq":"72","testcd":"WEIGHT","test":"Weight","cat":null,"orres":"58.6","orresu":"kg","stresc":"58.6","stresn":"58.6","stresu":"kg","stnrlo":null,"stnrhi":null,"nrind":null,"pos":null,"loc":null,"dtc":"2024-08-26","dy":"136","visit":"WEEK 20","visitnum":"9.0","epoch":"TREATMENT"},{"seq":"73","testcd":"BMI","test":"BMI","cat":null,"orres":null,"orresu":null,"stresc":"25.6","stresn":"25.6","stresu":"kg/m2","stnrlo":null,"stnrhi":null,"nrind":null,"pos":null,"loc":null,"dtc":"2024-10-02","dy":"173","visit":"WEEK 24 EOT","visitnum":"10.0","epoch":"TREATMENT"},{"seq":"74","testcd":"DIABP","test":"Diastolic Blood Pressure","cat":null,"orres":"72.0","orresu":"mmHg","stresc":"72.0","stresn":"72.0","stresu":"mmHg","stnrlo":null,"stnrhi":null,"nrind":null,"pos":null,"loc":null,"dtc":"2024-10-02","dy":"173","visit":"WEEK 24 EOT","visitnum":"10.0","epoch":"TREATMENT"},{"seq":"75","testcd":"HEIGHT","test":"Height","cat":null,"orres":"154.9","orresu":"cm","stresc":"154.9","stresn":"154.9","stresu":"cm","stnrlo":null,"stnrhi":null,"nrind":null,"pos":null,"loc":null,"dtc":"2024-10-02","dy":"173","visit":"WEEK 24 EOT","visitnum":"10.0","epoch":"TREATMENT"},{"seq":"76","testcd":"PULSE","test":"Pulse Rate","cat":null,"orres":"61.9","orresu":"beats/min","stresc":"61.9","stresn":"61.9","stresu":"beats/min","stnrlo":null,"stnrhi":null,"nrind":null,"pos":null,"loc":null,"dtc":"2024-10-02","dy":"173","visit":"WEEK 24 EOT","visitnum":"10.0","epoch":"TREATMENT"},{"seq":"77","testcd":"RESP","test":"Respiratory Rate","cat":null,"orres":"14.1","orresu":"breaths/min","stresc":"14.1","stresn":"14.1","stresu":"breaths/min","stnrlo":null,"stnrhi":null,"nrind":null,"pos":null,"loc":null,"dtc":"2024-10-02","dy":"173","visit":"WEEK 24 EOT","visitnum":"10.0","epoch":"TREATMENT"},{"seq":"78","testcd":"SYSBP","test":"Systolic Blood Pressure","cat":null,"orres":"118.4","orresu":"mmHg","stresc":"118.4","stresn":"118.4","stresu":"mmHg","stnrlo":null,"stnrhi":null,"nrind":null,"pos":null,"loc":null,"dtc":"2024-10-02","dy":"173","visit":"WEEK 24 EOT","visitnum":"10.0","epoch":"TREATMENT"},{"seq":"79","testcd":"TEMP","test":"Temperature","cat":null,"orres":"36.9","orresu":"C","stresc":"36.9","stresn":"36.9","stresu":"C","stnrlo":null,"stnrhi":null,"nrind":null,"pos":null,"loc":null,"dtc":"2024-10-02","dy":"173","visit":"WEEK 24 EOT","visitnum":"10.0","epoch":"TREATMENT"},{"seq":"80","testcd":"WEIGHT","test":"Weight","cat":null,"orres":"61.4","orresu":"kg","stresc":"61.4","stresn":"61.4","stresu":"kg","stnrlo":null,"stnrhi":null,"nrind":null,"pos":null,"loc":null,"dtc":"2024-10-02","dy":"173","visit":"WEEK 24 EOT","visitnum":"10.0","epoch":"TREATMENT"},{"seq":"81","testcd":"BMI","test":"BMI","cat":null,"orres":null,"orresu":null,"stresc":"26.6","stresn":"26.6","stresu":"kg/m2","stnrlo":null,"stnrhi":null,"nrind":null,"pos":null,"loc":null,"dtc":"2024-10-27","dy":"198","visit":"WEEK 28 SAFETY FU","visitnum":"11.0","epoch":"FOLLOW-UP"},{"seq":"82","testcd":"DIABP","test":"Diastolic Blood Pressure","cat":null,"orres":"71.6","orresu":"mmHg","stresc":"71.6","stresn":"71.6","stresu":"mmHg","stnrlo":null,"stnrhi":null,"nrind":null,"pos":null,"loc":null,"dtc":"2024-10-27","dy":"198","visit":"WEEK 28 SAFETY FU","visitnum":"11.0","epoch":"FOLLOW-UP"},{"seq":"83","testcd":"HEIGHT","test":"Height","cat":null,"orres":"154.0","orresu":"cm","stresc":"154.0","stresn":"154.0","stresu":"cm","stnrlo":null,"stnrhi":null,"nrind":null,"pos":null,"loc":null,"dtc":"2024-10-27","dy":"198","visit":"WEEK 28 SAFETY FU","visitnum":"11.0","epoch":"FOLLOW-UP"},{"seq":"84","testcd":"PULSE","test":"Pulse Rate","cat":null,"orres":"69.6","orresu":"beats/min","stresc":"69.6","stresn":"69.6","stresu":"beats/min","stnrlo":null,"stnrhi":null,"nrind":null,"pos":null,"loc":null,"dtc":"2024-10-27","dy":"198","visit":"WEEK 28 SAFETY FU","visitnum":"11.0","epoch":"FOLLOW-UP"},{"seq":"85","testcd":"RESP","test":"Respiratory Rate","cat":null,"orres":"15.5","orresu":"breaths/min","stresc":"15.5","stresn":"15.5","stresu":"breaths/min","stnrlo":null,"stnrhi":null,"nrind":null,"pos":null,"loc":null,"dtc":"2024-10-27","dy":"198","visit":"WEEK 28 SAFETY FU","visitnum":"11.0","epoch":"FOLLOW-UP"},{"seq":"86","testcd":"SYSBP","test":"Systolic Blood Pressure","cat":null,"orres":"119.0","orresu":"mmHg","stresc":"119.0","stresn":"119.0","stresu":"mmHg","stnrlo":null,"stnrhi":null,"nrind":null,"pos":null,"loc":null,"dtc":"2024-10-27","dy":"198","visit":"WEEK 28 SAFETY FU","visitnum":"11.0","epoch":"FOLLOW-UP"},{"seq":"87","testcd":"TEMP","test":"Temperature","cat":null,"orres":"36.6","orresu":"C","stresc":"36.6","stresn":"36.6","stresu":"C","stnrlo":null,"stnrhi":null,"nrind":null,"pos":null,"loc":null,"dtc":"2024-10-27","dy":"198","visit":"WEEK 28 SAFETY FU","visitnum":"11.0","epoch":"FOLLOW-UP"},{"seq":"88","testcd":"WEIGHT","test":"Weight","cat":null,"orres":"63.1","orresu":"kg","stresc":"63.1","stresn":"63.1","stresu":"kg","stnrlo":null,"stnrhi":null,"nrind":null,"pos":null,"loc":null,"dtc":"2024-10-27","dy":"198","visit":"WEEK 28 SAFETY FU","visitnum":"11.0","epoch":"FOLLOW-UP"}]},"section_10_questionnaires_and_scores":{"questionnaires":[],"findings_about":[]},"section_11_protocol_deviations":{"deviations":[{"seq":"1","term":"Vital signs assessment not performed at WEEK 2","decod":"MISSED ASSESSMENT","cat":"MINOR","scat":"ASSESSMENT","start_dtc":"2024-04-24","end_dtc":null,"visit":null},{"seq":"2","term":"Visit WEEK 24 EOT occurred 4 days late (Day 173 vs planned Day 169)","decod":"VISIT OCCURRED OUTSIDE VISIT WINDOW","cat":"MINOR","scat":"VISIT WINDOW","start_dtc":"2024-10-02","end_dtc":null,"visit":null},{"seq":"3","term":"Visit WEEK 28 SAFETY FU occurred 1 days late (Day 198 vs planned Day 197)","decod":"VISIT OCCURRED OUTSIDE VISIT WINDOW","cat":"MINOR","scat":"VISIT WINDOW","start_dtc":"2024-10-27","end_dtc":null,"visit":null}],"total":3},"section_12_disposition":{"completion_status":"COMPLETED","disposition_records":[{"seq":"1","term":"INFORMED CONSENT OBTAINED","decod":"INFORMED CONSENT OBTAINED","cat":"PROTOCOL MILESTONE","scat":null,"dtc":"2024-03-31","dy":null,"visit":null,"epoch":"SCREENING"},{"seq":"2","term":"RANDOMIZED","decod":"RANDOMIZED","cat":"PROTOCOL MILESTONE","scat":null,"dtc":"2024-04-13","dy":null,"visit":null,"epoch":"RUN_IN"},{"seq":"3","term":"COMPLETED","decod":"COMPLETED","cat":"DISPOSITION EVENT","scat":null,"dtc":"2024-12-06","dy":null,"visit":null,"epoch":"FOLLOW-UP"}],"death":null},"section_13_hospitalizations":{"items":[],"total":0},"section_14_substance_use":{"items":[{"seq":"1","substance":"BEER/WINE/SPIRITS","decod":"ETHANOL","cat":"ALCOHOL","scat":null,"usage":"Y","dose":null,"dosu":null,"freq":null,"start_dtc":"1997-04-07","end_dtc":"2021-04-01"},{"seq":"2","substance":"COFFEE","decod":"COFFEE","cat":"CAFFEINE","scat":null,"usage":"N","dose":null,"dosu":null,"freq":null,"start_dtc":null,"end_dtc":null},{"seq":"3","substance":"CIGARETTES","decod":"CIGARETTES","cat":"TOBACCO","scat":null,"usage":"N","dose":null,"dosu":null,"freq":null,"start_dtc":null,"end_dtc":null}],"total":3},"section_15_subject_status":{"items":[{"seq":"1","testcd":"SURVSTAT","test":"Survival Status","orres":"ALIVE","stresc":"ALIVE","dtc":"2024-12-06","visit":null,"epoch":"FOLLOW-UP"}],"total":1}}