{"subject_id":"BI-1245.110-JPN_SITE01-0013","study_id":"BI-1245.110","generated_at":"2026-07-07T06:25:11.634127+00:00","sdtmig_version":"3.4","flags":{"has_serious_ae":true,"has_fatal_ae":true,"has_protocol_deviation":true,"n_protocol_deviations":47,"n_adverse_events":36,"n_concomitant_meds":9,"max_ae_severity":"SEVERE","screen_failure":false,"discontinued_early":true,"discontinuation_reason":"DEATH","death":true,"exposure_days":368},"timeline":[{"dtc":"2024-02-23","dy":"-34","event":"VISIT: SCREENING","domain":"SV","category":"visit"},{"dtc":"2024-03-18","dy":"-10","event":"INFORMED CONSENT OBTAINED","domain":"DS","category":"milestone"},{"dtc":"2024-03-28","dy":"1","event":"RANDOMIZED","domain":"DS","category":"milestone"},{"dtc":"2024-03-28","dy":"1","event":"FIRST DOSE: PLACEBO","domain":"EX","category":"exposure"},{"dtc":"2024-03-28","dy":"1","event":"VISIT: BASELINE","domain":"SV","category":"visit"},{"dtc":"2024-04-02","dy":"6","event":"AE: Nausea (SEVERE) [SERIOUS]","domain":"AE","category":"adverse_event"},{"dtc":"2024-04-26","dy":"30","event":"VISIT: WEEK 4","domain":"SV","category":"visit"},{"dtc":"2024-04-29","dy":"33","event":"DEVIATION: MISSED DOSE","domain":"DV","category":"deviation"},{"dtc":"2024-05-02","dy":"36","event":"DEVIATION: MISSED DOSE","domain":"DV","category":"deviation"},{"dtc":"2024-05-04","dy":"38","event":"AE: Fatigue (MODERATE)","domain":"AE","category":"adverse_event"},{"dtc":"2024-05-24","dy":"58","event":"DEVIATION: MISSED DOSE","domain":"DV","category":"deviation"},{"dtc":"2024-05-25","dy":"59","event":"AE: Headache (MODERATE)","domain":"AE","category":"adverse_event"},{"dtc":"2024-05-25","dy":"59","event":"CM START: IBUPROFEN","domain":"CM","category":"concomitant_med"},{"dtc":"2024-05-29","dy":"63","event":"AE: Nausea (MILD)","domain":"AE","category":"adverse_event"},{"dtc":"2024-05-29","dy":"63","event":"DEVIATION: MISSED DOSE","domain":"DV","category":"deviation"},{"dtc":"2024-05-31","dy":"65","event":"DEVIATION: MISSED DOSE","domain":"DV","category":"deviation"},{"dtc":"2024-06-09","dy":"74","event":"DEVIATION: MISSED DOSE","domain":"DV","category":"deviation"},{"dtc":"2024-06-12","dy":"77","event":"DEVIATION: MISSED DOSE","domain":"DV","category":"deviation"},{"dtc":"2024-06-13","dy":"78","event":"DEVIATION: MISSED DOSE","domain":"DV","category":"deviation"},{"dtc":"2024-06-24","dy":"89","event":"AE: Cytokine release syndrome (SEVERE) [SERIOUS]","domain":"AE","category":"adverse_event"},{"dtc":"2024-06-24","dy":"89","event":"CM START: IBUPROFEN","domain":"CM","category":"concomitant_med"},{"dtc":"2024-06-26","dy":"91","event":"DEVIATION: VISIT OCCURRED OUTSIDE VISIT WINDOW","domain":"DV","category":"deviation"},{"dtc":"2024-06-26","dy":"91","event":"DEVIATION: MISSED DOSE","domain":"DV","category":"deviation"},{"dtc":"2024-06-26","dy":"91","event":"VISIT: WEEK 12","domain":"SV","category":"visit"},{"dtc":"2024-06-30","dy":"95","event":"DEVIATION: MISSED DOSE","domain":"DV","category":"deviation"},{"dtc":"2024-07-09","dy":"104","event":"DEVIATION: MISSED DOSE","domain":"DV","category":"deviation"},{"dtc":"2024-07-17","dy":"112","event":"DEVIATION: MISSED DOSE","domain":"DV","category":"deviation"},{"dtc":"2024-07-24","dy":"119","event":"AE: Dizziness (MILD)","domain":"AE","category":"adverse_event"},{"dtc":"2024-07-30","dy":"125","event":"AE: Atrial fibrillation (MODERATE)","domain":"AE","category":"adverse_event"},{"dtc":"2024-07-30","dy":"125","event":"CM START: PARACETAMOL","domain":"CM","category":"concomitant_med"},{"dtc":"2024-08-03","dy":"129","event":"AE: Cardiac failure (MODERATE)","domain":"AE","category":"adverse_event"},{"dtc":"2024-08-05","dy":"131","event":"DEVIATION: MISSED DOSE","domain":"DV","category":"deviation"},{"dtc":"2024-08-19","dy":"145","event":"AE: Atrial fibrillation (MILD)","domain":"AE","category":"adverse_event"},{"dtc":"2024-08-20","dy":"146","event":"AE: Cardiac failure (MILD)","domain":"AE","category":"adverse_event"},{"dtc":"2024-08-27","dy":"153","event":"DEVIATION: MISSED DOSE","domain":"DV","category":"deviation"},{"dtc":"2024-08-30","dy":"156","event":"AE: Blood creatinine increased (SEVERE) [SERIOUS]","domain":"AE","category":"adverse_event"},{"dtc":"2024-08-31","dy":"157","event":"DEVIATION: MISSED DOSE","domain":"DV","category":"deviation"},{"dtc":"2024-09-09","dy":"166","event":"DEVIATION: MISSED DOSE","domain":"DV","category":"deviation"},{"dtc":"2024-09-13","dy":"170","event":"DEVIATION: MISSED DOSE","domain":"DV","category":"deviation"},{"dtc":"2024-09-14","dy":"171","event":"DEVIATION: MISSED DOSE","domain":"DV","category":"deviation"},{"dtc":"2024-09-22","dy":"179","event":"AE: Dizziness (MODERATE)","domain":"AE","category":"adverse_event"},{"dtc":"2024-10-02","dy":"189","event":"DEVIATION: VISIT OCCURRED OUTSIDE VISIT WINDOW","domain":"DV","category":"deviation"},{"dtc":"2024-10-02","dy":"189","event":"VISIT: MONTH 6","domain":"SV","category":"visit"},{"dtc":"2024-10-03","dy":"190","event":"AE: Hypotension (SEVERE) [SERIOUS]","domain":"AE","category":"adverse_event"},{"dtc":"2024-10-10","dy":"197","event":"DEVIATION: MISSED DOSE","domain":"DV","category":"deviation"},{"dtc":"2024-10-11","dy":"198","event":"AE: Fatigue (SEVERE) [SERIOUS]","domain":"AE","category":"adverse_event"},{"dtc":"2024-10-16","dy":"203","event":"DEVIATION: MISSED DOSE","domain":"DV","category":"deviation"},{"dtc":"2024-10-20","dy":"207","event":"DEVIATION: MISSED DOSE","domain":"DV","category":"deviation"},{"dtc":"2024-10-23","dy":"210","event":"DEVIATION: MISSED DOSE","domain":"DV","category":"deviation"},{"dtc":"2024-10-26","dy":"213","event":"DEVIATION: MISSED DOSE","domain":"DV","category":"deviation"},{"dtc":"2024-11-05","dy":"223","event":"DEVIATION: MISSED DOSE","domain":"DV","category":"deviation"},{"dtc":"2024-11-06","dy":"224","event":"DEVIATION: MISSED DOSE","domain":"DV","category":"deviation"},{"dtc":"2024-11-12","dy":"230","event":"AE: Fatigue (MODERATE)","domain":"AE","category":"adverse_event"},{"dtc":"2024-11-20","dy":"238","event":"DEVIATION: MISSED DOSE","domain":"DV","category":"deviation"},{"dtc":"2024-11-22","dy":"240","event":"AE: Hypoglycaemia (MILD)","domain":"AE","category":"adverse_event"},{"dtc":"2024-12-06","dy":"254","event":"DEVIATION: MISSED DOSE","domain":"DV","category":"deviation"},{"dtc":"2024-12-07","dy":"255","event":"DEVIATION: MISSED DOSE","domain":"DV","category":"deviation"},{"dtc":"2024-12-10","dy":"258","event":"DEVIATION: MISSED DOSE","domain":"DV","category":"deviation"},{"dtc":"2024-12-11","dy":"259","event":"DEVIATION: MISSED DOSE","domain":"DV","category":"deviation"},{"dtc":"2024-12-19","dy":"267","event":"AE: Hypotension (SEVERE) [SERIOUS]","domain":"AE","category":"adverse_event"},{"dtc":"2024-12-19","dy":"267","event":"DEVIATION: MISSED DOSE","domain":"DV","category":"deviation"},{"dtc":"2024-12-20","dy":"268","event":"DEVIATION: MISSED DOSE","domain":"DV","category":"deviation"},{"dtc":"2024-12-27","dy":"275","event":"DEVIATION: MISSED DOSE","domain":"DV","category":"deviation"},{"dtc":"2025-01-01","dy":"280","event":"DEVIATION: MISSED DOSE","domain":"DV","category":"deviation"},{"dtc":"2025-01-05","dy":"284","event":"AE: Hypotension (MODERATE)","domain":"AE","category":"adverse_event"},{"dtc":"2025-01-05","dy":"284","event":"DEVIATION: MISSED DOSE","domain":"DV","category":"deviation"},{"dtc":"2025-01-06","dy":"285","event":"DEVIATION: MISSED DOSE","domain":"DV","category":"deviation"},{"dtc":"2025-01-18","dy":"297","event":"DEVIATION: MISSED DOSE","domain":"DV","category":"deviation"},{"dtc":"2025-02-13","dy":"323","event":"DEVIATION: MISSED DOSE","domain":"DV","category":"deviation"},{"dtc":"2025-02-17","dy":"327","event":"DEVIATION: MISSED DOSE","domain":"DV","category":"deviation"},{"dtc":"2025-02-18","dy":"328","event":"DEVIATION: MISSED DOSE","domain":"DV","category":"deviation"},{"dtc":"2025-02-22","dy":"332","event":"DEVIATION: MISSED DOSE","domain":"DV","category":"deviation"},{"dtc":"2025-03-17","dy":"355","event":"DEVIATION: MISSED DOSE","domain":"DV","category":"deviation"},{"dtc":"2025-03-20","dy":"358","event":"DEVIATION: MISSED DOSE","domain":"DV","category":"deviation"},{"dtc":"2025-03-22","dy":"360","event":"AE: Headache (SEVERE) [SERIOUS]","domain":"AE","category":"adverse_event"},{"dtc":"2025-03-22","dy":"360","event":"CM START: PARACETAMOL","domain":"CM","category":"concomitant_med"},{"dtc":"2025-03-28","dy":"366","event":"DEVIATION: MISSED DOSE","domain":"DV","category":"deviation"},{"dtc":"2025-03-30","dy":"368","event":"VISIT: MONTH 12","domain":"SV","category":"visit"},{"dtc":"2025-03-31","dy":"369","event":"AE: Genital infection fungal (SEVERE) [SERIOUS]","domain":"AE","category":"adverse_event"},{"dtc":"2025-05-11","dy":"410","event":"AE: Fatigue (MODERATE)","domain":"AE","category":"adverse_event"},{"dtc":"2025-05-24","dy":"423","event":"AE: Nausea (SEVERE) [SERIOUS]","domain":"AE","category":"adverse_event"},{"dtc":"2025-05-24","dy":"423","event":"CM START: ONDANSETRON","domain":"CM","category":"concomitant_med"},{"dtc":"2025-05-25","dy":"424","event":"AE: Dehydration (MODERATE)","domain":"AE","category":"adverse_event"},{"dtc":"2025-07-07","dy":"467","event":"AE: Hypotension (MODERATE)","domain":"AE","category":"adverse_event"},{"dtc":"2025-07-24","dy":"484","event":"AE: Blood creatinine increased (MODERATE)","domain":"AE","category":"adverse_event"},{"dtc":"2025-07-29","dy":"489","event":"AE: Headache (MILD)","domain":"AE","category":"adverse_event"},{"dtc":"2025-08-18","dy":"509","event":"AE: Headache (MILD)","domain":"AE","category":"adverse_event"},{"dtc":"2025-08-18","dy":"509","event":"CM START: IBUPROFEN","domain":"CM","category":"concomitant_med"},{"dtc":"2025-09-24","dy":"546","event":"DEVIATION: VISIT OCCURRED OUTSIDE VISIT WINDOW","domain":"DV","category":"deviation"},{"dtc":"2025-09-24","dy":"546","event":"VISIT: MONTH 18","domain":"SV","category":"visit"},{"dtc":"2025-10-02","dy":"554","event":"AE: Atrial fibrillation (SEVERE) [SERIOUS]","domain":"AE","category":"adverse_event"},{"dtc":"2025-10-02","dy":"554","event":"CM START: PARACETAMOL","domain":"CM","category":"concomitant_med"},{"dtc":"2025-10-16","dy":"568","event":"AE: Urinary tract infection (MODERATE)","domain":"AE","category":"adverse_event"},{"dtc":"2025-10-16","dy":"568","event":"CM START: TRIMETHOPRIM","domain":"CM","category":"concomitant_med"},{"dtc":"2025-11-07","dy":"590","event":"AE: Acute kidney injury (MODERATE)","domain":"AE","category":"adverse_event"},{"dtc":"2025-11-13","dy":"596","event":"AE: Fatigue (MODERATE)","domain":"AE","category":"adverse_event"},{"dtc":"2025-12-13","dy":"626","event":"AE: Acute kidney injury (MODERATE)","domain":"AE","category":"adverse_event"},{"dtc":"2026-02-11","dy":"686","event":"AE: Headache (MILD)","domain":"AE","category":"adverse_event"},{"dtc":"2026-02-12","dy":"687","event":"AE: Headache (MILD)","domain":"AE","category":"adverse_event"},{"dtc":"2026-02-12","dy":"687","event":"CM START: PARACETAMOL","domain":"CM","category":"concomitant_med"},{"dtc":"2026-02-21","dy":"696","event":"AE: Hypoglycaemia (MILD)","domain":"AE","category":"adverse_event"},{"dtc":"2026-02-24","dy":"699","event":"AE: Acute kidney injury (SEVERE) [SERIOUS]","domain":"AE","category":"adverse_event"},{"dtc":"2026-02-25","dy":"700","event":"DEATH","domain":"DS","category":"milestone"}],"section_1_demographics":{"usubjid":"BI-1245.110-JPN_SITE01-0013","subjid":"0013","siteid":"JPN_SITE01","age":"91","ageu":"YEARS","sex":"F","race":"WHITE","ethnicity":"NOT HISPANIC OR LATINO","country":"JPN","arm":"Matching placebo QD","armcd":"PLACEBO","actarm":"Matching placebo QD","actarmcd":"PLACEBO","randomization_date":null,"informed_consent_date":"2024-03-18","reference_start_date":"2024-03-28","reference_end_date":"2026-02-25","screen_failure":false,"death_flag":"Y","death_date":"2026-02-25","subject_characteristics":[{"testcd":"ALCUSE","test":"Alcohol Use","orres":"NON-DRINKER","stresc":"NON-DRINKER","visit":null,"dtc":"2024-03-18"},{"testcd":"BMI","test":"Body Mass Index","orres":"41.7","stresc":"41.7","visit":null,"dtc":"2024-03-18"},{"testcd":"DURDIS","test":"Duration of Disease","orres":"182 months","stresc":"182","visit":null,"dtc":"2024-03-18"},{"testcd":"TOBPKYR","test":"Tobacco Pack-Years","orres":"28","stresc":"28","visit":null,"dtc":"2024-03-18"},{"testcd":"TOBUSE","test":"Tobacco Use","orres":"FORMER SMOKER","stresc":"FORMER SMOKER","visit":null,"dtc":"2024-03-18"}]},"section_2_medical_history":{"items":[{"seq":"1","term":"HYPERLIPIDEMIA","decod":"HYPERLIPIDEMIA","cat":"METABOLIC","scat":null,"presp":null,"occur":null,"status":null,"onset_dtc":"2009-03-22","end_dtc":"2015-11-09","visit":null},{"seq":"2","term":"HYPERTENSION","decod":"HYPERTENSION","cat":"CARDIOVASCULAR","scat":null,"presp":null,"occur":null,"status":null,"onset_dtc":"2018-03","end_dtc":null,"visit":null},{"seq":"3","term":"SLEEP APNOEA SYNDROME","decod":"SLEEP APNOEA SYNDROME","cat":"RESPIRATORY","scat":null,"presp":null,"occur":null,"status":null,"onset_dtc":"2018-03-20","end_dtc":"2022-04-06","visit":null}]},"section_3_inclusion_exclusion":{"criteria":[]},"section_4_trial_participation":{"visits":[{"visitnum":"1.0","visit":"SCREENING","start_dtc":"2024-02-23","end_dtc":"2024-02-23","updes":null},{"visitnum":"2.0","visit":"BASELINE","start_dtc":"2024-03-28","end_dtc":"2024-03-28","updes":null},{"visitnum":"3.0","visit":"WEEK 4","start_dtc":"2024-04-26","end_dtc":"2024-04-26","updes":null},{"visitnum":"4.0","visit":"WEEK 12","start_dtc":"2024-06-26","end_dtc":"2024-06-26","updes":null},{"visitnum":"5.0","visit":"MONTH 6","start_dtc":"2024-10-02","end_dtc":"2024-10-02","updes":null},{"visitnum":"6.0","visit":"MONTH 12","start_dtc":"2025-03-30","end_dtc":"2025-03-30","updes":null},{"visitnum":"7.0","visit":"MONTH 18","start_dtc":"2025-09-24","end_dtc":"2025-09-24","updes":null}],"epochs":[{"seq":"1","etcd":"SCRN","element":"Screening","start_dtc":"2024-02-29","end_dtc":"2024-03-28","updes":null},{"seq":"2","etcd":"TRT","element":"Treatment","start_dtc":"2024-03-28","end_dtc":"2026-02-25","updes":null}],"visit_count":7},"section_5_concomitant_medications":{"medications":[{"seq":"1","trt":"IBUPROFEN","decod":"IBUPROFEN","cat":"CONCOMITANT","dose":"400","doseu":null,"dosef":"PRN","route":"ORAL","indication":"HEADACHE","start_dtc":"2024-05-25","end_dtc":"2024-06-05","ongoing":null,"visit":null},{"seq":"2","trt":"IBUPROFEN","decod":"IBUPROFEN","cat":"CONCOMITANT","dose":"400","doseu":null,"dosef":"PRN","route":"ORAL","indication":"CYTOKINE RELEASE SYNDROME","start_dtc":"2024-06-24","end_dtc":"2024-07-23","ongoing":null,"visit":null},{"seq":"3","trt":"PARACETAMOL","decod":"PARACETAMOL","cat":"CONCOMITANT","dose":"500","doseu":null,"dosef":"PRN","route":"ORAL","indication":"ATRIAL FIBRILLATION","start_dtc":"2024-07-30","end_dtc":"2024-08-21","ongoing":null,"visit":null},{"seq":"4","trt":"PARACETAMOL","decod":"PARACETAMOL","cat":"CONCOMITANT","dose":"500","doseu":null,"dosef":"PRN","route":"ORAL","indication":"HEADACHE","start_dtc":"2025-03-22","end_dtc":"2025-04-13","ongoing":null,"visit":null},{"seq":"5","trt":"ONDANSETRON","decod":"ONDANSETRON","cat":"CONCOMITANT","dose":"4","doseu":null,"dosef":"PRN","route":"ORAL","indication":"NAUSEA","start_dtc":"2025-05-24","end_dtc":"2025-06-21","ongoing":null,"visit":null},{"seq":"6","trt":"IBUPROFEN","decod":"IBUPROFEN","cat":"CONCOMITANT","dose":"400","doseu":null,"dosef":"PRN","route":"ORAL","indication":"HEADACHE","start_dtc":"2025-08-18","end_dtc":"2025-09-02","ongoing":null,"visit":null},{"seq":"7","trt":"PARACETAMOL","decod":"PARACETAMOL","cat":"CONCOMITANT","dose":"500","doseu":null,"dosef":"PRN","route":"ORAL","indication":"ATRIAL FIBRILLATION","start_dtc":"2025-10-02","end_dtc":"2025-10-24","ongoing":null,"visit":null},{"seq":"8","trt":"TRIMETHOPRIM","decod":"TRIMETHOPRIM","cat":"CONCOMITANT","dose":"200.0","doseu":null,"dosef":"BID","route":"ORAL","indication":"URINARY TRACT INFECTION","start_dtc":"2025-10-16","end_dtc":"2025-10-22","ongoing":null,"visit":null},{"seq":"9","trt":"PARACETAMOL","decod":"PARACETAMOL","cat":"CONCOMITANT","dose":"500","doseu":null,"dosef":"PRN","route":"ORAL","indication":"HEADACHE","start_dtc":"2026-02-12","end_dtc":"2026-02-25","ongoing":null,"visit":null}]},"section_6_exposure":{"exposure_as_administered":[{"seq":"1","trt":"PLACEBO","dose":"0.0","doseu":null,"dosef":"QD","route":"ORAL","lot":null,"start_dtc":"2024-03-28","end_dtc":"2025-03-31","start_dy":"1","end_dy":"369","epoch":"TREATMENT","visit":null}],"exposure_as_collected":[{"seq":"1","trt":"PLACEBO","dose":null,"doseu":null,"dosef":"QD","route":"ORAL","start_dtc":"2024-03-28","end_dtc":"2024-03-28","visit":"BASELINE"},{"seq":"2","trt":"PLACEBO","dose":null,"doseu":null,"dosef":"QD","route":"ORAL","start_dtc":"2024-03-29","end_dtc":"2024-03-29","visit":"BASELINE"},{"seq":"3","trt":"PLACEBO","dose":null,"doseu":null,"dosef":"QD","route":"ORAL","start_dtc":"2024-03-30","end_dtc":"2024-03-30","visit":"BASELINE"},{"seq":"4","trt":"PLACEBO","dose":null,"doseu":null,"dosef":"QD","route":"ORAL","start_dtc":"2024-03-31","end_dtc":"2024-03-31","visit":"BASELINE"},{"seq":"5","trt":"PLACEBO","dose":null,"doseu":null,"dosef":"QD","route":"ORAL","start_dtc":"2024-04-01","end_dtc":"2024-04-01","visit":null},{"seq":"6","trt":"PLACEBO","dose":null,"doseu":null,"dosef":"QD","route":"ORAL","start_dtc":"2024-04-02","end_dtc":"2024-04-02","visit":null},{"seq":"7","trt":"PLACEBO","dose":null,"doseu":null,"dosef":"QD","route":"ORAL","start_dtc":"2024-04-03","end_dtc":"2024-04-03","visit":null},{"seq":"8","trt":"PLACEBO","dose":null,"doseu":null,"dosef":"QD","route":"ORAL","start_dtc":"2024-04-04","end_dtc":"2024-04-04","visit":null},{"seq":"9","trt":"PLACEBO","dose":null,"doseu":null,"dosef":"QD","route":"ORAL","start_dtc":"2024-04-05","end_dtc":"2024-04-05","visit":null},{"seq":"10","trt":"PLACEBO","dose":null,"doseu":null,"dosef":"QD","route":"ORAL","start_dtc":"2024-04-06","end_dtc":"2024-04-06","visit":null},{"seq":"11","trt":"PLACEBO","dose":null,"doseu":null,"dosef":"QD","route":"ORAL","start_dtc":"2024-04-07","end_dtc":"2024-04-07","visit":null},{"seq":"12","trt":"PLACEBO","dose":null,"doseu":null,"dosef":"QD","route":"ORAL","start_dtc":"2024-04-08","end_dtc":"2024-04-08","visit":null},{"seq":"13","trt":"PLACEBO","dose":null,"doseu":null,"dosef":"QD","route":"ORAL","start_dtc":"2024-04-09","end_dtc":"2024-04-09","visit":null},{"seq":"14","trt":"PLACEBO","dose":null,"doseu":null,"dosef":"QD","route":"ORAL","start_dtc":"2024-04-10","end_dtc":"2024-04-10","visit":null},{"seq":"15","trt":"PLACEBO","dose":null,"doseu":null,"dosef":"QD","route":"ORAL","start_dtc":"2024-04-11","end_dtc":"2024-04-11","visit":null},{"seq":"16","trt":"PLACEBO","dose":null,"doseu":null,"dosef":"QD","route":"ORAL","start_dtc":"2024-04-12","end_dtc":"2024-04-12","visit":null},{"seq":"17","trt":"PLACEBO","dose":null,"doseu":null,"dosef":"QD","route":"ORAL","start_dtc":"2024-04-13","end_dtc":"2024-04-13","visit":null},{"seq":"18","trt":"PLACEBO","dose":null,"doseu":null,"dosef":"QD","route":"ORAL","start_dtc":"2024-04-14","end_dtc":"2024-04-14","visit":null},{"seq":"19","trt":"PLACEBO","dose":null,"doseu":null,"dosef":"QD","route":"ORAL","start_dtc":"2024-04-15","end_dtc":"2024-04-15","visit":null},{"seq":"20","trt":"PLACEBO","dose":null,"doseu":null,"dosef":"QD","route":"ORAL","start_dtc":"2024-04-16","end_dtc":"2024-04-16","visit":null},{"seq":"21","trt":"PLACEBO","dose":null,"doseu":null,"dosef":"QD","route":"ORAL","start_dtc":"2024-04-17","end_dtc":"2024-04-17","visit":null},{"seq":"22","trt":"PLACEBO","dose":null,"doseu":null,"dosef":"QD","route":"ORAL","start_dtc":"2024-04-18","end_dtc":"2024-04-18","visit":null},{"seq":"23","trt":"PLACEBO","dose":null,"doseu":null,"dosef":"QD","route":"ORAL","start_dtc":"2024-04-19","end_dtc":"2024-04-19","visit":null},{"seq":"24","trt":"PLACEBO","dose":null,"doseu":null,"dosef":"QD","route":"ORAL","start_dtc":"2024-04-20","end_dtc":"2024-04-20","visit":null},{"seq":"25","trt":"PLACEBO","dose":null,"doseu":null,"dosef":"QD","route":"ORAL","start_dtc":"2024-04-21","end_dtc":"2024-04-21","visit":null},{"seq":"26","trt":"PLACEBO","dose":null,"doseu":null,"dosef":"QD","route":"ORAL","start_dtc":"2024-04-22","end_dtc":"2024-04-22","visit":"WEEK 4"},{"seq":"27","trt":"PLACEBO","dose":null,"doseu":null,"dosef":"QD","route":"ORAL","start_dtc":"2024-04-23","end_dtc":"2024-04-23","visit":"WEEK 4"},{"seq":"28","trt":"PLACEBO","dose":null,"doseu":null,"dosef":"QD","route":"ORAL","start_dtc":"2024-04-24","end_dtc":"2024-04-24","visit":"WEEK 4"},{"seq":"29","trt":"PLACEBO","dose":null,"doseu":null,"dosef":"QD","route":"ORAL","start_dtc":"2024-04-25","end_dtc":"2024-04-25","visit":"WEEK 4"},{"seq":"30","trt":"PLACEBO","dose":null,"doseu":null,"dosef":"QD","route":"ORAL","start_dtc":"2024-04-26","end_dtc":"2024-04-26","visit":"WEEK 4"},{"seq":"31","trt":"PLACEBO","dose":null,"doseu":null,"dosef":"QD","route":"ORAL","start_dtc":"2024-04-27","end_dtc":"2024-04-27","visit":"WEEK 4"},{"seq":"32","trt":"PLACEBO","dose":null,"doseu":null,"dosef":"QD","route":"ORAL","start_dtc":"2024-04-28","end_dtc":"2024-04-28","visit":"WEEK 4"},{"seq":"33","trt":"PLACEBO","dose":null,"doseu":null,"dosef":"QD","route":"ORAL","start_dtc":"2024-04-29","end_dtc":"2024-04-29","visit":null},{"seq":"34","trt":"PLACEBO","dose":null,"doseu":null,"dosef":"QD","route":"ORAL","start_dtc":"2024-04-30","end_dtc":"2024-04-30","visit":null},{"seq":"35","trt":"PLACEBO","dose":null,"doseu":null,"dosef":"QD","route":"ORAL","start_dtc":"2024-05-01","end_dtc":"2024-05-01","visit":null},{"seq":"36","trt":"PLACEBO","dose":null,"doseu":null,"dosef":"QD","route":"ORAL","start_dtc":"2024-05-02","end_dtc":"2024-05-02","visit":null},{"seq":"37","trt":"PLACEBO","dose":null,"doseu":null,"dosef":"QD","route":"ORAL","start_dtc":"2024-05-03","end_dtc":"2024-05-03","visit":null},{"seq":"38","trt":"PLACEBO","dose":null,"doseu":null,"dosef":"QD","route":"ORAL","start_dtc":"2024-05-04","end_dtc":"2024-05-04","visit":null},{"seq":"39","trt":"PLACEBO","dose":null,"doseu":null,"dosef":"QD","route":"ORAL","start_dtc":"2024-05-05","end_dtc":"2024-05-05","visit":null},{"seq":"40","trt":"PLACEBO","dose":null,"doseu":null,"dosef":"QD","route":"ORAL","start_dtc":"2024-05-06","end_dtc":"2024-05-06","visit":null},{"seq":"41","trt":"PLACEBO","dose":null,"doseu":null,"dosef":"QD","route":"ORAL","start_dtc":"2024-05-07","end_dtc":"2024-05-07","visit":null},{"seq":"42","trt":"PLACEBO","dose":null,"doseu":null,"dosef":"QD","route":"ORAL","start_dtc":"2024-05-08","end_dtc":"2024-05-08","visit":null},{"seq":"43","trt":"PLACEBO","dose":null,"doseu":null,"dosef":"QD","route":"ORAL","start_dtc":"2024-05-09","end_dtc":"2024-05-09","visit":null},{"seq":"44","trt":"PLACEBO","dose":null,"doseu":null,"dosef":"QD","route":"ORAL","start_dtc":"2024-05-10","end_dtc":"2024-05-10","visit":null},{"seq":"45","trt":"PLACEBO","dose":null,"doseu":null,"dosef":"QD","route":"ORAL","start_dtc":"2024-05-11","end_dtc":"2024-05-11","visit":null},{"seq":"46","trt":"PLACEBO","dose":null,"doseu":null,"dosef":"QD","route":"ORAL","start_dtc":"2024-05-12","end_dtc":"2024-05-12","visit":null},{"seq":"47","trt":"PLACEBO","dose":null,"doseu":null,"dosef":"QD","route":"ORAL","start_dtc":"2024-05-13","end_dtc":"2024-05-13","visit":null},{"seq":"48","trt":"PLACEBO","dose":null,"doseu":null,"dosef":"QD","route":"ORAL","start_dtc":"2024-05-14","end_dtc":"2024-05-14","visit":null},{"seq":"49","trt":"PLACEBO","dose":null,"doseu":null,"dosef":"QD","route":"ORAL","start_dtc":"2024-05-15","end_dtc":"2024-05-15","visit":null},{"seq":"50","trt":"PLACEBO","dose":null,"doseu":null,"dosef":"QD","route":"ORAL","start_dtc":"2024-05-16","end_dtc":"2024-05-16","visit":null},{"seq":"51","trt":"PLACEBO","dose":null,"doseu":null,"dosef":"QD","route":"ORAL","start_dtc":"2024-05-17","end_dtc":"2024-05-17","visit":null},{"seq":"52","trt":"PLACEBO","dose":null,"doseu":null,"dosef":"QD","route":"ORAL","start_dtc":"2024-05-18","end_dtc":"2024-05-18","visit":null},{"seq":"53","trt":"PLACEBO","dose":null,"doseu":null,"dosef":"QD","route":"ORAL","start_dtc":"2024-05-19","end_dtc":"2024-05-19","visit":null},{"seq":"54","trt":"PLACEBO","dose":null,"doseu":null,"dosef":"QD","route":"ORAL","start_dtc":"2024-05-20","end_dtc":"2024-05-20","visit":null},{"seq":"55","trt":"PLACEBO","dose":null,"doseu":null,"dosef":"QD","route":"ORAL","start_dtc":"2024-05-21","end_dtc":"2024-05-21","visit":null},{"seq":"56","trt":"PLACEBO","dose":null,"doseu":null,"dosef":"QD","route":"ORAL","start_dtc":"2024-05-22","end_dtc":"2024-05-22","visit":null},{"seq":"57","trt":"PLACEBO","dose":null,"doseu":null,"dosef":"QD","route":"ORAL","start_dtc":"2024-05-23","end_dtc":"2024-05-23","visit":null},{"seq":"58","trt":"PLACEBO","dose":null,"doseu":null,"dosef":"QD","route":"ORAL","start_dtc":"2024-05-24","end_dtc":"2024-05-24","visit":null},{"seq":"59","trt":"PLACEBO","dose":null,"doseu":null,"dosef":"QD","route":"ORAL","start_dtc":"2024-05-25","end_dtc":"2024-05-25","visit":null},{"seq":"60","trt":"PLACEBO","dose":null,"doseu":null,"dosef":"QD","route":"ORAL","start_dtc":"2024-05-26","end_dtc":"2024-05-26","visit":null},{"seq":"61","trt":"PLACEBO","dose":null,"doseu":null,"dosef":"QD","route":"ORAL","start_dtc":"2024-05-27","end_dtc":"2024-05-27","visit":null},{"seq":"62","trt":"PLACEBO","dose":null,"doseu":null,"dosef":"QD","route":"ORAL","start_dtc":"2024-05-28","end_dtc":"2024-05-28","visit":null},{"seq":"63","trt":"PLACEBO","dose":null,"doseu":null,"dosef":"QD","route":"ORAL","start_dtc":"2024-05-29","end_dtc":"2024-05-29","visit":null},{"seq":"64","trt":"PLACEBO","dose":null,"doseu":null,"dosef":"QD","route":"ORAL","start_dtc":"2024-05-30","end_dtc":"2024-05-30","visit":null},{"seq":"65","trt":"PLACEBO","dose":null,"doseu":null,"dosef":"QD","route":"ORAL","start_dtc":"2024-05-31","end_dtc":"2024-05-31","visit":null},{"seq":"66","trt":"PLACEBO","dose":null,"doseu":null,"dosef":"QD","route":"ORAL","start_dtc":"2024-06-01","end_dtc":"2024-06-01","visit":null},{"seq":"67","trt":"PLACEBO","dose":null,"doseu":null,"dosef":"QD","route":"ORAL","start_dtc":"2024-06-02","end_dtc":"2024-06-02","visit":null},{"seq":"68","trt":"PLACEBO","dose":null,"doseu":null,"dosef":"QD","route":"ORAL","start_dtc":"2024-06-03","end_dtc":"2024-06-03","visit":null},{"seq":"69","trt":"PLACEBO","dose":null,"doseu":null,"dosef":"QD","route":"ORAL","start_dtc":"2024-06-04","end_dtc":"2024-06-04","visit":null},{"seq":"70","trt":"PLACEBO","dose":null,"doseu":null,"dosef":"QD","route":"ORAL","start_dtc":"2024-06-05","end_dtc":"2024-06-05","visit":null},{"seq":"71","trt":"PLACEBO","dose":null,"doseu":null,"dosef":"QD","route":"ORAL","start_dtc":"2024-06-06","end_dtc":"2024-06-06","visit":null},{"seq":"72","trt":"PLACEBO","dose":null,"doseu":null,"dosef":"QD","route":"ORAL","start_dtc":"2024-06-07","end_dtc":"2024-06-07","visit":null},{"seq":"73","trt":"PLACEBO","dose":null,"doseu":null,"dosef":"QD","route":"ORAL","start_dtc":"2024-06-08","end_dtc":"2024-06-08","visit":null},{"seq":"74","trt":"PLACEBO","dose":null,"doseu":null,"dosef":"QD","route":"ORAL","start_dtc":"2024-06-09","end_dtc":"2024-06-09","visit":null},{"seq":"75","trt":"PLACEBO","dose":null,"doseu":null,"dosef":"QD","route":"ORAL","start_dtc":"2024-06-10","end_dtc":"2024-06-10","visit":null},{"seq":"76","trt":"PLACEBO","dose":null,"doseu":null,"dosef":"QD","route":"ORAL","start_dtc":"2024-06-11","end_dtc":"2024-06-11","visit":null},{"seq":"77","trt":"PLACEBO","dose":null,"doseu":null,"dosef":"QD","route":"ORAL","start_dtc":"2024-06-12","end_dtc":"2024-06-12","visit":null},{"seq":"78","trt":"PLACEBO","dose":null,"doseu":null,"dosef":"QD","route":"ORAL","start_dtc":"2024-06-13","end_dtc":"2024-06-13","visit":null},{"seq":"79","trt":"PLACEBO","dose":null,"doseu":null,"dosef":"QD","route":"ORAL","start_dtc":"2024-06-14","end_dtc":"2024-06-14","visit":null},{"seq":"80","trt":"PLACEBO","dose":null,"doseu":null,"dosef":"QD","route":"ORAL","start_dtc":"2024-06-15","end_dtc":"2024-06-15","visit":null},{"seq":"81","trt":"PLACEBO","dose":null,"doseu":null,"dosef":"QD","route":"ORAL","start_dtc":"2024-06-16","end_dtc":"2024-06-16","visit":null},{"seq":"82","trt":"PLACEBO","dose":null,"doseu":null,"dosef":"QD","route":"ORAL","start_dtc":"2024-06-17","end_dtc":"2024-06-17","visit":"WEEK 12"},{"seq":"83","trt":"PLACEBO","dose":null,"doseu":null,"dosef":"QD","route":"ORAL","start_dtc":"2024-06-18","end_dtc":"2024-06-18","visit":"WEEK 12"},{"seq":"84","trt":"PLACEBO","dose":null,"doseu":null,"dosef":"QD","route":"ORAL","start_dtc":"2024-06-19","end_dtc":"2024-06-19","visit":"WEEK 12"},{"seq":"85","trt":"PLACEBO","dose":null,"doseu":null,"dosef":"QD","route":"ORAL","start_dtc":"2024-06-20","end_dtc":"2024-06-20","visit":"WEEK 12"},{"seq":"86","trt":"PLACEBO","dose":null,"doseu":null,"dosef":"QD","route":"ORAL","start_dtc":"2024-06-21","end_dtc":"2024-06-21","visit":"WEEK 12"},{"seq":"87","trt":"PLACEBO","dose":null,"doseu":null,"dosef":"QD","route":"ORAL","start_dtc":"2024-06-22","end_dtc":"2024-06-22","visit":"WEEK 12"},{"seq":"88","trt":"PLACEBO","dose":null,"doseu":null,"dosef":"QD","route":"ORAL","start_dtc":"2024-06-23","end_dtc":"2024-06-23","visit":"WEEK 12"},{"seq":"89","trt":"PLACEBO","dose":null,"doseu":null,"dosef":"QD","route":"ORAL","start_dtc":"2024-06-24","end_dtc":"2024-06-24","visit":null},{"seq":"90","trt":"PLACEBO","dose":null,"doseu":null,"dosef":"QD","route":"ORAL","start_dtc":"2024-06-25","end_dtc":"2024-06-25","visit":null},{"seq":"91","trt":"PLACEBO","dose":null,"doseu":null,"dosef":"QD","route":"ORAL","start_dtc":"2024-06-26","end_dtc":"2024-06-26","visit":null},{"seq":"92","trt":"PLACEBO","dose":null,"doseu":null,"dosef":"QD","route":"ORAL","start_dtc":"2024-06-27","end_dtc":"2024-06-27","visit":null},{"seq":"93","trt":"PLACEBO","dose":null,"doseu":null,"dosef":"QD","route":"ORAL","start_dtc":"2024-06-28","end_dtc":"2024-06-28","visit":null},{"seq":"94","trt":"PLACEBO","dose":null,"doseu":null,"dosef":"QD","route":"ORAL","start_dtc":"2024-06-29","end_dtc":"2024-06-29","visit":null},{"seq":"95","trt":"PLACEBO","dose":null,"doseu":null,"dosef":"QD","route":"ORAL","start_dtc":"2024-06-30","end_dtc":"2024-06-30","visit":null},{"seq":"96","trt":"PLACEBO","dose":null,"doseu":null,"dosef":"QD","route":"ORAL","start_dtc":"2024-07-01","end_dtc":"2024-07-01","visit":null},{"seq":"97","trt":"PLACEBO","dose":null,"doseu":null,"dosef":"QD","route":"ORAL","start_dtc":"2024-07-02","end_dtc":"2024-07-02","visit":null},{"seq":"98","trt":"PLACEBO","dose":null,"doseu":null,"dosef":"QD","route":"ORAL","start_dtc":"2024-07-03","end_dtc":"2024-07-03","visit":null},{"seq":"99","trt":"PLACEBO","dose":null,"doseu":null,"dosef":"QD","route":"ORAL","start_dtc":"2024-07-04","end_dtc":"2024-07-04","visit":null},{"seq":"100","trt":"PLACEBO","dose":null,"doseu":null,"dosef":"QD","route":"ORAL","start_dtc":"2024-07-05","end_dtc":"2024-07-05","visit":null},{"seq":"101","trt":"PLACEBO","dose":null,"doseu":null,"dosef":"QD","route":"ORAL","start_dtc":"2024-07-06","end_dtc":"2024-07-06","visit":null},{"seq":"102","trt":"PLACEBO","dose":null,"doseu":null,"dosef":"QD","route":"ORAL","start_dtc":"2024-07-07","end_dtc":"2024-07-07","visit":null},{"seq":"103","trt":"PLACEBO","dose":null,"doseu":null,"dosef":"QD","route":"ORAL","start_dtc":"2024-07-08","end_dtc":"2024-07-08","visit":null},{"seq":"104","trt":"PLACEBO","dose":null,"doseu":null,"dosef":"QD","route":"ORAL","start_dtc":"2024-07-09","end_dtc":"2024-07-09","visit":null},{"seq":"105","trt":"PLACEBO","dose":null,"doseu":null,"dosef":"QD","route":"ORAL","start_dtc":"2024-07-10","end_dtc":"2024-07-10","visit":null},{"seq":"106","trt":"PLACEBO","dose":null,"doseu":null,"dosef":"QD","route":"ORAL","start_dtc":"2024-07-11","end_dtc":"2024-07-11","visit":null},{"seq":"107","trt":"PLACEBO","dose":null,"doseu":null,"dosef":"QD","route":"ORAL","start_dtc":"2024-07-12","end_dtc":"2024-07-12","visit":null},{"seq":"108","trt":"PLACEBO","dose":null,"doseu":null,"dosef":"QD","route":"ORAL","start_dtc":"2024-07-13","end_dtc":"2024-07-13","visit":null},{"seq":"109","trt":"PLACEBO","dose":null,"doseu":null,"dosef":"QD","route":"ORAL","start_dtc":"2024-07-14","end_dtc":"2024-07-14","visit":null},{"seq":"110","trt":"PLACEBO","dose":null,"doseu":null,"dosef":"QD","route":"ORAL","start_dtc":"2024-07-15","end_dtc":"2024-07-15","visit":null},{"seq":"111","trt":"PLACEBO","dose":null,"doseu":null,"dosef":"QD","route":"ORAL","start_dtc":"2024-07-16","end_dtc":"2024-07-16","visit":null},{"seq":"112","trt":"PLACEBO","dose":null,"doseu":null,"dosef":"QD","route":"ORAL","start_dtc":"2024-07-17","end_dtc":"2024-07-17","visit":null},{"seq":"113","trt":"PLACEBO","dose":null,"doseu":null,"dosef":"QD","route":"ORAL","start_dtc":"2024-07-18","end_dtc":"2024-07-18","visit":null},{"seq":"114","trt":"PLACEBO","dose":null,"doseu":null,"dosef":"QD","route":"ORAL","start_dtc":"2024-07-19","end_dtc":"2024-07-19","visit":null},{"seq":"115","trt":"PLACEBO","dose":null,"doseu":null,"dosef":"QD","route":"ORAL","start_dtc":"2024-07-20","end_dtc":"2024-07-20","visit":null},{"seq":"116","trt":"PLACEBO","dose":null,"doseu":null,"dosef":"QD","route":"ORAL","start_dtc":"2024-07-21","end_dtc":"2024-07-21","visit":null},{"seq":"117","trt":"PLACEBO","dose":null,"doseu":null,"dosef":"QD","route":"ORAL","start_dtc":"2024-07-22","end_dtc":"2024-07-22","visit":null},{"seq":"118","trt":"PLACEBO","dose":null,"doseu":null,"dosef":"QD","route":"ORAL","start_dtc":"2024-07-23","end_dtc":"2024-07-23","visit":null},{"seq":"119","trt":"PLACEBO","dose":null,"doseu":null,"dosef":"QD","route":"ORAL","start_dtc":"2024-07-24","end_dtc":"2024-07-24","visit":null},{"seq":"120","trt":"PLACEBO","dose":null,"doseu":null,"dosef":"QD","route":"ORAL","start_dtc":"2024-07-25","end_dtc":"2024-07-25","visit":null},{"seq":"121","trt":"PLACEBO","dose":null,"doseu":null,"dosef":"QD","route":"ORAL","start_dtc":"2024-07-26","end_dtc":"2024-07-26","visit":null},{"seq":"122","trt":"PLACEBO","dose":null,"doseu":null,"dosef":"QD","route":"ORAL","start_dtc":"2024-07-27","end_dtc":"2024-07-27","visit":null},{"seq":"123","trt":"PLACEBO","dose":null,"doseu":null,"dosef":"QD","route":"ORAL","start_dtc":"2024-07-28","end_dtc":"2024-07-28","visit":null},{"seq":"124","trt":"PLACEBO","dose":null,"doseu":null,"dosef":"QD","route":"ORAL","start_dtc":"2024-07-29","end_dtc":"2024-07-29","visit":null},{"seq":"125","trt":"PLACEBO","dose":null,"doseu":null,"dosef":"QD","route":"ORAL","start_dtc":"2024-07-30","end_dtc":"2024-07-30","visit":null},{"seq":"126","trt":"PLACEBO","dose":null,"doseu":null,"dosef":"QD","route":"ORAL","start_dtc":"2024-07-31","end_dtc":"2024-07-31","visit":null},{"seq":"127","trt":"PLACEBO","dose":null,"doseu":null,"dosef":"QD","route":"ORAL","start_dtc":"2024-08-01","end_dtc":"2024-08-01","visit":null},{"seq":"128","trt":"PLACEBO","dose":null,"doseu":null,"dosef":"QD","route":"ORAL","start_dtc":"2024-08-02","end_dtc":"2024-08-02","visit":null},{"seq":"129","trt":"PLACEBO","dose":null,"doseu":null,"dosef":"QD","route":"ORAL","start_dtc":"2024-08-03","end_dtc":"2024-08-03","visit":null},{"seq":"130","trt":"PLACEBO","dose":null,"doseu":null,"dosef":"QD","route":"ORAL","start_dtc":"2024-08-04","end_dtc":"2024-08-04","visit":null},{"seq":"131","trt":"PLACEBO","dose":null,"doseu":null,"dosef":"QD","route":"ORAL","start_dtc":"2024-08-05","end_dtc":"2024-08-05","visit":null},{"seq":"132","trt":"PLACEBO","dose":null,"doseu":null,"dosef":"QD","route":"ORAL","start_dtc":"2024-08-06","end_dtc":"2024-08-06","visit":null},{"seq":"133","trt":"PLACEBO","dose":null,"doseu":null,"dosef":"QD","route":"ORAL","start_dtc":"2024-08-07","end_dtc":"2024-08-07","visit":null},{"seq":"134","trt":"PLACEBO","dose":null,"doseu":null,"dosef":"QD","route":"ORAL","start_dtc":"2024-08-08","end_dtc":"2024-08-08","visit":null},{"seq":"135","trt":"PLACEBO","dose":null,"doseu":null,"dosef":"QD","route":"ORAL","start_dtc":"2024-08-09","end_dtc":"2024-08-09","visit":null},{"seq":"136","trt":"PLACEBO","dose":null,"doseu":null,"dosef":"QD","route":"ORAL","start_dtc":"2024-08-10","end_dtc":"2024-08-10","visit":null},{"seq":"137","trt":"PLACEBO","dose":null,"doseu":null,"dosef":"QD","route":"ORAL","start_dtc":"2024-08-11","end_dtc":"2024-08-11","visit":null},{"seq":"138","trt":"PLACEBO","dose":null,"doseu":null,"dosef":"QD","route":"ORAL","start_dtc":"2024-08-12","end_dtc":"2024-08-12","visit":null},{"seq":"139","trt":"PLACEBO","dose":null,"doseu":null,"dosef":"QD","route":"ORAL","start_dtc":"2024-08-13","end_dtc":"2024-08-13","visit":null},{"seq":"140","trt":"PLACEBO","dose":null,"doseu":null,"dosef":"QD","route":"ORAL","start_dtc":"2024-08-14","end_dtc":"2024-08-14","visit":null},{"seq":"141","trt":"PLACEBO","dose":null,"doseu":null,"dosef":"QD","route":"ORAL","start_dtc":"2024-08-15","end_dtc":"2024-08-15","visit":null},{"seq":"142","trt":"PLACEBO","dose":null,"doseu":null,"dosef":"QD","route":"ORAL","start_dtc":"2024-08-16","end_dtc":"2024-08-16","visit":null},{"seq":"143","trt":"PLACEBO","dose":null,"doseu":null,"dosef":"QD","route":"ORAL","start_dtc":"2024-08-17","end_dtc":"2024-08-17","visit":null},{"seq":"144","trt":"PLACEBO","dose":null,"doseu":null,"dosef":"QD","route":"ORAL","start_dtc":"2024-08-18","end_dtc":"2024-08-18","visit":null},{"seq":"145","trt":"PLACEBO","dose":null,"doseu":null,"dosef":"QD","route":"ORAL","start_dtc":"2024-08-19","end_dtc":"2024-08-19","visit":null},{"seq":"146","trt":"PLACEBO","dose":null,"doseu":null,"dosef":"QD","route":"ORAL","start_dtc":"2024-08-20","end_dtc":"2024-08-20","visit":null},{"seq":"147","trt":"PLACEBO","dose":null,"doseu":null,"dosef":"QD","route":"ORAL","start_dtc":"2024-08-21","end_dtc":"2024-08-21","visit":null},{"seq":"148","trt":"PLACEBO","dose":null,"doseu":null,"dosef":"QD","route":"ORAL","start_dtc":"2024-08-22","end_dtc":"2024-08-22","visit":null},{"seq":"149","trt":"PLACEBO","dose":null,"doseu":null,"dosef":"QD","route":"ORAL","start_dtc":"2024-08-23","end_dtc":"2024-08-23","visit":null},{"seq":"150","trt":"PLACEBO","dose":null,"doseu":null,"dosef":"QD","route":"ORAL","start_dtc":"2024-08-24","end_dtc":"2024-08-24","visit":null},{"seq":"151","trt":"PLACEBO","dose":null,"doseu":null,"dosef":"QD","route":"ORAL","start_dtc":"2024-08-25","end_dtc":"2024-08-25","visit":null},{"seq":"152","trt":"PLACEBO","dose":null,"doseu":null,"dosef":"QD","route":"ORAL","start_dtc":"2024-08-26","end_dtc":"2024-08-26","visit":null},{"seq":"153","trt":"PLACEBO","dose":null,"doseu":null,"dosef":"QD","route":"ORAL","start_dtc":"2024-08-27","end_dtc":"2024-08-27","visit":null},{"seq":"154","trt":"PLACEBO","dose":null,"doseu":null,"dosef":"QD","route":"ORAL","start_dtc":"2024-08-28","end_dtc":"2024-08-28","visit":null},{"seq":"155","trt":"PLACEBO","dose":null,"doseu":null,"dosef":"QD","route":"ORAL","start_dtc":"2024-08-29","end_dtc":"2024-08-29","visit":null},{"seq":"156","trt":"PLACEBO","dose":null,"doseu":null,"dosef":"QD","route":"ORAL","start_dtc":"2024-08-30","end_dtc":"2024-08-30","visit":null},{"seq":"157","trt":"PLACEBO","dose":null,"doseu":null,"dosef":"QD","route":"ORAL","start_dtc":"2024-08-31","end_dtc":"2024-08-31","visit":null},{"seq":"158","trt":"PLACEBO","dose":null,"doseu":null,"dosef":"QD","route":"ORAL","start_dtc":"2024-09-01","end_dtc":"2024-09-01","visit":null},{"seq":"159","trt":"PLACEBO","dose":null,"doseu":null,"dosef":"QD","route":"ORAL","start_dtc":"2024-09-02","end_dtc":"2024-09-02","visit":null},{"seq":"160","trt":"PLACEBO","dose":null,"doseu":null,"dosef":"QD","route":"ORAL","start_dtc":"2024-09-03","end_dtc":"2024-09-03","visit":null},{"seq":"161","trt":"PLACEBO","dose":null,"doseu":null,"dosef":"QD","route":"ORAL","start_dtc":"2024-09-04","end_dtc":"2024-09-04","visit":null},{"seq":"162","trt":"PLACEBO","dose":null,"doseu":null,"dosef":"QD","route":"ORAL","start_dtc":"2024-09-05","end_dtc":"2024-09-05","visit":null},{"seq":"163","trt":"PLACEBO","dose":null,"doseu":null,"dosef":"QD","route":"ORAL","start_dtc":"2024-09-06","end_dtc":"2024-09-06","visit":null},{"seq":"164","trt":"PLACEBO","dose":null,"doseu":null,"dosef":"QD","route":"ORAL","start_dtc":"2024-09-07","end_dtc":"2024-09-07","visit":null},{"seq":"165","trt":"PLACEBO","dose":null,"doseu":null,"dosef":"QD","route":"ORAL","start_dtc":"2024-09-08","end_dtc":"2024-09-08","visit":null},{"seq":"166","trt":"PLACEBO","dose":null,"doseu":null,"dosef":"QD","route":"ORAL","start_dtc":"2024-09-09","end_dtc":"2024-09-09","visit":null},{"seq":"167","trt":"PLACEBO","dose":null,"doseu":null,"dosef":"QD","route":"ORAL","start_dtc":"2024-09-10","end_dtc":"2024-09-10","visit":null},{"seq":"168","trt":"PLACEBO","dose":null,"doseu":null,"dosef":"QD","route":"ORAL","start_dtc":"2024-09-11","end_dtc":"2024-09-11","visit":null},{"seq":"169","trt":"PLACEBO","dose":null,"doseu":null,"dosef":"QD","route":"ORAL","start_dtc":"2024-09-12","end_dtc":"2024-09-12","visit":null},{"seq":"170","trt":"PLACEBO","dose":null,"doseu":null,"dosef":"QD","route":"ORAL","start_dtc":"2024-09-13","end_dtc":"2024-09-13","visit":null},{"seq":"171","trt":"PLACEBO","dose":null,"doseu":null,"dosef":"QD","route":"ORAL","start_dtc":"2024-09-14","end_dtc":"2024-09-14","visit":null},{"seq":"172","trt":"PLACEBO","dose":null,"doseu":null,"dosef":"QD","route":"ORAL","start_dtc":"2024-09-15","end_dtc":"2024-09-15","visit":null},{"seq":"173","trt":"PLACEBO","dose":null,"doseu":null,"dosef":"QD","route":"ORAL","start_dtc":"2024-09-16","end_dtc":"2024-09-16","visit":null},{"seq":"174","trt":"PLACEBO","dose":null,"doseu":null,"dosef":"QD","route":"ORAL","start_dtc":"2024-09-17","end_dtc":"2024-09-17","visit":null},{"seq":"175","trt":"PLACEBO","dose":null,"doseu":null,"dosef":"QD","route":"ORAL","start_dtc":"2024-09-18","end_dtc":"2024-09-18","visit":null},{"seq":"176","trt":"PLACEBO","dose":null,"doseu":null,"dosef":"QD","route":"ORAL","start_dtc":"2024-09-19","end_dtc":"2024-09-19","visit":null},{"seq":"177","trt":"PLACEBO","dose":null,"doseu":null,"dosef":"QD","route":"ORAL","start_dtc":"2024-09-20","end_dtc":"2024-09-20","visit":null},{"seq":"178","trt":"PLACEBO","dose":null,"doseu":null,"dosef":"QD","route":"ORAL","start_dtc":"2024-09-21","end_dtc":"2024-09-21","visit":null},{"seq":"179","trt":"PLACEBO","dose":null,"doseu":null,"dosef":"QD","route":"ORAL","start_dtc":"2024-09-22","end_dtc":"2024-09-22","visit":null},{"seq":"180","trt":"PLACEBO","dose":null,"doseu":null,"dosef":"QD","route":"ORAL","start_dtc":"2024-09-23","end_dtc":"2024-09-23","visit":"MONTH 6"},{"seq":"181","trt":"PLACEBO","dose":null,"doseu":null,"dosef":"QD","route":"ORAL","start_dtc":"2024-09-24","end_dtc":"2024-09-24","visit":"MONTH 6"},{"seq":"182","trt":"PLACEBO","dose":null,"doseu":null,"dosef":"QD","route":"ORAL","start_dtc":"2024-09-25","end_dtc":"2024-09-25","visit":"MONTH 6"},{"seq":"183","trt":"PLACEBO","dose":null,"doseu":null,"dosef":"QD","route":"ORAL","start_dtc":"2024-09-26","end_dtc":"2024-09-26","visit":"MONTH 6"},{"seq":"184","trt":"PLACEBO","dose":null,"doseu":null,"dosef":"QD","route":"ORAL","start_dtc":"2024-09-27","end_dtc":"2024-09-27","visit":"MONTH 6"},{"seq":"185","trt":"PLACEBO","dose":null,"doseu":null,"dosef":"QD","route":"ORAL","start_dtc":"2024-09-28","end_dtc":"2024-09-28","visit":"MONTH 6"},{"seq":"186","trt":"PLACEBO","dose":null,"doseu":null,"dosef":"QD","route":"ORAL","start_dtc":"2024-09-29","end_dtc":"2024-09-29","visit":"MONTH 6"},{"seq":"187","trt":"PLACEBO","dose":null,"doseu":null,"dosef":"QD","route":"ORAL","start_dtc":"2024-09-30","end_dtc":"2024-09-30","visit":null},{"seq":"188","trt":"PLACEBO","dose":null,"doseu":null,"dosef":"QD","route":"ORAL","start_dtc":"2024-10-01","end_dtc":"2024-10-01","visit":null},{"seq":"189","trt":"PLACEBO","dose":null,"doseu":null,"dosef":"QD","route":"ORAL","start_dtc":"2024-10-02","end_dtc":"2024-10-02","visit":null},{"seq":"190","trt":"PLACEBO","dose":null,"doseu":null,"dosef":"QD","route":"ORAL","start_dtc":"2024-10-03","end_dtc":"2024-10-03","visit":null},{"seq":"191","trt":"PLACEBO","dose":null,"doseu":null,"dosef":"QD","route":"ORAL","start_dtc":"2024-10-04","end_dtc":"2024-10-04","visit":null},{"seq":"192","trt":"PLACEBO","dose":null,"doseu":null,"dosef":"QD","route":"ORAL","start_dtc":"2024-10-05","end_dtc":"2024-10-05","visit":null},{"seq":"193","trt":"PLACEBO","dose":null,"doseu":null,"dosef":"QD","route":"ORAL","start_dtc":"2024-10-06","end_dtc":"2024-10-06","visit":null},{"seq":"194","trt":"PLACEBO","dose":null,"doseu":null,"dosef":"QD","route":"ORAL","start_dtc":"2024-10-07","end_dtc":"2024-10-07","visit":null},{"seq":"195","trt":"PLACEBO","dose":null,"doseu":null,"dosef":"QD","route":"ORAL","start_dtc":"2024-10-08","end_dtc":"2024-10-08","visit":null},{"seq":"196","trt":"PLACEBO","dose":null,"doseu":null,"dosef":"QD","route":"ORAL","start_dtc":"2024-10-09","end_dtc":"2024-10-09","visit":null},{"seq":"197","trt":"PLACEBO","dose":null,"doseu":null,"dosef":"QD","route":"ORAL","start_dtc":"2024-10-10","end_dtc":"2024-10-10","visit":null},{"seq":"198","trt":"PLACEBO","dose":null,"doseu":null,"dosef":"QD","route":"ORAL","start_dtc":"2024-10-11","end_dtc":"2024-10-11","visit":null},{"seq":"199","trt":"PLACEBO","dose":null,"doseu":null,"dosef":"QD","route":"ORAL","start_dtc":"2024-10-12","end_dtc":"2024-10-12","visit":null},{"seq":"200","trt":"PLACEBO","dose":null,"doseu":null,"dosef":"QD","route":"ORAL","start_dtc":"2024-10-13","end_dtc":"2024-10-13","visit":null},{"seq":"201","trt":"PLACEBO","dose":null,"doseu":null,"dosef":"QD","route":"ORAL","start_dtc":"2024-10-14","end_dtc":"2024-10-14","visit":null},{"seq":"202","trt":"PLACEBO","dose":null,"doseu":null,"dosef":"QD","route":"ORAL","start_dtc":"2024-10-15","end_dtc":"2024-10-15","visit":null},{"seq":"203","trt":"PLACEBO","dose":null,"doseu":null,"dosef":"QD","route":"ORAL","start_dtc":"2024-10-16","end_dtc":"2024-10-16","visit":null},{"seq":"204","trt":"PLACEBO","dose":null,"doseu":null,"dosef":"QD","route":"ORAL","start_dtc":"2024-10-17","end_dtc":"2024-10-17","visit":null},{"seq":"205","trt":"PLACEBO","dose":null,"doseu":null,"dosef":"QD","route":"ORAL","start_dtc":"2024-10-18","end_dtc":"2024-10-18","visit":null},{"seq":"206","trt":"PLACEBO","dose":null,"doseu":null,"dosef":"QD","route":"ORAL","start_dtc":"2024-10-19","end_dtc":"2024-10-19","visit":null},{"seq":"207","trt":"PLACEBO","dose":null,"doseu":null,"dosef":"QD","route":"ORAL","start_dtc":"2024-10-20","end_dtc":"2024-10-20","visit":null},{"seq":"208","trt":"PLACEBO","dose":null,"doseu":null,"dosef":"QD","route":"ORAL","start_dtc":"2024-10-21","end_dtc":"2024-10-21","visit":null},{"seq":"209","trt":"PLACEBO","dose":null,"doseu":null,"dosef":"QD","route":"ORAL","start_dtc":"2024-10-22","end_dtc":"2024-10-22","visit":null},{"seq":"210","trt":"PLACEBO","dose":null,"doseu":null,"dosef":"QD","route":"ORAL","start_dtc":"2024-10-23","end_dtc":"2024-10-23","visit":null},{"seq":"211","trt":"PLACEBO","dose":null,"doseu":null,"dosef":"QD","route":"ORAL","start_dtc":"2024-10-24","end_dtc":"2024-10-24","visit":null},{"seq":"212","trt":"PLACEBO","dose":null,"doseu":null,"dosef":"QD","route":"ORAL","start_dtc":"2024-10-25","end_dtc":"2024-10-25","visit":null},{"seq":"213","trt":"PLACEBO","dose":null,"doseu":null,"dosef":"QD","route":"ORAL","start_dtc":"2024-10-26","end_dtc":"2024-10-26","visit":null},{"seq":"214","trt":"PLACEBO","dose":null,"doseu":null,"dosef":"QD","route":"ORAL","start_dtc":"2024-10-27","end_dtc":"2024-10-27","visit":null},{"seq":"215","trt":"PLACEBO","dose":null,"doseu":null,"dosef":"QD","route":"ORAL","start_dtc":"2024-10-28","end_dtc":"2024-10-28","visit":null},{"seq":"216","trt":"PLACEBO","dose":null,"doseu":null,"dosef":"QD","route":"ORAL","start_dtc":"2024-10-29","end_dtc":"2024-10-29","visit":null},{"seq":"217","trt":"PLACEBO","dose":null,"doseu":null,"dosef":"QD","route":"ORAL","start_dtc":"2024-10-30","end_dtc":"2024-10-30","visit":null},{"seq":"218","trt":"PLACEBO","dose":null,"doseu":null,"dosef":"QD","route":"ORAL","start_dtc":"2024-10-31","end_dtc":"2024-10-31","visit":null},{"seq":"219","trt":"PLACEBO","dose":null,"doseu":null,"dosef":"QD","route":"ORAL","start_dtc":"2024-11-01","end_dtc":"2024-11-01","visit":null},{"seq":"220","trt":"PLACEBO","dose":null,"doseu":null,"dosef":"QD","route":"ORAL","start_dtc":"2024-11-02","end_dtc":"2024-11-02","visit":null},{"seq":"221","trt":"PLACEBO","dose":null,"doseu":null,"dosef":"QD","route":"ORAL","start_dtc":"2024-11-03","end_dtc":"2024-11-03","visit":null},{"seq":"222","trt":"PLACEBO","dose":null,"doseu":null,"dosef":"QD","route":"ORAL","start_dtc":"2024-11-04","end_dtc":"2024-11-04","visit":null},{"seq":"223","trt":"PLACEBO","dose":null,"doseu":null,"dosef":"QD","route":"ORAL","start_dtc":"2024-11-05","end_dtc":"2024-11-05","visit":null},{"seq":"224","trt":"PLACEBO","dose":null,"doseu":null,"dosef":"QD","route":"ORAL","start_dtc":"2024-11-06","end_dtc":"2024-11-06","visit":null},{"seq":"225","trt":"PLACEBO","dose":null,"doseu":null,"dosef":"QD","route":"ORAL","start_dtc":"2024-11-07","end_dtc":"2024-11-07","visit":null},{"seq":"226","trt":"PLACEBO","dose":null,"doseu":null,"dosef":"QD","route":"ORAL","start_dtc":"2024-11-08","end_dtc":"2024-11-08","visit":null},{"seq":"227","trt":"PLACEBO","dose":null,"doseu":null,"dosef":"QD","route":"ORAL","start_dtc":"2024-11-09","end_dtc":"2024-11-09","visit":null},{"seq":"228","trt":"PLACEBO","dose":null,"doseu":null,"dosef":"QD","route":"ORAL","start_dtc":"2024-11-10","end_dtc":"2024-11-10","visit":null},{"seq":"229","trt":"PLACEBO","dose":null,"doseu":null,"dosef":"QD","route":"ORAL","start_dtc":"2024-11-11","end_dtc":"2024-11-11","visit":null},{"seq":"230","trt":"PLACEBO","dose":null,"doseu":null,"dosef":"QD","route":"ORAL","start_dtc":"2024-11-12","end_dtc":"2024-11-12","visit":null},{"seq":"231","trt":"PLACEBO","dose":null,"doseu":null,"dosef":"QD","route":"ORAL","start_dtc":"2024-11-13","end_dtc":"2024-11-13","visit":null},{"seq":"232","trt":"PLACEBO","dose":null,"doseu":null,"dosef":"QD","route":"ORAL","start_dtc":"2024-11-14","end_dtc":"2024-11-14","visit":null},{"seq":"233","trt":"PLACEBO","dose":null,"doseu":null,"dosef":"QD","route":"ORAL","start_dtc":"2024-11-15","end_dtc":"2024-11-15","visit":null},{"seq":"234","trt":"PLACEBO","dose":null,"doseu":null,"dosef":"QD","route":"ORAL","start_dtc":"2024-11-16","end_dtc":"2024-11-16","visit":null},{"seq":"235","trt":"PLACEBO","dose":null,"doseu":null,"dosef":"QD","route":"ORAL","start_dtc":"2024-11-17","end_dtc":"2024-11-17","visit":null},{"seq":"236","trt":"PLACEBO","dose":null,"doseu":null,"dosef":"QD","route":"ORAL","start_dtc":"2024-11-18","end_dtc":"2024-11-18","visit":null},{"seq":"237","trt":"PLACEBO","dose":null,"doseu":null,"dosef":"QD","route":"ORAL","start_dtc":"2024-11-19","end_dtc":"2024-11-19","visit":null},{"seq":"238","trt":"PLACEBO","dose":null,"doseu":null,"dosef":"QD","route":"ORAL","start_dtc":"2024-11-20","end_dtc":"2024-11-20","visit":null},{"seq":"239","trt":"PLACEBO","dose":null,"doseu":null,"dosef":"QD","route":"ORAL","start_dtc":"2024-11-21","end_dtc":"2024-11-21","visit":null},{"seq":"240","trt":"PLACEBO","dose":null,"doseu":null,"dosef":"QD","route":"ORAL","start_dtc":"2024-11-22","end_dtc":"2024-11-22","visit":null},{"seq":"241","trt":"PLACEBO","dose":null,"doseu":null,"dosef":"QD","route":"ORAL","start_dtc":"2024-11-23","end_dtc":"2024-11-23","visit":null},{"seq":"242","trt":"PLACEBO","dose":null,"doseu":null,"dosef":"QD","route":"ORAL","start_dtc":"2024-11-24","end_dtc":"2024-11-24","visit":null},{"seq":"243","trt":"PLACEBO","dose":null,"doseu":null,"dosef":"QD","route":"ORAL","start_dtc":"2024-11-25","end_dtc":"2024-11-25","visit":null},{"seq":"244","trt":"PLACEBO","dose":null,"doseu":null,"dosef":"QD","route":"ORAL","start_dtc":"2024-11-26","end_dtc":"2024-11-26","visit":null},{"seq":"245","trt":"PLACEBO","dose":null,"doseu":null,"dosef":"QD","route":"ORAL","start_dtc":"2024-11-27","end_dtc":"2024-11-27","visit":null},{"seq":"246","trt":"PLACEBO","dose":null,"doseu":null,"dosef":"QD","route":"ORAL","start_dtc":"2024-11-28","end_dtc":"2024-11-28","visit":null},{"seq":"247","trt":"PLACEBO","dose":null,"doseu":null,"dosef":"QD","route":"ORAL","start_dtc":"2024-11-29","end_dtc":"2024-11-29","visit":null},{"seq":"248","trt":"PLACEBO","dose":null,"doseu":null,"dosef":"QD","route":"ORAL","start_dtc":"2024-11-30","end_dtc":"2024-11-30","visit":null},{"seq":"249","trt":"PLACEBO","dose":null,"doseu":null,"dosef":"QD","route":"ORAL","start_dtc":"2024-12-01","end_dtc":"2024-12-01","visit":null},{"seq":"250","trt":"PLACEBO","dose":null,"doseu":null,"dosef":"QD","route":"ORAL","start_dtc":"2024-12-02","end_dtc":"2024-12-02","visit":null},{"seq":"251","trt":"PLACEBO","dose":null,"doseu":null,"dosef":"QD","route":"ORAL","start_dtc":"2024-12-03","end_dtc":"2024-12-03","visit":null},{"seq":"252","trt":"PLACEBO","dose":null,"doseu":null,"dosef":"QD","route":"ORAL","start_dtc":"2024-12-04","end_dtc":"2024-12-04","visit":null},{"seq":"253","trt":"PLACEBO","dose":null,"doseu":null,"dosef":"QD","route":"ORAL","start_dtc":"2024-12-05","end_dtc":"2024-12-05","visit":null},{"seq":"254","trt":"PLACEBO","dose":null,"doseu":null,"dosef":"QD","route":"ORAL","start_dtc":"2024-12-06","end_dtc":"2024-12-06","visit":null},{"seq":"255","trt":"PLACEBO","dose":null,"doseu":null,"dosef":"QD","route":"ORAL","start_dtc":"2024-12-07","end_dtc":"2024-12-07","visit":null},{"seq":"256","trt":"PLACEBO","dose":null,"doseu":null,"dosef":"QD","route":"ORAL","start_dtc":"2024-12-08","end_dtc":"2024-12-08","visit":null},{"seq":"257","trt":"PLACEBO","dose":null,"doseu":null,"dosef":"QD","route":"ORAL","start_dtc":"2024-12-09","end_dtc":"2024-12-09","visit":null},{"seq":"258","trt":"PLACEBO","dose":null,"doseu":null,"dosef":"QD","route":"ORAL","start_dtc":"2024-12-10","end_dtc":"2024-12-10","visit":null},{"seq":"259","trt":"PLACEBO","dose":null,"doseu":null,"dosef":"QD","route":"ORAL","start_dtc":"2024-12-11","end_dtc":"2024-12-11","visit":null},{"seq":"260","trt":"PLACEBO","dose":null,"doseu":null,"dosef":"QD","route":"ORAL","start_dtc":"2024-12-12","end_dtc":"2024-12-12","visit":null},{"seq":"261","trt":"PLACEBO","dose":null,"doseu":null,"dosef":"QD","route":"ORAL","start_dtc":"2024-12-13","end_dtc":"2024-12-13","visit":null},{"seq":"262","trt":"PLACEBO","dose":null,"doseu":null,"dosef":"QD","route":"ORAL","start_dtc":"2024-12-14","end_dtc":"2024-12-14","visit":null},{"seq":"263","trt":"PLACEBO","dose":null,"doseu":null,"dosef":"QD","route":"ORAL","start_dtc":"2024-12-15","end_dtc":"2024-12-15","visit":null},{"seq":"264","trt":"PLACEBO","dose":null,"doseu":null,"dosef":"QD","route":"ORAL","start_dtc":"2024-12-16","end_dtc":"2024-12-16","visit":null},{"seq":"265","trt":"PLACEBO","dose":null,"doseu":null,"dosef":"QD","route":"ORAL","start_dtc":"2024-12-17","end_dtc":"2024-12-17","visit":null},{"seq":"266","trt":"PLACEBO","dose":null,"doseu":null,"dosef":"QD","route":"ORAL","start_dtc":"2024-12-18","end_dtc":"2024-12-18","visit":null},{"seq":"267","trt":"PLACEBO","dose":null,"doseu":null,"dosef":"QD","route":"ORAL","start_dtc":"2024-12-19","end_dtc":"2024-12-19","visit":null},{"seq":"268","trt":"PLACEBO","dose":null,"doseu":null,"dosef":"QD","route":"ORAL","start_dtc":"2024-12-20","end_dtc":"2024-12-20","visit":null},{"seq":"269","trt":"PLACEBO","dose":null,"doseu":null,"dosef":"QD","route":"ORAL","start_dtc":"2024-12-21","end_dtc":"2024-12-21","visit":null},{"seq":"270","trt":"PLACEBO","dose":null,"doseu":null,"dosef":"QD","route":"ORAL","start_dtc":"2024-12-22","end_dtc":"2024-12-22","visit":null},{"seq":"271","trt":"PLACEBO","dose":null,"doseu":null,"dosef":"QD","route":"ORAL","start_dtc":"2024-12-23","end_dtc":"2024-12-23","visit":null},{"seq":"272","trt":"PLACEBO","dose":null,"doseu":null,"dosef":"QD","route":"ORAL","start_dtc":"2024-12-24","end_dtc":"2024-12-24","visit":null},{"seq":"273","trt":"PLACEBO","dose":null,"doseu":null,"dosef":"QD","route":"ORAL","start_dtc":"2024-12-25","end_dtc":"2024-12-25","visit":null},{"seq":"274","trt":"PLACEBO","dose":null,"doseu":null,"dosef":"QD","route":"ORAL","start_dtc":"2024-12-26","end_dtc":"2024-12-26","visit":null},{"seq":"275","trt":"PLACEBO","dose":null,"doseu":null,"dosef":"QD","route":"ORAL","start_dtc":"2024-12-27","end_dtc":"2024-12-27","visit":null},{"seq":"276","trt":"PLACEBO","dose":null,"doseu":null,"dosef":"QD","route":"ORAL","start_dtc":"2024-12-28","end_dtc":"2024-12-28","visit":null},{"seq":"277","trt":"PLACEBO","dose":null,"doseu":null,"dosef":"QD","route":"ORAL","start_dtc":"2024-12-29","end_dtc":"2024-12-29","visit":null},{"seq":"278","trt":"PLACEBO","dose":null,"doseu":null,"dosef":"QD","route":"ORAL","start_dtc":"2024-12-30","end_dtc":"2024-12-30","visit":null},{"seq":"279","trt":"PLACEBO","dose":null,"doseu":null,"dosef":"QD","route":"ORAL","start_dtc":"2024-12-31","end_dtc":"2024-12-31","visit":null},{"seq":"280","trt":"PLACEBO","dose":null,"doseu":null,"dosef":"QD","route":"ORAL","start_dtc":"2025-01-01","end_dtc":"2025-01-01","visit":null},{"seq":"281","trt":"PLACEBO","dose":null,"doseu":null,"dosef":"QD","route":"ORAL","start_dtc":"2025-01-02","end_dtc":"2025-01-02","visit":null},{"seq":"282","trt":"PLACEBO","dose":null,"doseu":null,"dosef":"QD","route":"ORAL","start_dtc":"2025-01-03","end_dtc":"2025-01-03","visit":null},{"seq":"283","trt":"PLACEBO","dose":null,"doseu":null,"dosef":"QD","route":"ORAL","start_dtc":"2025-01-04","end_dtc":"2025-01-04","visit":null},{"seq":"284","trt":"PLACEBO","dose":null,"doseu":null,"dosef":"QD","route":"ORAL","start_dtc":"2025-01-05","end_dtc":"2025-01-05","visit":null},{"seq":"285","trt":"PLACEBO","dose":null,"doseu":null,"dosef":"QD","route":"ORAL","start_dtc":"2025-01-06","end_dtc":"2025-01-06","visit":null},{"seq":"286","trt":"PLACEBO","dose":null,"doseu":null,"dosef":"QD","route":"ORAL","start_dtc":"2025-01-07","end_dtc":"2025-01-07","visit":null},{"seq":"287","trt":"PLACEBO","dose":null,"doseu":null,"dosef":"QD","route":"ORAL","start_dtc":"2025-01-08","end_dtc":"2025-01-08","visit":null},{"seq":"288","trt":"PLACEBO","dose":null,"doseu":null,"dosef":"QD","route":"ORAL","start_dtc":"2025-01-09","end_dtc":"2025-01-09","visit":null},{"seq":"289","trt":"PLACEBO","dose":null,"doseu":null,"dosef":"QD","route":"ORAL","start_dtc":"2025-01-10","end_dtc":"2025-01-10","visit":null},{"seq":"290","trt":"PLACEBO","dose":null,"doseu":null,"dosef":"QD","route":"ORAL","start_dtc":"2025-01-11","end_dtc":"2025-01-11","visit":null},{"seq":"291","trt":"PLACEBO","dose":null,"doseu":null,"dosef":"QD","route":"ORAL","start_dtc":"2025-01-12","end_dtc":"2025-01-12","visit":null},{"seq":"292","trt":"PLACEBO","dose":null,"doseu":null,"dosef":"QD","route":"ORAL","start_dtc":"2025-01-13","end_dtc":"2025-01-13","visit":null},{"seq":"293","trt":"PLACEBO","dose":null,"doseu":null,"dosef":"QD","route":"ORAL","start_dtc":"2025-01-14","end_dtc":"2025-01-14","visit":null},{"seq":"294","trt":"PLACEBO","dose":null,"doseu":null,"dosef":"QD","route":"ORAL","start_dtc":"2025-01-15","end_dtc":"2025-01-15","visit":null},{"seq":"295","trt":"PLACEBO","dose":null,"doseu":null,"dosef":"QD","route":"ORAL","start_dtc":"2025-01-16","end_dtc":"2025-01-16","visit":null},{"seq":"296","trt":"PLACEBO","dose":null,"doseu":null,"dosef":"QD","route":"ORAL","start_dtc":"2025-01-17","end_dtc":"2025-01-17","visit":null},{"seq":"297","trt":"PLACEBO","dose":null,"doseu":null,"dosef":"QD","route":"ORAL","start_dtc":"2025-01-18","end_dtc":"2025-01-18","visit":null},{"seq":"298","trt":"PLACEBO","dose":null,"doseu":null,"dosef":"QD","route":"ORAL","start_dtc":"2025-01-19","end_dtc":"2025-01-19","visit":null},{"seq":"299","trt":"PLACEBO","dose":null,"doseu":null,"dosef":"QD","route":"ORAL","start_dtc":"2025-01-20","end_dtc":"2025-01-20","visit":null},{"seq":"300","trt":"PLACEBO","dose":null,"doseu":null,"dosef":"QD","route":"ORAL","start_dtc":"2025-01-21","end_dtc":"2025-01-21","visit":null},{"seq":"301","trt":"PLACEBO","dose":null,"doseu":null,"dosef":"QD","route":"ORAL","start_dtc":"2025-01-22","end_dtc":"2025-01-22","visit":null},{"seq":"302","trt":"PLACEBO","dose":null,"doseu":null,"dosef":"QD","route":"ORAL","start_dtc":"2025-01-23","end_dtc":"2025-01-23","visit":null},{"seq":"303","trt":"PLACEBO","dose":null,"doseu":null,"dosef":"QD","route":"ORAL","start_dtc":"2025-01-24","end_dtc":"2025-01-24","visit":null},{"seq":"304","trt":"PLACEBO","dose":null,"doseu":null,"dosef":"QD","route":"ORAL","start_dtc":"2025-01-25","end_dtc":"2025-01-25","visit":null},{"seq":"305","trt":"PLACEBO","dose":null,"doseu":null,"dosef":"QD","route":"ORAL","start_dtc":"2025-01-26","end_dtc":"2025-01-26","visit":null},{"seq":"306","trt":"PLACEBO","dose":null,"doseu":null,"dosef":"QD","route":"ORAL","start_dtc":"2025-01-27","end_dtc":"2025-01-27","visit":null},{"seq":"307","trt":"PLACEBO","dose":null,"doseu":null,"dosef":"QD","route":"ORAL","start_dtc":"2025-01-28","end_dtc":"2025-01-28","visit":null},{"seq":"308","trt":"PLACEBO","dose":null,"doseu":null,"dosef":"QD","route":"ORAL","start_dtc":"2025-01-29","end_dtc":"2025-01-29","visit":null},{"seq":"309","trt":"PLACEBO","dose":null,"doseu":null,"dosef":"QD","route":"ORAL","start_dtc":"2025-01-30","end_dtc":"2025-01-30","visit":null},{"seq":"310","trt":"PLACEBO","dose":null,"doseu":null,"dosef":"QD","route":"ORAL","start_dtc":"2025-01-31","end_dtc":"2025-01-31","visit":null},{"seq":"311","trt":"PLACEBO","dose":null,"doseu":null,"dosef":"QD","route":"ORAL","start_dtc":"2025-02-01","end_dtc":"2025-02-01","visit":null},{"seq":"312","trt":"PLACEBO","dose":null,"doseu":null,"dosef":"QD","route":"ORAL","start_dtc":"2025-02-02","end_dtc":"2025-02-02","visit":null},{"seq":"313","trt":"PLACEBO","dose":null,"doseu":null,"dosef":"QD","route":"ORAL","start_dtc":"2025-02-03","end_dtc":"2025-02-03","visit":null},{"seq":"314","trt":"PLACEBO","dose":null,"doseu":null,"dosef":"QD","route":"ORAL","start_dtc":"2025-02-04","end_dtc":"2025-02-04","visit":null},{"seq":"315","trt":"PLACEBO","dose":null,"doseu":null,"dosef":"QD","route":"ORAL","start_dtc":"2025-02-05","end_dtc":"2025-02-05","visit":null},{"seq":"316","trt":"PLACEBO","dose":null,"doseu":null,"dosef":"QD","route":"ORAL","start_dtc":"2025-02-06","end_dtc":"2025-02-06","visit":null},{"seq":"317","trt":"PLACEBO","dose":null,"doseu":null,"dosef":"QD","route":"ORAL","start_dtc":"2025-02-07","end_dtc":"2025-02-07","visit":null},{"seq":"318","trt":"PLACEBO","dose":null,"doseu":null,"dosef":"QD","route":"ORAL","start_dtc":"2025-02-08","end_dtc":"2025-02-08","visit":null},{"seq":"319","trt":"PLACEBO","dose":null,"doseu":null,"dosef":"QD","route":"ORAL","start_dtc":"2025-02-09","end_dtc":"2025-02-09","visit":null},{"seq":"320","trt":"PLACEBO","dose":null,"doseu":null,"dosef":"QD","route":"ORAL","start_dtc":"2025-02-10","end_dtc":"2025-02-10","visit":null},{"seq":"321","trt":"PLACEBO","dose":null,"doseu":null,"dosef":"QD","route":"ORAL","start_dtc":"2025-02-11","end_dtc":"2025-02-11","visit":null},{"seq":"322","trt":"PLACEBO","dose":null,"doseu":null,"dosef":"QD","route":"ORAL","start_dtc":"2025-02-12","end_dtc":"2025-02-12","visit":null},{"seq":"323","trt":"PLACEBO","dose":null,"doseu":null,"dosef":"QD","route":"ORAL","start_dtc":"2025-02-13","end_dtc":"2025-02-13","visit":null},{"seq":"324","trt":"PLACEBO","dose":null,"doseu":null,"dosef":"QD","route":"ORAL","start_dtc":"2025-02-14","end_dtc":"2025-02-14","visit":null},{"seq":"325","trt":"PLACEBO","dose":null,"doseu":null,"dosef":"QD","route":"ORAL","start_dtc":"2025-02-15","end_dtc":"2025-02-15","visit":null},{"seq":"326","trt":"PLACEBO","dose":null,"doseu":null,"dosef":"QD","route":"ORAL","start_dtc":"2025-02-16","end_dtc":"2025-02-16","visit":null},{"seq":"327","trt":"PLACEBO","dose":null,"doseu":null,"dosef":"QD","route":"ORAL","start_dtc":"2025-02-17","end_dtc":"2025-02-17","visit":null},{"seq":"328","trt":"PLACEBO","dose":null,"doseu":null,"dosef":"QD","route":"ORAL","start_dtc":"2025-02-18","end_dtc":"2025-02-18","visit":null},{"seq":"329","trt":"PLACEBO","dose":null,"doseu":null,"dosef":"QD","route":"ORAL","start_dtc":"2025-02-19","end_dtc":"2025-02-19","visit":null},{"seq":"330","trt":"PLACEBO","dose":null,"doseu":null,"dosef":"QD","route":"ORAL","start_dtc":"2025-02-20","end_dtc":"2025-02-20","visit":null},{"seq":"331","trt":"PLACEBO","dose":null,"doseu":null,"dosef":"QD","route":"ORAL","start_dtc":"2025-02-21","end_dtc":"2025-02-21","visit":null},{"seq":"332","trt":"PLACEBO","dose":null,"doseu":null,"dosef":"QD","route":"ORAL","start_dtc":"2025-02-22","end_dtc":"2025-02-22","visit":null},{"seq":"333","trt":"PLACEBO","dose":null,"doseu":null,"dosef":"QD","route":"ORAL","start_dtc":"2025-02-23","end_dtc":"2025-02-23","visit":null},{"seq":"334","trt":"PLACEBO","dose":null,"doseu":null,"dosef":"QD","route":"ORAL","start_dtc":"2025-02-24","end_dtc":"2025-02-24","visit":null},{"seq":"335","trt":"PLACEBO","dose":null,"doseu":null,"dosef":"QD","route":"ORAL","start_dtc":"2025-02-25","end_dtc":"2025-02-25","visit":null},{"seq":"336","trt":"PLACEBO","dose":null,"doseu":null,"dosef":"QD","route":"ORAL","start_dtc":"2025-02-26","end_dtc":"2025-02-26","visit":null},{"seq":"337","trt":"PLACEBO","dose":null,"doseu":null,"dosef":"QD","route":"ORAL","start_dtc":"2025-02-27","end_dtc":"2025-02-27","visit":null},{"seq":"338","trt":"PLACEBO","dose":null,"doseu":null,"dosef":"QD","route":"ORAL","start_dtc":"2025-02-28","end_dtc":"2025-02-28","visit":null},{"seq":"339","trt":"PLACEBO","dose":null,"doseu":null,"dosef":"QD","route":"ORAL","start_dtc":"2025-03-01","end_dtc":"2025-03-01","visit":null},{"seq":"340","trt":"PLACEBO","dose":null,"doseu":null,"dosef":"QD","route":"ORAL","start_dtc":"2025-03-02","end_dtc":"2025-03-02","visit":null},{"seq":"341","trt":"PLACEBO","dose":null,"doseu":null,"dosef":"QD","route":"ORAL","start_dtc":"2025-03-03","end_dtc":"2025-03-03","visit":null},{"seq":"342","trt":"PLACEBO","dose":null,"doseu":null,"dosef":"QD","route":"ORAL","start_dtc":"2025-03-04","end_dtc":"2025-03-04","visit":null},{"seq":"343","trt":"PLACEBO","dose":null,"doseu":null,"dosef":"QD","route":"ORAL","start_dtc":"2025-03-05","end_dtc":"2025-03-05","visit":null},{"seq":"344","trt":"PLACEBO","dose":null,"doseu":null,"dosef":"QD","route":"ORAL","start_dtc":"2025-03-06","end_dtc":"2025-03-06","visit":null},{"seq":"345","trt":"PLACEBO","dose":null,"doseu":null,"dosef":"QD","route":"ORAL","start_dtc":"2025-03-07","end_dtc":"2025-03-07","visit":null},{"seq":"346","trt":"PLACEBO","dose":null,"doseu":null,"dosef":"QD","route":"ORAL","start_dtc":"2025-03-08","end_dtc":"2025-03-08","visit":null},{"seq":"347","trt":"PLACEBO","dose":null,"doseu":null,"dosef":"QD","route":"ORAL","start_dtc":"2025-03-09","end_dtc":"2025-03-09","visit":null},{"seq":"348","trt":"PLACEBO","dose":null,"doseu":null,"dosef":"QD","route":"ORAL","start_dtc":"2025-03-10","end_dtc":"2025-03-10","visit":null},{"seq":"349","trt":"PLACEBO","dose":null,"doseu":null,"dosef":"QD","route":"ORAL","start_dtc":"2025-03-11","end_dtc":"2025-03-11","visit":null},{"seq":"350","trt":"PLACEBO","dose":null,"doseu":null,"dosef":"QD","route":"ORAL","start_dtc":"2025-03-12","end_dtc":"2025-03-12","visit":null},{"seq":"351","trt":"PLACEBO","dose":null,"doseu":null,"dosef":"QD","route":"ORAL","start_dtc":"2025-03-13","end_dtc":"2025-03-13","visit":null},{"seq":"352","trt":"PLACEBO","dose":null,"doseu":null,"dosef":"QD","route":"ORAL","start_dtc":"2025-03-14","end_dtc":"2025-03-14","visit":null},{"seq":"353","trt":"PLACEBO","dose":null,"doseu":null,"dosef":"QD","route":"ORAL","start_dtc":"2025-03-15","end_dtc":"2025-03-15","visit":null},{"seq":"354","trt":"PLACEBO","dose":null,"doseu":null,"dosef":"QD","route":"ORAL","start_dtc":"2025-03-16","end_dtc":"2025-03-16","visit":null},{"seq":"355","trt":"PLACEBO","dose":null,"doseu":null,"dosef":"QD","route":"ORAL","start_dtc":"2025-03-17","end_dtc":"2025-03-17","visit":null},{"seq":"356","trt":"PLACEBO","dose":null,"doseu":null,"dosef":"QD","route":"ORAL","start_dtc":"2025-03-18","end_dtc":"2025-03-18","visit":null},{"seq":"357","trt":"PLACEBO","dose":null,"doseu":null,"dosef":"QD","route":"ORAL","start_dtc":"2025-03-19","end_dtc":"2025-03-19","visit":null},{"seq":"358","trt":"PLACEBO","dose":null,"doseu":null,"dosef":"QD","route":"ORAL","start_dtc":"2025-03-20","end_dtc":"2025-03-20","visit":null},{"seq":"359","trt":"PLACEBO","dose":null,"doseu":null,"dosef":"QD","route":"ORAL","start_dtc":"2025-03-21","end_dtc":"2025-03-21","visit":null},{"seq":"360","trt":"PLACEBO","dose":null,"doseu":null,"dosef":"QD","route":"ORAL","start_dtc":"2025-03-22","end_dtc":"2025-03-22","visit":null},{"seq":"361","trt":"PLACEBO","dose":null,"doseu":null,"dosef":"QD","route":"ORAL","start_dtc":"2025-03-23","end_dtc":"2025-03-23","visit":null},{"seq":"362","trt":"PLACEBO","dose":null,"doseu":null,"dosef":"QD","route":"ORAL","start_dtc":"2025-03-24","end_dtc":"2025-03-24","visit":"MONTH 12"},{"seq":"363","trt":"PLACEBO","dose":null,"doseu":null,"dosef":"QD","route":"ORAL","start_dtc":"2025-03-25","end_dtc":"2025-03-25","visit":"MONTH 12"},{"seq":"364","trt":"PLACEBO","dose":null,"doseu":null,"dosef":"QD","route":"ORAL","start_dtc":"2025-03-26","end_dtc":"2025-03-26","visit":"MONTH 12"},{"seq":"365","trt":"PLACEBO","dose":null,"doseu":null,"dosef":"QD","route":"ORAL","start_dtc":"2025-03-27","end_dtc":"2025-03-27","visit":"MONTH 12"},{"seq":"366","trt":"PLACEBO","dose":null,"doseu":null,"dosef":"QD","route":"ORAL","start_dtc":"2025-03-28","end_dtc":"2025-03-28","visit":"MONTH 12"},{"seq":"367","trt":"PLACEBO","dose":null,"doseu":null,"dosef":"QD","route":"ORAL","start_dtc":"2025-03-29","end_dtc":"2025-03-29","visit":"MONTH 12"},{"seq":"368","trt":"PLACEBO","dose":null,"doseu":null,"dosef":"QD","route":"ORAL","start_dtc":"2025-03-30","end_dtc":"2025-03-30","visit":"MONTH 12"},{"seq":"369","trt":"PLACEBO","dose":null,"doseu":null,"dosef":"QD","route":"ORAL","start_dtc":"2025-03-31","end_dtc":"2025-03-31","visit":null}]},"section_7_adverse_events":{"summary":{"total_aes":36,"serious_aes":11,"fatal_aes":1,"by_severity":{"SEVERE":11,"MODERATE":15,"MILD":10},"by_soc":{"Gastrointestinal disorders":3,"General disorders and administration site conditions":5,"Nervous system disorders":8,"Immune system disorders":1,"Cardiac disorders":5,"Investigations":2,"Vascular disorders":4,"Metabolism and nutrition disorders":3,"Infections and infestations":2,"Renal and urinary disorders":3}},"events":[{"seq":"1","term":"NAUSEA","decod":"Nausea","llt":"Nausea","hlt":"Nausea and vomiting symptoms","hlgt":"Gastrointestinal signs and symptoms","soc":"Gastrointestinal disorders","bodsys":"Gastrointestinal disorders","severity":"SEVERE","serious":"Y","causality":"NOT RELATED","action_taken":"DOSE NOT CHANGED","outcome":"RECOVERED/RESOLVED WITH SEQUELAE","fatal":"N","hospitalization":"N","life_threatening":"N","onset_dtc":"2024-04-02","end_dtc":"2024-04-11","onset_dy":"6","end_dy":"15","duration":null,"epoch":"TREATMENT","visit":null,"supplemental":{"AETRTEM":"Y"}},{"seq":"2","term":"FATIGUE","decod":"Fatigue","llt":"Fatigue","hlt":"Asthenic conditions","hlgt":"General system disorders NEC","soc":"General disorders and administration site conditions","bodsys":"General disorders and administration site conditions","severity":"MODERATE","serious":"N","causality":"NOT RELATED","action_taken":"DOSE NOT CHANGED","outcome":"RECOVERED/RESOLVED","fatal":"N","hospitalization":"N","life_threatening":"N","onset_dtc":"2024-05-04","end_dtc":"2024-06-05","onset_dy":"38","end_dy":"70","duration":null,"epoch":"TREATMENT","visit":null,"supplemental":{"AETRTEM":"Y"}},{"seq":"3","term":"HEADACHE","decod":"Headache","llt":"Headache","hlt":"Headaches NEC","hlgt":"Headaches","soc":"Nervous system disorders","bodsys":"Nervous system disorders","severity":"MODERATE","serious":"N","causality":"NOT RELATED","action_taken":"DOSE NOT CHANGED","outcome":"RECOVERED/RESOLVED","fatal":"N","hospitalization":"N","life_threatening":"N","onset_dtc":"2024-05-25","end_dtc":"2024-05-28","onset_dy":"59","end_dy":"62","duration":null,"epoch":"TREATMENT","visit":null,"supplemental":{"AETRTEM":"Y"}},{"seq":"4","term":"NAUSEA","decod":"Nausea","llt":"Nausea","hlt":"Nausea and vomiting symptoms","hlgt":"Gastrointestinal signs and symptoms","soc":"Gastrointestinal disorders","bodsys":"Gastrointestinal disorders","severity":"MILD","serious":"N","causality":"NOT RELATED","action_taken":"DOSE NOT CHANGED","outcome":"RECOVERED/RESOLVED","fatal":"N","hospitalization":"N","life_threatening":"N","onset_dtc":"2024-05-29","end_dtc":"2024-05-30","onset_dy":"63","end_dy":"64","duration":null,"epoch":"TREATMENT","visit":null,"supplemental":{"AETRTEM":"Y"}},{"seq":"5","term":"CYTOKINE RELEASE SYNDROME","decod":"Cytokine release syndrome","llt":"Cytokine release syndrome","hlt":"Immune and associated conditions NEC","hlgt":"Autoimmune disorders","soc":"Immune system disorders","bodsys":"Immune system disorders","severity":"SEVERE","serious":"Y","causality":"NOT RELATED","action_taken":"DOSE NOT CHANGED","outcome":"RECOVERED/RESOLVED","fatal":"N","hospitalization":"Y","life_threatening":"N","onset_dtc":"2024-06-24","end_dtc":"2024-07-31","onset_dy":"89","end_dy":"126","duration":null,"epoch":"TREATMENT","visit":null,"supplemental":{"AETRTEM":"Y"}},{"seq":"6","term":"DIZZINESS","decod":"Dizziness","llt":"Dizziness","hlt":"Dizziness and vertigo symptoms","hlgt":"Neurological signs and symptoms NEC","soc":"Nervous system disorders","bodsys":"Nervous system disorders","severity":"MILD","serious":"N","causality":"NOT RELATED","action_taken":"DOSE NOT CHANGED","outcome":"NOT RECOVERED/NOT RESOLVED","fatal":"N","hospitalization":"N","life_threatening":"N","onset_dtc":"2024-07-24","end_dtc":null,"onset_dy":"119","end_dy":null,"duration":null,"epoch":"TREATMENT","visit":null,"supplemental":{"AETRTEM":"Y"}},{"seq":"7","term":"ATRIAL FIBRILLATION","decod":"Atrial fibrillation","llt":"Atrial fibrillation","hlt":"Atrial arrhythmias","hlgt":"Cardiac arrhythmias","soc":"Cardiac disorders","bodsys":"Cardiac disorders","severity":"MODERATE","serious":"N","causality":"UNLIKELY RELATED","action_taken":"DOSE NOT CHANGED","outcome":"RECOVERED/RESOLVED","fatal":"N","hospitalization":"N","life_threatening":"N","onset_dtc":"2024-07-30","end_dtc":"2024-08-23","onset_dy":"125","end_dy":"149","duration":null,"epoch":"TREATMENT","visit":null,"supplemental":{"AETRTEM":"Y"}},{"seq":"8","term":"CARDIAC FAILURE","decod":"Cardiac failure","llt":"Cardiac failure","hlt":"Cardiac failure signs and symptoms","hlgt":"Heart failures","soc":"Cardiac disorders","bodsys":"Cardiac disorders","severity":"MODERATE","serious":"N","causality":"UNLIKELY RELATED","action_taken":"DOSE NOT CHANGED","outcome":"RECOVERED/RESOLVED","fatal":"N","hospitalization":"N","life_threatening":"N","onset_dtc":"2024-08-03","end_dtc":"2024-08-27","onset_dy":"129","end_dy":"153","duration":null,"epoch":"TREATMENT","visit":null,"supplemental":{"AETRTEM":"Y"}},{"seq":"9","term":"ATRIAL FIBRILLATION","decod":"Atrial fibrillation","llt":"Atrial fibrillation","hlt":"Atrial arrhythmias","hlgt":"Cardiac arrhythmias","soc":"Cardiac disorders","bodsys":"Cardiac disorders","severity":"MILD","serious":"N","causality":"NOT RELATED","action_taken":"DOSE NOT CHANGED","outcome":"RECOVERED/RESOLVED","fatal":"N","hospitalization":"N","life_threatening":"N","onset_dtc":"2024-08-19","end_dtc":"2024-09-02","onset_dy":"145","end_dy":"159","duration":null,"epoch":"TREATMENT","visit":null,"supplemental":{"AETRTEM":"Y"}},{"seq":"10","term":"CARDIAC FAILURE","decod":"Cardiac failure","llt":"Cardiac failure","hlt":"Cardiac failure signs and symptoms","hlgt":"Heart failures","soc":"Cardiac disorders","bodsys":"Cardiac disorders","severity":"MILD","serious":"N","causality":"UNLIKELY RELATED","action_taken":"DOSE NOT CHANGED","outcome":"RECOVERED/RESOLVED","fatal":"N","hospitalization":"N","life_threatening":"N","onset_dtc":"2024-08-20","end_dtc":"2024-08-27","onset_dy":"146","end_dy":"153","duration":null,"epoch":"TREATMENT","visit":null,"supplemental":{"AETRTEM":"Y"}},{"seq":"11","term":"BLOOD CREATININE INCREASED","decod":"Blood creatinine increased","llt":"Blood creatinine increased","hlt":"Renal function analyses","hlgt":"Renal and urinary tract investigations and urinalyses","soc":"Investigations","bodsys":"Investigations","severity":"SEVERE","serious":"Y","causality":"UNLIKELY RELATED","action_taken":"DOSE NOT CHANGED","outcome":"RECOVERED/RESOLVED","fatal":"N","hospitalization":"N","life_threatening":"N","onset_dtc":"2024-08-30","end_dtc":"2024-09-05","onset_dy":"156","end_dy":"162","duration":null,"epoch":"TREATMENT","visit":null,"supplemental":{"AETRTEM":"Y"}},{"seq":"12","term":"DIZZINESS","decod":"Dizziness","llt":"Dizziness","hlt":"Dizziness and vertigo symptoms","hlgt":"Neurological signs and symptoms NEC","soc":"Nervous system disorders","bodsys":"Nervous system disorders","severity":"MODERATE","serious":"N","causality":"UNLIKELY RELATED","action_taken":"DOSE NOT CHANGED","outcome":"RECOVERED/RESOLVED","fatal":"N","hospitalization":"N","life_threatening":"N","onset_dtc":"2024-09-22","end_dtc":"2024-10-17","onset_dy":"179","end_dy":"204","duration":null,"epoch":"TREATMENT","visit":null,"supplemental":{"AETRTEM":"Y"}},{"seq":"13","term":"HYPOTENSION","decod":"Hypotension","llt":"Hypotension","hlt":"Vascular hypotensive disorders","hlgt":"Vascular disorders NEC","soc":"Vascular disorders","bodsys":"Vascular disorders","severity":"SEVERE","serious":"Y","causality":"NOT RELATED","action_taken":"DOSE NOT CHANGED","outcome":"RECOVERED/RESOLVED","fatal":"N","hospitalization":"Y","life_threatening":"N","onset_dtc":"2024-10-03","end_dtc":"2024-10-25","onset_dy":"190","end_dy":"212","duration":null,"epoch":"TREATMENT","visit":null,"supplemental":{"AETRTEM":"Y"}},{"seq":"14","term":"FATIGUE","decod":"Fatigue","llt":"Fatigue","hlt":"Asthenic conditions","hlgt":"General system disorders NEC","soc":"General disorders and administration site conditions","bodsys":"General disorders and administration site conditions","severity":"SEVERE","serious":"Y","causality":"NOT RELATED","action_taken":"DOSE NOT CHANGED","outcome":"UNKNOWN","fatal":"N","hospitalization":"Y","life_threatening":"N","onset_dtc":"2024-10-11","end_dtc":"2024-11-04","onset_dy":"198","end_dy":"222","duration":null,"epoch":"TREATMENT","visit":null,"supplemental":{"AETRTEM":"Y"}},{"seq":"15","term":"FATIGUE","decod":"Fatigue","llt":"Fatigue","hlt":"Asthenic conditions","hlgt":"General system disorders NEC","soc":"General disorders and administration site conditions","bodsys":"General disorders and administration site conditions","severity":"MODERATE","serious":"N","causality":"NOT RELATED","action_taken":"DOSE NOT CHANGED","outcome":"RECOVERED/RESOLVED","fatal":"N","hospitalization":"N","life_threatening":"N","onset_dtc":"2024-11-12","end_dtc":"2024-11-24","onset_dy":"230","end_dy":"242","duration":null,"epoch":"TREATMENT","visit":null,"supplemental":{"AETRTEM":"Y"}},{"seq":"16","term":"HYPOGLYCAEMIA","decod":"Hypoglycaemia","llt":"Hypoglycaemia","hlt":"Hypoglycaemic conditions NEC","hlgt":"Glucose metabolism disorders (incl diabetes mellitus)","soc":"Metabolism and nutrition disorders","bodsys":"Metabolism and nutrition disorders","severity":"MILD","serious":"N","causality":"UNLIKELY RELATED","action_taken":"DOSE NOT CHANGED","outcome":"RECOVERED/RESOLVED","fatal":"N","hospitalization":"N","life_threatening":"N","onset_dtc":"2024-11-22","end_dtc":"2024-12-03","onset_dy":"240","end_dy":"251","duration":null,"epoch":"TREATMENT","visit":null,"supplemental":{"AETRTEM":"Y"}},{"seq":"17","term":"HYPOTENSION","decod":"Hypotension","llt":"Hypotension","hlt":"Vascular hypotensive disorders","hlgt":"Vascular disorders NEC","soc":"Vascular disorders","bodsys":"Vascular disorders","severity":"SEVERE","serious":"Y","causality":"NOT RELATED","action_taken":"DOSE NOT CHANGED","outcome":"RECOVERED/RESOLVED","fatal":"N","hospitalization":"Y","life_threatening":"N","onset_dtc":"2024-12-19","end_dtc":"2025-02-10","onset_dy":"267","end_dy":"320","duration":null,"epoch":"TREATMENT","visit":null,"supplemental":{"AETRTEM":"Y"}},{"seq":"18","term":"HYPOTENSION","decod":"Hypotension","llt":"Hypotension","hlt":"Vascular hypotensive disorders","hlgt":"Vascular disorders NEC","soc":"Vascular disorders","bodsys":"Vascular disorders","severity":"MODERATE","serious":"N","causality":"NOT RELATED","action_taken":"DOSE NOT CHANGED","outcome":"RECOVERED/RESOLVED","fatal":"N","hospitalization":"N","life_threatening":"N","onset_dtc":"2025-01-05","end_dtc":"2025-01-20","onset_dy":"284","end_dy":"299","duration":null,"epoch":"TREATMENT","visit":null,"supplemental":{"AETRTEM":"Y"}},{"seq":"19","term":"HEADACHE","decod":"Headache","llt":"Headache","hlt":"Headaches NEC","hlgt":"Headaches","soc":"Nervous system disorders","bodsys":"Nervous system disorders","severity":"SEVERE","serious":"Y","causality":"UNLIKELY RELATED","action_taken":"DOSE NOT CHANGED","outcome":"RECOVERED/RESOLVED","fatal":"N","hospitalization":"Y","life_threatening":"N","onset_dtc":"2025-03-22","end_dtc":"2025-03-31","onset_dy":"360","end_dy":"369","duration":null,"epoch":"TREATMENT","visit":null,"supplemental":{"AETRTEM":"Y"}},{"seq":"20","term":"GENITAL INFECTION FUNGAL","decod":"Genital infection fungal","llt":"Genital infection fungal","hlt":"Vulvovaginal infections","hlgt":"Infections NEC","soc":"Infections and infestations","bodsys":"Infections and infestations","severity":"SEVERE","serious":"Y","causality":"NOT RELATED","action_taken":"DOSE NOT CHANGED","outcome":"RECOVERED/RESOLVED","fatal":"N","hospitalization":"Y","life_threatening":"N","onset_dtc":"2025-03-31","end_dtc":"2025-05-14","onset_dy":"369","end_dy":"413","duration":null,"epoch":"TREATMENT","visit":null,"supplemental":{"AETRTEM":"Y"}},{"seq":"21","term":"FATIGUE","decod":"Fatigue","llt":"Fatigue","hlt":"Asthenic conditions","hlgt":"General system disorders NEC","soc":"General disorders and administration site conditions","bodsys":"General disorders and administration site conditions","severity":"MODERATE","serious":"N","causality":"NOT RELATED","action_taken":"DOSE NOT CHANGED","outcome":"RECOVERED/RESOLVED","fatal":"N","hospitalization":"N","life_threatening":"N","onset_dtc":"2025-05-11","end_dtc":"2025-05-18","onset_dy":"410","end_dy":"417","duration":null,"epoch":"TREATMENT","visit":null,"supplemental":{"AETRTEM":"Y"}},{"seq":"22","term":"NAUSEA","decod":"Nausea","llt":"Nausea","hlt":"Nausea and vomiting symptoms","hlgt":"Gastrointestinal signs and symptoms","soc":"Gastrointestinal disorders","bodsys":"Gastrointestinal disorders","severity":"SEVERE","serious":"Y","causality":"NOT RELATED","action_taken":"DOSE NOT CHANGED","outcome":"RECOVERING/RESOLVING","fatal":"N","hospitalization":"Y","life_threatening":"N","onset_dtc":"2025-05-24","end_dtc":"2025-05-27","onset_dy":"423","end_dy":"426","duration":null,"epoch":"TREATMENT","visit":null,"supplemental":{"AETRTEM":"Y"}},{"seq":"23","term":"DEHYDRATION","decod":"Dehydration","llt":"Dehydration","hlt":"Fluid intake decreased and dehydration","hlgt":"Fluid and electrolyte conditions NEC","soc":"Metabolism and nutrition disorders","bodsys":"Metabolism and nutrition disorders","severity":"MODERATE","serious":"N","causality":"NOT RELATED","action_taken":"DOSE NOT CHANGED","outcome":"RECOVERED/RESOLVED","fatal":"N","hospitalization":"N","life_threatening":"N","onset_dtc":"2025-05-25","end_dtc":"2025-06-15","onset_dy":"424","end_dy":"445","duration":null,"epoch":"TREATMENT","visit":null,"supplemental":{"AETRTEM":"Y"}},{"seq":"24","term":"HYPOTENSION","decod":"Hypotension","llt":"Hypotension","hlt":"Vascular hypotensive disorders","hlgt":"Vascular disorders NEC","soc":"Vascular disorders","bodsys":"Vascular disorders","severity":"MODERATE","serious":"N","causality":"UNLIKELY RELATED","action_taken":"DOSE NOT CHANGED","outcome":"RECOVERED/RESOLVED","fatal":"N","hospitalization":"N","life_threatening":"N","onset_dtc":"2025-07-07","end_dtc":"2025-07-21","onset_dy":"467","end_dy":"481","duration":null,"epoch":"TREATMENT","visit":null,"supplemental":{"AETRTEM":"Y"}},{"seq":"25","term":"BLOOD CREATININE INCREASED","decod":"Blood creatinine increased","llt":"Blood creatinine increased","hlt":"Renal function analyses","hlgt":"Renal and urinary tract investigations and urinalyses","soc":"Investigations","bodsys":"Investigations","severity":"MODERATE","serious":"N","causality":"NOT RELATED","action_taken":"DOSE NOT CHANGED","outcome":"RECOVERED/RESOLVED","fatal":"N","hospitalization":"N","life_threatening":"N","onset_dtc":"2025-07-24","end_dtc":"2025-08-18","onset_dy":"484","end_dy":"509","duration":null,"epoch":"TREATMENT","visit":null,"supplemental":{"AETRTEM":"Y"}},{"seq":"26","term":"HEADACHE","decod":"Headache","llt":"Headache","hlt":"Headaches NEC","hlgt":"Headaches","soc":"Nervous system disorders","bodsys":"Nervous system disorders","severity":"MILD","serious":"N","causality":"NOT RELATED","action_taken":"DOSE NOT CHANGED","outcome":"RECOVERED/RESOLVED","fatal":"N","hospitalization":"N","life_threatening":"N","onset_dtc":"2025-07-29","end_dtc":"2025-07-31","onset_dy":"489","end_dy":"491","duration":null,"epoch":"TREATMENT","visit":null,"supplemental":{"AETRTEM":"Y"}},{"seq":"27","term":"HEADACHE","decod":"Headache","llt":"Headache","hlt":"Headaches NEC","hlgt":"Headaches","soc":"Nervous system disorders","bodsys":"Nervous system disorders","severity":"MILD","serious":"N","causality":"NOT RELATED","action_taken":"DOSE NOT CHANGED","outcome":"RECOVERED/RESOLVED","fatal":"N","hospitalization":"N","life_threatening":"N","onset_dtc":"2025-08-18","end_dtc":"2025-08-21","onset_dy":"509","end_dy":"512","duration":null,"epoch":"TREATMENT","visit":null,"supplemental":{"AETRTEM":"Y"}},{"seq":"28","term":"ATRIAL FIBRILLATION","decod":"Atrial fibrillation","llt":"Atrial fibrillation","hlt":"Atrial arrhythmias","hlgt":"Cardiac arrhythmias","soc":"Cardiac disorders","bodsys":"Cardiac disorders","severity":"SEVERE","serious":"Y","causality":"UNLIKELY RELATED","action_taken":"DOSE NOT CHANGED","outcome":"RECOVERED/RESOLVED","fatal":"N","hospitalization":"Y","life_threatening":"N","onset_dtc":"2025-10-02","end_dtc":"2025-11-03","onset_dy":"554","end_dy":"586","duration":null,"epoch":"TREATMENT","visit":null,"supplemental":{"AETRTEM":"Y"}},{"seq":"29","term":"URINARY TRACT INFECTION","decod":"Urinary tract infection","llt":"Urinary tract infection","hlt":"Urinary tract infections","hlgt":"Infections NEC","soc":"Infections and infestations","bodsys":"Infections and infestations","severity":"MODERATE","serious":"N","causality":"NOT RELATED","action_taken":"DOSE NOT CHANGED","outcome":"NOT RECOVERED/NOT RESOLVED","fatal":"N","hospitalization":"N","life_threatening":"N","onset_dtc":"2025-10-16","end_dtc":null,"onset_dy":"568","end_dy":null,"duration":null,"epoch":"TREATMENT","visit":null,"supplemental":{"AETRTEM":"Y"}},{"seq":"30","term":"ACUTE KIDNEY INJURY","decod":"Acute kidney injury","llt":"Acute kidney injury","hlt":"Renal disorders NEC","hlgt":"Renal disorders (excl nephropathies)","soc":"Renal and urinary disorders","bodsys":"Renal and urinary disorders","severity":"MODERATE","serious":"N","causality":"NOT RELATED","action_taken":"DOSE NOT CHANGED","outcome":"RECOVERING/RESOLVING","fatal":"N","hospitalization":"N","life_threatening":"N","onset_dtc":"2025-11-07","end_dtc":"2025-12-05","onset_dy":"590","end_dy":"618","duration":null,"epoch":"TREATMENT","visit":null,"supplemental":{"AETRTEM":"Y"}},{"seq":"31","term":"FATIGUE","decod":"Fatigue","llt":"Fatigue","hlt":"Asthenic conditions","hlgt":"General system disorders NEC","soc":"General disorders and administration site conditions","bodsys":"General disorders and administration site conditions","severity":"MODERATE","serious":"N","causality":"NOT RELATED","action_taken":"DOSE NOT CHANGED","outcome":"RECOVERED/RESOLVED","fatal":"N","hospitalization":"N","life_threatening":"N","onset_dtc":"2025-11-13","end_dtc":"2025-11-30","onset_dy":"596","end_dy":"613","duration":null,"epoch":"TREATMENT","visit":null,"supplemental":{"AETRTEM":"Y"}},{"seq":"32","term":"ACUTE KIDNEY INJURY","decod":"Acute kidney injury","llt":"Acute kidney injury","hlt":"Renal disorders NEC","hlgt":"Renal disorders (excl nephropathies)","soc":"Renal and urinary disorders","bodsys":"Renal and urinary disorders","severity":"MODERATE","serious":"N","causality":"NOT RELATED","action_taken":"DOSE NOT CHANGED","outcome":"RECOVERING/RESOLVING","fatal":"N","hospitalization":"N","life_threatening":"N","onset_dtc":"2025-12-13","end_dtc":"2025-12-22","onset_dy":"626","end_dy":"635","duration":null,"epoch":"TREATMENT","visit":null,"supplemental":{"AETRTEM":"Y"}},{"seq":"33","term":"HEADACHE","decod":"Headache","llt":"Headache","hlt":"Headaches NEC","hlgt":"Headaches","soc":"Nervous system disorders","bodsys":"Nervous system disorders","severity":"MILD","serious":"N","causality":"NOT RELATED","action_taken":"DOSE NOT CHANGED","outcome":"NOT RECOVERED/NOT RESOLVED","fatal":"N","hospitalization":"N","life_threatening":"N","onset_dtc":"2026-02-11","end_dtc":null,"onset_dy":"686","end_dy":null,"duration":null,"epoch":"TREATMENT","visit":null,"supplemental":{"AETRTEM":"Y"}},{"seq":"34","term":"HEADACHE","decod":"Headache","llt":"Headache","hlt":"Headaches NEC","hlgt":"Headaches","soc":"Nervous system disorders","bodsys":"Nervous system disorders","severity":"MILD","serious":"N","causality":"NOT RELATED","action_taken":"DOSE NOT CHANGED","outcome":"RECOVERED/RESOLVED","fatal":"N","hospitalization":"N","life_threatening":"N","onset_dtc":"2026-02-12","end_dtc":"2026-02-15","onset_dy":"687","end_dy":"690","duration":null,"epoch":"TREATMENT","visit":null,"supplemental":{"AETRTEM":"Y"}},{"seq":"35","term":"HYPOGLYCAEMIA","decod":"Hypoglycaemia","llt":"Hypoglycaemia","hlt":"Hypoglycaemic conditions NEC","hlgt":"Glucose metabolism disorders (incl diabetes mellitus)","soc":"Metabolism and nutrition disorders","bodsys":"Metabolism and nutrition disorders","severity":"MILD","serious":"N","causality":"NOT RELATED","action_taken":"DOSE NOT CHANGED","outcome":"RECOVERING/RESOLVING","fatal":"N","hospitalization":"N","life_threatening":"N","onset_dtc":"2026-02-21","end_dtc":"2026-02-25","onset_dy":"696","end_dy":"700","duration":null,"epoch":"TREATMENT","visit":null,"supplemental":{"AETRTEM":"Y"}},{"seq":"36","term":"ACUTE KIDNEY INJURY","decod":"Acute kidney injury","llt":"Acute kidney injury","hlt":"Renal disorders NEC","hlgt":"Renal disorders (excl nephropathies)","soc":"Renal and urinary disorders","bodsys":"Renal and urinary disorders","severity":"SEVERE","serious":"Y","causality":"NOT RELATED","action_taken":"NOT APPLICABLE","outcome":"FATAL","fatal":"Y","hospitalization":"N","life_threatening":"Y","onset_dtc":"2026-02-24","end_dtc":"2026-02-25","onset_dy":"699","end_dy":"700","duration":null,"epoch":"TREATMENT","visit":null,"supplemental":{"AETRTEM":"Y"}}]},"section_8_laboratory_results":{"summary":{"total_records":28,"abnormal_count":6,"abnormal_pct":21.4},"shift_summary":[{"testcd":"ALT","baseline_value":16.89,"baseline_nrind":"NORMAL","worst_post_baseline_value":18.05,"worst_post_baseline_nrind":"NORMAL","worst_visit":"MONTH 12"},{"testcd":"AST","baseline_value":16.38,"baseline_nrind":"NORMAL","worst_post_baseline_value":14.7,"worst_post_baseline_nrind":"NORMAL","worst_visit":"BASELINE"},{"testcd":"CREAT","baseline_value":41.62,"baseline_nrind":"LOW","worst_post_baseline_value":44.83,"worst_post_baseline_nrind":"NORMAL","worst_visit":"MONTH 6"},{"testcd":"GLUC","baseline_value":6.07,"baseline_nrind":"HIGH","worst_post_baseline_value":6.0,"worst_post_baseline_nrind":"HIGH","worst_visit":"MONTH 6"},{"testcd":"HGB","baseline_value":122.71,"baseline_nrind":"NORMAL","worst_post_baseline_value":121.16,"worst_post_baseline_nrind":"NORMAL","worst_visit":"MONTH 6"},{"testcd":"PLAT","baseline_value":327.26,"baseline_nrind":"NORMAL","worst_post_baseline_value":323.81,"worst_post_baseline_nrind":"NORMAL","worst_visit":"BASELINE"},{"testcd":"WBC","baseline_value":9.25,"baseline_nrind":"NORMAL","worst_post_baseline_value":8.49,"worst_post_baseline_nrind":"NORMAL","worst_visit":"MONTH 12"}],"results":[{"seq":"1","testcd":"ALT","test":"Alanine Aminotransferase","cat":"CHEMISTRY","orres":"16.89","orresu":"U/L","stresc":"16.89","stresn":"16.89","stresu":"U/L","stnrlo":"7","stnrhi":"56","nrind":"NORMAL","fast":null,"dtc":"2024-02-23","dy":"-34","visit":"SCREENING","visitnum":"1.0","epoch":"SCREENING","spec":null,"method":null},{"seq":"2","testcd":"AST","test":"Aspartate Aminotransferase","cat":"CHEMISTRY","orres":"16.38","orresu":"U/L","stresc":"16.38","stresn":"16.38","stresu":"U/L","stnrlo":"10","stnrhi":"40","nrind":"NORMAL","fast":null,"dtc":"2024-02-23","dy":"-34","visit":"SCREENING","visitnum":"1.0","epoch":"SCREENING","spec":null,"method":null},{"seq":"3","testcd":"CREAT","test":"Creatinine","cat":"CHEMISTRY","orres":"41.62","orresu":"umol/L","stresc":"41.62","stresn":"41.62","stresu":"umol/L","stnrlo":"44","stnrhi":"80","nrind":"LOW","fast":null,"dtc":"2024-02-23","dy":"-34","visit":"SCREENING","visitnum":"1.0","epoch":"SCREENING","spec":null,"method":null},{"seq":"4","testcd":"GLUC","test":"Glucose","cat":"CHEMISTRY","orres":"6.07","orresu":"mmol/L","stresc":"6.07","stresn":"6.07","stresu":"mmol/L","stnrlo":"3.9","stnrhi":"5.6","nrind":"HIGH","fast":null,"dtc":"2024-02-23","dy":"-34","visit":"SCREENING","visitnum":"1.0","epoch":"SCREENING","spec":null,"method":null},{"seq":"5","testcd":"HGB","test":"Hemoglobin","cat":"HEMATOLOGY","orres":"122.71","orresu":"g/L","stresc":"122.71","stresn":"122.71","stresu":"g/L","stnrlo":"120","stnrhi":"155","nrind":"NORMAL","fast":null,"dtc":"2024-02-23","dy":"-34","visit":"SCREENING","visitnum":"1.0","epoch":"SCREENING","spec":null,"method":null},{"seq":"6","testcd":"PLAT","test":"Platelets","cat":"HEMATOLOGY","orres":"327.26","orresu":"10^9/L","stresc":"327.26","stresn":"327.26","stresu":"10^9/L","stnrlo":"150","stnrhi":"400","nrind":"NORMAL","fast":null,"dtc":"2024-02-23","dy":"-34","visit":"SCREENING","visitnum":"1.0","epoch":"SCREENING","spec":null,"method":null},{"seq":"7","testcd":"WBC","test":"Leukocytes","cat":"HEMATOLOGY","orres":"9.25","orresu":"10^9/L","stresc":"9.25","stresn":"9.25","stresu":"10^9/L","stnrlo":"4.0","stnrhi":"11.0","nrind":"NORMAL","fast":null,"dtc":"2024-02-23","dy":"-34","visit":"SCREENING","visitnum":"1.0","epoch":"SCREENING","spec":null,"method":null},{"seq":"8","testcd":"ALT","test":"Alanine Aminotransferase","cat":"CHEMISTRY","orres":"17.48","orresu":"U/L","stresc":"17.48","stresn":"17.48","stresu":"U/L","stnrlo":"7","stnrhi":"56","nrind":"NORMAL","fast":null,"dtc":"2024-03-28","dy":"1","visit":"BASELINE","visitnum":"2.0","epoch":"TREATMENT","spec":null,"method":null},{"seq":"9","testcd":"AST","test":"Aspartate Aminotransferase","cat":"CHEMISTRY","orres":"14.7","orresu":"U/L","stresc":"14.7","stresn":"14.7","stresu":"U/L","stnrlo":"10","stnrhi":"40","nrind":"NORMAL","fast":null,"dtc":"2024-03-28","dy":"1","visit":"BASELINE","visitnum":"2.0","epoch":"TREATMENT","spec":null,"method":null},{"seq":"10","testcd":"CREAT","test":"Creatinine","cat":"CHEMISTRY","orres":null,"orresu":null,"stresc":null,"stresn":null,"stresu":null,"stnrlo":null,"stnrhi":null,"nrind":null,"fast":null,"dtc":"2024-03-28","dy":"1","visit":"BASELINE","visitnum":"2.0","epoch":"TREATMENT","spec":null,"method":null},{"seq":"11","testcd":"GLUC","test":"Glucose","cat":"CHEMISTRY","orres":"5.98","orresu":"mmol/L","stresc":"5.98","stresn":"5.98","stresu":"mmol/L","stnrlo":"3.9","stnrhi":"5.6","nrind":"HIGH","fast":null,"dtc":"2024-03-28","dy":"1","visit":"BASELINE","visitnum":"2.0","epoch":"TREATMENT","spec":null,"method":null},{"seq":"12","testcd":"HGB","test":"Hemoglobin","cat":"HEMATOLOGY","orres":"122.97","orresu":"g/L","stresc":"122.97","stresn":"122.97","stresu":"g/L","stnrlo":"120","stnrhi":"155","nrind":"NORMAL","fast":null,"dtc":"2024-03-28","dy":"1","visit":"BASELINE","visitnum":"2.0","epoch":"TREATMENT","spec":null,"method":null},{"seq":"13","testcd":"PLAT","test":"Platelets","cat":"HEMATOLOGY","orres":"323.81","orresu":"10^9/L","stresc":"323.81","stresn":"323.81","stresu":"10^9/L","stnrlo":"150","stnrhi":"400","nrind":"NORMAL","fast":null,"dtc":"2024-03-28","dy":"1","visit":"BASELINE","visitnum":"2.0","epoch":"TREATMENT","spec":null,"method":null},{"seq":"14","testcd":"WBC","test":"Leukocytes","cat":"HEMATOLOGY","orres":"8.25","orresu":"10^9/L","stresc":"8.25","stresn":"8.25","stresu":"10^9/L","stnrlo":"4.0","stnrhi":"11.0","nrind":"NORMAL","fast":null,"dtc":"2024-03-28","dy":"1","visit":"BASELINE","visitnum":"2.0","epoch":"TREATMENT","spec":null,"method":null},{"seq":"15","testcd":"ALT","test":"Alanine Aminotransferase","cat":"CHEMISTRY","orres":"17.59","orresu":"U/L","stresc":"17.59","stresn":"17.59","stresu":"U/L","stnrlo":"7","stnrhi":"56","nrind":"NORMAL","fast":null,"dtc":"2024-10-02","dy":"189","visit":"MONTH 6","visitnum":"5.0","epoch":"TREATMENT","spec":null,"method":null},{"seq":"16","testcd":"AST","test":"Aspartate Aminotransferase","cat":"CHEMISTRY","orres":"13.53","orresu":"U/L","stresc":"13.53","stresn":"13.53","stresu":"U/L","stnrlo":"10","stnrhi":"40","nrind":"NORMAL","fast":null,"dtc":"2024-10-02","dy":"189","visit":"MONTH 6","visitnum":"5.0","epoch":"TREATMENT","spec":null,"method":null},{"seq":"17","testcd":"CREAT","test":"Creatinine","cat":"CHEMISTRY","orres":"44.83","orresu":"umol/L","stresc":"44.83","stresn":"44.83","stresu":"umol/L","stnrlo":"44","stnrhi":"80","nrind":"NORMAL","fast":null,"dtc":"2024-10-02","dy":"189","visit":"MONTH 6","visitnum":"5.0","epoch":"TREATMENT","spec":null,"method":null},{"seq":"18","testcd":"GLUC","test":"Glucose","cat":"CHEMISTRY","orres":"6.0","orresu":"mmol/L","stresc":"6.0","stresn":"6.0","stresu":"mmol/L","stnrlo":"3.9","stnrhi":"5.6","nrind":"HIGH","fast":null,"dtc":"2024-10-02","dy":"189","visit":"MONTH 6","visitnum":"5.0","epoch":"TREATMENT","spec":null,"method":null},{"seq":"19","testcd":"HGB","test":"Hemoglobin","cat":"HEMATOLOGY","orres":"121.16","orresu":"g/L","stresc":"121.16","stresn":"121.16","stresu":"g/L","stnrlo":"120","stnrhi":"155","nrind":"NORMAL","fast":null,"dtc":"2024-10-02","dy":"189","visit":"MONTH 6","visitnum":"5.0","epoch":"TREATMENT","spec":null,"method":null},{"seq":"20","testcd":"PLAT","test":"Platelets","cat":"HEMATOLOGY","orres":"320.66","orresu":"10^9/L","stresc":"320.66","stresn":"320.66","stresu":"10^9/L","stnrlo":"150","stnrhi":"400","nrind":"NORMAL","fast":null,"dtc":"2024-10-02","dy":"189","visit":"MONTH 6","visitnum":"5.0","epoch":"TREATMENT","spec":null,"method":null},{"seq":"21","testcd":"WBC","test":"Leukocytes","cat":"HEMATOLOGY","orres":"7.64","orresu":"10^9/L","stresc":"7.64","stresn":"7.64","stresu":"10^9/L","stnrlo":"4.0","stnrhi":"11.0","nrind":"NORMAL","fast":null,"dtc":"2024-10-02","dy":"189","visit":"MONTH 6","visitnum":"5.0","epoch":"TREATMENT","spec":null,"method":null},{"seq":"22","testcd":"ALT","test":"Alanine Aminotransferase","cat":"CHEMISTRY","orres":"18.05","orresu":"U/L","stresc":"18.05","stresn":"18.05","stresu":"U/L","stnrlo":"7","stnrhi":"56","nrind":"NORMAL","fast":null,"dtc":"2025-03-30","dy":"368","visit":"MONTH 12","visitnum":"6.0","epoch":"TREATMENT","spec":null,"method":null},{"seq":"23","testcd":"AST","test":"Aspartate Aminotransferase","cat":"CHEMISTRY","orres":"11.54","orresu":"U/L","stresc":"11.54","stresn":"11.54","stresu":"U/L","stnrlo":"10","stnrhi":"40","nrind":"NORMAL","fast":null,"dtc":"2025-03-30","dy":"368","visit":"MONTH 12","visitnum":"6.0","epoch":"TREATMENT","spec":null,"method":null},{"seq":"24","testcd":"CREAT","test":"Creatinine","cat":"CHEMISTRY","orres":"43.74","orresu":"umol/L","stresc":"43.74","stresn":"43.74","stresu":"umol/L","stnrlo":"44","stnrhi":"80","nrind":"LOW","fast":null,"dtc":"2025-03-30","dy":"368","visit":"MONTH 12","visitnum":"6.0","epoch":"TREATMENT","spec":null,"method":null},{"seq":"25","testcd":"GLUC","test":"Glucose","cat":"CHEMISTRY","orres":"5.89","orresu":"mmol/L","stresc":"5.89","stresn":"5.89","stresu":"mmol/L","stnrlo":"3.9","stnrhi":"5.6","nrind":"HIGH","fast":null,"dtc":"2025-03-30","dy":"368","visit":"MONTH 12","visitnum":"6.0","epoch":"TREATMENT","spec":null,"method":null},{"seq":"26","testcd":"HGB","test":"Hemoglobin","cat":"HEMATOLOGY","orres":"121.71","orresu":"g/L","stresc":"121.71","stresn":"121.71","stresu":"g/L","stnrlo":"120","stnrhi":"155","nrind":"NORMAL","fast":null,"dtc":"2025-03-30","dy":"368","visit":"MONTH 12","visitnum":"6.0","epoch":"TREATMENT","spec":null,"method":null},{"seq":"27","testcd":"PLAT","test":"Platelets","cat":"HEMATOLOGY","orres":"301.61","orresu":"10^9/L","stresc":"301.61","stresn":"301.61","stresu":"10^9/L","stnrlo":"150","stnrhi":"400","nrind":"NORMAL","fast":null,"dtc":"2025-03-30","dy":"368","visit":"MONTH 12","visitnum":"6.0","epoch":"TREATMENT","spec":null,"method":null},{"seq":"28","testcd":"WBC","test":"Leukocytes","cat":"HEMATOLOGY","orres":"8.49","orresu":"10^9/L","stresc":"8.49","stresn":"8.49","stresu":"10^9/L","stnrlo":"4.0","stnrhi":"11.0","nrind":"NORMAL","fast":null,"dtc":"2025-03-30","dy":"368","visit":"MONTH 12","visitnum":"6.0","epoch":"TREATMENT","spec":null,"method":null}]},"section_9_vital_signs":{"summary":{"total_records":61},"trends":{"BMI":[{"visit":"SCREENING","visitnum":"1.0","dtc":"2024-02-23","value":"41.7","unit":"kg/m2"},{"visit":"BASELINE","visitnum":"2.0","dtc":"2024-03-28","value":"42.1","unit":"kg/m2"},{"visit":"WEEK 4","visitnum":"3.0","dtc":"2024-04-26","value":"41.6","unit":"kg/m2"},{"visit":"WEEK 12","visitnum":"4.0","dtc":"2024-06-26","value":"42.2","unit":"kg/m2"},{"visit":"MONTH 6","visitnum":"5.0","dtc":"2024-10-02","value":"41.9","unit":"kg/m2"},{"visit":"MONTH 12","visitnum":"6.0","dtc":"2025-03-30","value":"42.2","unit":"kg/m2"},{"visit":"MONTH 18","visitnum":"7.0","dtc":"2025-09-24","value":"42.7","unit":"kg/m2"}],"DIABP":[{"visit":"SCREENING","visitnum":"1.0","dtc":"2024-02-23","value":"91.4","unit":"mmHg"},{"visit":"BASELINE","visitnum":"2.0","dtc":"2024-03-28T07:45","value":"93.5","unit":"mmHg"},{"visit":"BASELINE","visitnum":"2.0","dtc":"2024-03-28T09:00","value":"94.2","unit":"mmHg"},{"visit":"WEEK 4","visitnum":"3.0","dtc":"2024-04-26","value":"92.1","unit":"mmHg"},{"visit":"WEEK 12","visitnum":"4.0","dtc":"2024-06-26","value":"91.4","unit":"mmHg"},{"visit":"MONTH 6","visitnum":"5.0","dtc":"2024-10-02","value":"73.3","unit":"mmHg"},{"visit":"MONTH 12","visitnum":"6.0","dtc":"2025-03-30","value":"91.2","unit":"mmHg"},{"visit":"MONTH 18","visitnum":"7.0","dtc":"2025-09-24","value":"92.8","unit":"mmHg"}],"HEIGHT":[{"visit":"SCREENING","visitnum":"1.0","dtc":"2024-02-23","value":"151.6","unit":"cm"},{"visit":"BASELINE","visitnum":"2.0","dtc":"2024-03-28","value":"151.8","unit":"cm"},{"visit":"WEEK 4","visitnum":"3.0","dtc":"2024-04-26","value":"152.1","unit":"cm"},{"visit":"WEEK 12","visitnum":"4.0","dtc":"2024-06-26","value":"151.9","unit":"cm"},{"visit":"MONTH 6","visitnum":"5.0","dtc":"2024-10-02","value":"151.4","unit":"cm"},{"visit":"MONTH 12","visitnum":"6.0","dtc":"2025-03-30","value":"150.9","unit":"cm"},{"visit":"MONTH 18","visitnum":"7.0","dtc":"2025-09-24","value":"150.4","unit":"cm"}],"PULSE":[{"visit":"SCREENING","visitnum":"1.0","dtc":"2024-02-23","value":"66.2","unit":"beats/min"},{"visit":"BASELINE","visitnum":"2.0","dtc":"2024-03-28T07:45","value":"68.1","unit":"beats/min"},{"visit":"BASELINE","visitnum":"2.0","dtc":"2024-03-28T09:00","value":"68.1","unit":"beats/min"},{"visit":"WEEK 4","visitnum":"3.0","dtc":"2024-04-26","value":"72.3","unit":"beats/min"},{"visit":"WEEK 12","visitnum":"4.0","dtc":"2024-06-26","value":"75.0","unit":"beats/min"},{"visit":"MONTH 6","visitnum":"5.0","dtc":"2024-10-02","value":"77.9","unit":"beats/min"},{"visit":"MONTH 18","visitnum":"7.0","dtc":"2025-09-24","value":"70.9","unit":"beats/min"}],"RESP":[{"visit":"SCREENING","visitnum":"1.0","dtc":"2024-02-23","value":"20.1","unit":"breaths/min"},{"visit":"BASELINE","visitnum":"2.0","dtc":"2024-03-28T07:45","value":"20.5","unit":"breaths/min"},{"visit":"BASELINE","visitnum":"2.0","dtc":"2024-03-28T09:00","value":"21.2","unit":"breaths/min"},{"visit":"WEEK 4","visitnum":"3.0","dtc":"2024-04-26","value":"22.2","unit":"breaths/min"},{"visit":"WEEK 12","visitnum":"4.0","dtc":"2024-06-26","value":"22.7","unit":"breaths/min"},{"visit":"MONTH 6","visitnum":"5.0","dtc":"2024-10-02","value":"22.9","unit":"breaths/min"},{"visit":"MONTH 12","visitnum":"6.0","dtc":"2025-03-30","value":"23.9","unit":"breaths/min"},{"visit":"MONTH 18","visitnum":"7.0","dtc":"2025-09-24","value":"24.7","unit":"breaths/min"}],"SYSBP":[{"visit":"SCREENING","visitnum":"1.0","dtc":"2024-02-23","value":"136.6","unit":"mmHg"},{"visit":"BASELINE","visitnum":"2.0","dtc":"2024-03-28T07:45","value":"137.8","unit":"mmHg"},{"visit":"BASELINE","visitnum":"2.0","dtc":"2024-03-28T09:00","value":"138.5","unit":"mmHg"},{"visit":"WEEK 4","visitnum":"3.0","dtc":"2024-04-26","value":"137.2","unit":"mmHg"},{"visit":"WEEK 12","visitnum":"4.0","dtc":"2024-06-26","value":"137.6","unit":"mmHg"},{"visit":"MONTH 6","visitnum":"5.0","dtc":"2024-10-02","value":"109.8","unit":"mmHg"},{"visit":"MONTH 12","visitnum":"6.0","dtc":"2025-03-30","value":"140.8","unit":"mmHg"},{"visit":"MONTH 18","visitnum":"7.0","dtc":"2025-09-24","value":"140.9","unit":"mmHg"}],"TEMP":[{"visit":"SCREENING","visitnum":"1.0","dtc":"2024-02-23","value":"36.8","unit":"C"},{"visit":"BASELINE","visitnum":"2.0","dtc":"2024-03-28T07:45","value":"36.9","unit":"C"},{"visit":"BASELINE","visitnum":"2.0","dtc":"2024-03-28T09:00","value":"37.5","unit":"C"},{"visit":"WEEK 4","visitnum":"3.0","dtc":"2024-04-26","value":"36.9","unit":"C"},{"visit":"WEEK 12","visitnum":"4.0","dtc":"2024-06-26","value":"36.8","unit":"C"},{"visit":"MONTH 6","visitnum":"5.0","dtc":"2024-10-02","value":"36.7","unit":"C"},{"visit":"MONTH 12","visitnum":"6.0","dtc":"2025-03-30","value":"36.8","unit":"C"},{"visit":"MONTH 18","visitnum":"7.0","dtc":"2025-09-24","value":"36.9","unit":"C"}],"WEIGHT":[{"visit":"SCREENING","visitnum":"1.0","dtc":"2024-02-23","value":"95.8","unit":"kg"},{"visit":"BASELINE","visitnum":"2.0","dtc":"2024-03-28","value":"97.1","unit":"kg"},{"visit":"WEEK 4","visitnum":"3.0","dtc":"2024-04-26","value":"96.3","unit":"kg"},{"visit":"WEEK 12","visitnum":"4.0","dtc":"2024-06-26","value":"97.3","unit":"kg"},{"visit":"MONTH 6","visitnum":"5.0","dtc":"2024-10-02","value":"96.0","unit":"kg"},{"visit":"MONTH 12","visitnum":"6.0","dtc":"2025-03-30","value":"96.1","unit":"kg"},{"visit":"MONTH 18","visitnum":"7.0","dtc":"2025-09-24","value":"96.5","unit":"kg"}]},"results":[{"seq":"1","testcd":"BMI","test":"BMI","cat":null,"orres":null,"orresu":null,"stresc":"41.7","stresn":"41.7","stresu":"kg/m2","stnrlo":null,"stnrhi":null,"nrind":null,"pos":null,"loc":null,"dtc":"2024-02-23","dy":"-34","visit":"SCREENING","visitnum":"1.0","epoch":"SCREENING"},{"seq":"2","testcd":"DIABP","test":"Diastolic Blood Pressure","cat":null,"orres":"91.4","orresu":"mmHg","stresc":"91.4","stresn":"91.4","stresu":"mmHg","stnrlo":null,"stnrhi":null,"nrind":null,"pos":null,"loc":null,"dtc":"2024-02-23","dy":"-34","visit":"SCREENING","visitnum":"1.0","epoch":"SCREENING"},{"seq":"3","testcd":"HEIGHT","test":"Height","cat":null,"orres":"151.6","orresu":"cm","stresc":"151.6","stresn":"151.6","stresu":"cm","stnrlo":null,"stnrhi":null,"nrind":null,"pos":null,"loc":null,"dtc":"2024-02-23","dy":"-34","visit":"SCREENING","visitnum":"1.0","epoch":"SCREENING"},{"seq":"4","testcd":"PULSE","test":"Pulse Rate","cat":null,"orres":"66.2","orresu":"beats/min","stresc":"66.2","stresn":"66.2","stresu":"beats/min","stnrlo":null,"stnrhi":null,"nrind":null,"pos":null,"loc":null,"dtc":"2024-02-23","dy":"-34","visit":"SCREENING","visitnum":"1.0","epoch":"SCREENING"},{"seq":"5","testcd":"RESP","test":"Respiratory Rate","cat":null,"orres":"20.1","orresu":"breaths/min","stresc":"20.1","stresn":"20.1","stresu":"breaths/min","stnrlo":null,"stnrhi":null,"nrind":null,"pos":null,"loc":null,"dtc":"2024-02-23","dy":"-34","visit":"SCREENING","visitnum":"1.0","epoch":"SCREENING"},{"seq":"6","testcd":"SYSBP","test":"Systolic Blood Pressure","cat":null,"orres":"136.6","orresu":"mmHg","stresc":"136.6","stresn":"136.6","stresu":"mmHg","stnrlo":null,"stnrhi":null,"nrind":null,"pos":null,"loc":null,"dtc":"2024-02-23","dy":"-34","visit":"SCREENING","visitnum":"1.0","epoch":"SCREENING"},{"seq":"7","testcd":"TEMP","test":"Temperature","cat":null,"orres":"36.8","orresu":"C","stresc":"36.8","stresn":"36.8","stresu":"C","stnrlo":null,"stnrhi":null,"nrind":null,"pos":null,"loc":null,"dtc":"2024-02-23","dy":"-34","visit":"SCREENING","visitnum":"1.0","epoch":"SCREENING"},{"seq":"8","testcd":"WEIGHT","test":"Weight","cat":null,"orres":"95.8","orresu":"kg","stresc":"95.8","stresn":"95.8","stresu":"kg","stnrlo":null,"stnrhi":null,"nrind":null,"pos":null,"loc":null,"dtc":"2024-02-23","dy":"-34","visit":"SCREENING","visitnum":"1.0","epoch":"SCREENING"},{"seq":"9","testcd":"BMI","test":"BMI","cat":null,"orres":null,"orresu":null,"stresc":"42.1","stresn":"42.1","stresu":"kg/m2","stnrlo":null,"stnrhi":null,"nrind":null,"pos":null,"loc":null,"dtc":"2024-03-28","dy":"1","visit":"BASELINE","visitnum":"2.0","epoch":"TREATMENT"},{"seq":"12","testcd":"HEIGHT","test":"Height","cat":null,"orres":"151.8","orresu":"cm","stresc":"151.8","stresn":"151.8","stresu":"cm","stnrlo":null,"stnrhi":null,"nrind":null,"pos":null,"loc":null,"dtc":"2024-03-28","dy":"1","visit":"BASELINE","visitnum":"2.0","epoch":"TREATMENT"},{"seq":"21","testcd":"WEIGHT","test":"Weight","cat":null,"orres":"97.1","orresu":"kg","stresc":"97.1","stresn":"97.1","stresu":"kg","stnrlo":null,"stnrhi":null,"nrind":null,"pos":null,"loc":null,"dtc":"2024-03-28","dy":"1","visit":"BASELINE","visitnum":"2.0","epoch":"TREATMENT"},{"seq":"10","testcd":"DIABP","test":"Diastolic Blood Pressure","cat":null,"orres":"93.5","orresu":"mmHg","stresc":"93.5","stresn":"93.5","stresu":"mmHg","stnrlo":null,"stnrhi":null,"nrind":null,"pos":null,"loc":null,"dtc":"2024-03-28T07:45","dy":"1","visit":"BASELINE","visitnum":"2.0","epoch":"TREATMENT"},{"seq":"13","testcd":"PULSE","test":"Pulse Rate","cat":null,"orres":"68.1","orresu":"beats/min","stresc":"68.1","stresn":"68.1","stresu":"beats/min","stnrlo":null,"stnrhi":null,"nrind":null,"pos":null,"loc":null,"dtc":"2024-03-28T07:45","dy":"1","visit":"BASELINE","visitnum":"2.0","epoch":"TREATMENT"},{"seq":"15","testcd":"RESP","test":"Respiratory Rate","cat":null,"orres":"20.5","orresu":"breaths/min","stresc":"20.5","stresn":"20.5","stresu":"breaths/min","stnrlo":null,"stnrhi":null,"nrind":null,"pos":null,"loc":null,"dtc":"2024-03-28T07:45","dy":"1","visit":"BASELINE","visitnum":"2.0","epoch":"TREATMENT"},{"seq":"17","testcd":"SYSBP","test":"Systolic Blood Pressure","cat":null,"orres":"137.8","orresu":"mmHg","stresc":"137.8","stresn":"137.8","stresu":"mmHg","stnrlo":null,"stnrhi":null,"nrind":null,"pos":null,"loc":null,"dtc":"2024-03-28T07:45","dy":"1","visit":"BASELINE","visitnum":"2.0","epoch":"TREATMENT"},{"seq":"19","testcd":"TEMP","test":"Temperature","cat":null,"orres":"36.9","orresu":"C","stresc":"36.9","stresn":"36.9","stresu":"C","stnrlo":null,"stnrhi":null,"nrind":null,"pos":null,"loc":null,"dtc":"2024-03-28T07:45","dy":"1","visit":"BASELINE","visitnum":"2.0","epoch":"TREATMENT"},{"seq":"11","testcd":"DIABP","test":"Diastolic Blood Pressure","cat":null,"orres":"94.2","orresu":"mmHg","stresc":"94.2","stresn":"94.2","stresu":"mmHg","stnrlo":null,"stnrhi":null,"nrind":null,"pos":null,"loc":null,"dtc":"2024-03-28T09:00","dy":"1","visit":"BASELINE","visitnum":"2.0","epoch":"TREATMENT"},{"seq":"14","testcd":"PULSE","test":"Pulse Rate","cat":null,"orres":"68.1","orresu":"beats/min","stresc":"68.1","stresn":"68.1","stresu":"beats/min","stnrlo":null,"stnrhi":null,"nrind":null,"pos":null,"loc":null,"dtc":"2024-03-28T09:00","dy":"1","visit":"BASELINE","visitnum":"2.0","epoch":"TREATMENT"},{"seq":"16","testcd":"RESP","test":"Respiratory Rate","cat":null,"orres":"21.2","orresu":"breaths/min","stresc":"21.2","stresn":"21.2","stresu":"breaths/min","stnrlo":null,"stnrhi":null,"nrind":null,"pos":null,"loc":null,"dtc":"2024-03-28T09:00","dy":"1","visit":"BASELINE","visitnum":"2.0","epoch":"TREATMENT"},{"seq":"18","testcd":"SYSBP","test":"Systolic Blood Pressure","cat":null,"orres":"138.5","orresu":"mmHg","stresc":"138.5","stresn":"138.5","stresu":"mmHg","stnrlo":null,"stnrhi":null,"nrind":null,"pos":null,"loc":null,"dtc":"2024-03-28T09:00","dy":"1","visit":"BASELINE","visitnum":"2.0","epoch":"TREATMENT"},{"seq":"20","testcd":"TEMP","test":"Temperature","cat":null,"orres":"37.5","orresu":"C","stresc":"37.5","stresn":"37.5","stresu":"C","stnrlo":null,"stnrhi":null,"nrind":null,"pos":null,"loc":null,"dtc":"2024-03-28T09:00","dy":"1","visit":"BASELINE","visitnum":"2.0","epoch":"TREATMENT"},{"seq":"22","testcd":"BMI","test":"BMI","cat":null,"orres":null,"orresu":null,"stresc":"41.6","stresn":"41.6","stresu":"kg/m2","stnrlo":null,"stnrhi":null,"nrind":null,"pos":null,"loc":null,"dtc":"2024-04-26","dy":"30","visit":"WEEK 4","visitnum":"3.0","epoch":"TREATMENT"},{"seq":"23","testcd":"DIABP","test":"Diastolic Blood Pressure","cat":null,"orres":"92.1","orresu":"mmHg","stresc":"92.1","stresn":"92.1","stresu":"mmHg","stnrlo":null,"stnrhi":null,"nrind":null,"pos":null,"loc":null,"dtc":"2024-04-26","dy":"30","visit":"WEEK 4","visitnum":"3.0","epoch":"TREATMENT"},{"seq":"24","testcd":"HEIGHT","test":"Height","cat":null,"orres":"152.1","orresu":"cm","stresc":"152.1","stresn":"152.1","stresu":"cm","stnrlo":null,"stnrhi":null,"nrind":null,"pos":null,"loc":null,"dtc":"2024-04-26","dy":"30","visit":"WEEK 4","visitnum":"3.0","epoch":"TREATMENT"},{"seq":"25","testcd":"PULSE","test":"Pulse Rate","cat":null,"orres":"72.3","orresu":"beats/min","stresc":"72.3","stresn":"72.3","stresu":"beats/min","stnrlo":null,"stnrhi":null,"nrind":null,"pos":null,"loc":null,"dtc":"2024-04-26","dy":"30","visit":"WEEK 4","visitnum":"3.0","epoch":"TREATMENT"},{"seq":"26","testcd":"RESP","test":"Respiratory Rate","cat":null,"orres":"22.2","orresu":"breaths/min","stresc":"22.2","stresn":"22.2","stresu":"breaths/min","stnrlo":null,"stnrhi":null,"nrind":null,"pos":null,"loc":null,"dtc":"2024-04-26","dy":"30","visit":"WEEK 4","visitnum":"3.0","epoch":"TREATMENT"},{"seq":"27","testcd":"SYSBP","test":"Systolic Blood Pressure","cat":null,"orres":"137.2","orresu":"mmHg","stresc":"137.2","stresn":"137.2","stresu":"mmHg","stnrlo":null,"stnrhi":null,"nrind":null,"pos":null,"loc":null,"dtc":"2024-04-26","dy":"30","visit":"WEEK 4","visitnum":"3.0","epoch":"TREATMENT"},{"seq":"28","testcd":"TEMP","test":"Temperature","cat":null,"orres":"36.9","orresu":"C","stresc":"36.9","stresn":"36.9","stresu":"C","stnrlo":null,"stnrhi":null,"nrind":null,"pos":null,"loc":null,"dtc":"2024-04-26","dy":"30","visit":"WEEK 4","visitnum":"3.0","epoch":"TREATMENT"},{"seq":"29","testcd":"WEIGHT","test":"Weight","cat":null,"orres":"96.3","orresu":"kg","stresc":"96.3","stresn":"96.3","stresu":"kg","stnrlo":null,"stnrhi":null,"nrind":null,"pos":null,"loc":null,"dtc":"2024-04-26","dy":"30","visit":"WEEK 4","visitnum":"3.0","epoch":"TREATMENT"},{"seq":"30","testcd":"BMI","test":"BMI","cat":null,"orres":null,"orresu":null,"stresc":"42.2","stresn":"42.2","stresu":"kg/m2","stnrlo":null,"stnrhi":null,"nrind":null,"pos":null,"loc":null,"dtc":"2024-06-26","dy":"91","visit":"WEEK 12","visitnum":"4.0","epoch":"TREATMENT"},{"seq":"31","testcd":"DIABP","test":"Diastolic Blood Pressure","cat":null,"orres":"91.4","orresu":"mmHg","stresc":"91.4","stresn":"91.4","stresu":"mmHg","stnrlo":null,"stnrhi":null,"nrind":null,"pos":null,"loc":null,"dtc":"2024-06-26","dy":"91","visit":"WEEK 12","visitnum":"4.0","epoch":"TREATMENT"},{"seq":"32","testcd":"HEIGHT","test":"Height","cat":null,"orres":"151.9","orresu":"cm","stresc":"151.9","stresn":"151.9","stresu":"cm","stnrlo":null,"stnrhi":null,"nrind":null,"pos":null,"loc":null,"dtc":"2024-06-26","dy":"91","visit":"WEEK 12","visitnum":"4.0","epoch":"TREATMENT"},{"seq":"33","testcd":"PULSE","test":"Pulse Rate","cat":null,"orres":"75.0","orresu":"beats/min","stresc":"75.0","stresn":"75.0","stresu":"beats/min","stnrlo":null,"stnrhi":null,"nrind":null,"pos":null,"loc":null,"dtc":"2024-06-26","dy":"91","visit":"WEEK 12","visitnum":"4.0","epoch":"TREATMENT"},{"seq":"34","testcd":"RESP","test":"Respiratory Rate","cat":null,"orres":"22.7","orresu":"breaths/min","stresc":"22.7","stresn":"22.7","stresu":"breaths/min","stnrlo":null,"stnrhi":null,"nrind":null,"pos":null,"loc":null,"dtc":"2024-06-26","dy":"91","visit":"WEEK 12","visitnum":"4.0","epoch":"TREATMENT"},{"seq":"35","testcd":"SYSBP","test":"Systolic Blood Pressure","cat":null,"orres":"137.6","orresu":"mmHg","stresc":"137.6","stresn":"137.6","stresu":"mmHg","stnrlo":null,"stnrhi":null,"nrind":null,"pos":null,"loc":null,"dtc":"2024-06-26","dy":"91","visit":"WEEK 12","visitnum":"4.0","epoch":"TREATMENT"},{"seq":"36","testcd":"TEMP","test":"Temperature","cat":null,"orres":"36.8","orresu":"C","stresc":"36.8","stresn":"36.8","stresu":"C","stnrlo":null,"stnrhi":null,"nrind":null,"pos":null,"loc":null,"dtc":"2024-06-26","dy":"91","visit":"WEEK 12","visitnum":"4.0","epoch":"TREATMENT"},{"seq":"37","testcd":"WEIGHT","test":"Weight","cat":null,"orres":"97.3","orresu":"kg","stresc":"97.3","stresn":"97.3","stresu":"kg","stnrlo":null,"stnrhi":null,"nrind":null,"pos":null,"loc":null,"dtc":"2024-06-26","dy":"91","visit":"WEEK 12","visitnum":"4.0","epoch":"TREATMENT"},{"seq":"38","testcd":"BMI","test":"BMI","cat":null,"orres":null,"orresu":null,"stresc":"41.9","stresn":"41.9","stresu":"kg/m2","stnrlo":null,"stnrhi":null,"nrind":null,"pos":null,"loc":null,"dtc":"2024-10-02","dy":"189","visit":"MONTH 6","visitnum":"5.0","epoch":"TREATMENT"},{"seq":"39","testcd":"DIABP","test":"Diastolic Blood Pressure","cat":null,"orres":"73.3","orresu":"mmHg","stresc":"73.3","stresn":"73.3","stresu":"mmHg","stnrlo":null,"stnrhi":null,"nrind":null,"pos":null,"loc":null,"dtc":"2024-10-02","dy":"189","visit":"MONTH 6","visitnum":"5.0","epoch":"TREATMENT"},{"seq":"40","testcd":"HEIGHT","test":"Height","cat":null,"orres":"151.4","orresu":"cm","stresc":"151.4","stresn":"151.4","stresu":"cm","stnrlo":null,"stnrhi":null,"nrind":null,"pos":null,"loc":null,"dtc":"2024-10-02","dy":"189","visit":"MONTH 6","visitnum":"5.0","epoch":"TREATMENT"},{"seq":"41","testcd":"PULSE","test":"Pulse Rate","cat":null,"orres":"77.9","orresu":"beats/min","stresc":"77.9","stresn":"77.9","stresu":"beats/min","stnrlo":null,"stnrhi":null,"nrind":null,"pos":null,"loc":null,"dtc":"2024-10-02","dy":"189","visit":"MONTH 6","visitnum":"5.0","epoch":"TREATMENT"},{"seq":"42","testcd":"RESP","test":"Respiratory Rate","cat":null,"orres":"22.9","orresu":"breaths/min","stresc":"22.9","stresn":"22.9","stresu":"breaths/min","stnrlo":null,"stnrhi":null,"nrind":null,"pos":null,"loc":null,"dtc":"2024-10-02","dy":"189","visit":"MONTH 6","visitnum":"5.0","epoch":"TREATMENT"},{"seq":"43","testcd":"SYSBP","test":"Systolic Blood Pressure","cat":null,"orres":"109.8","orresu":"mmHg","stresc":"109.8","stresn":"109.8","stresu":"mmHg","stnrlo":null,"stnrhi":null,"nrind":null,"pos":null,"loc":null,"dtc":"2024-10-02","dy":"189","visit":"MONTH 6","visitnum":"5.0","epoch":"TREATMENT"},{"seq":"44","testcd":"TEMP","test":"Temperature","cat":null,"orres":"36.7","orresu":"C","stresc":"36.7","stresn":"36.7","stresu":"C","stnrlo":null,"stnrhi":null,"nrind":null,"pos":null,"loc":null,"dtc":"2024-10-02","dy":"189","visit":"MONTH 6","visitnum":"5.0","epoch":"TREATMENT"},{"seq":"45","testcd":"WEIGHT","test":"Weight","cat":null,"orres":"96.0","orresu":"kg","stresc":"96.0","stresn":"96.0","stresu":"kg","stnrlo":null,"stnrhi":null,"nrind":null,"pos":null,"loc":null,"dtc":"2024-10-02","dy":"189","visit":"MONTH 6","visitnum":"5.0","epoch":"TREATMENT"},{"seq":"46","testcd":"BMI","test":"BMI","cat":null,"orres":null,"orresu":null,"stresc":"42.2","stresn":"42.2","stresu":"kg/m2","stnrlo":null,"stnrhi":null,"nrind":null,"pos":null,"loc":null,"dtc":"2025-03-30","dy":"368","visit":"MONTH 12","visitnum":"6.0","epoch":"TREATMENT"},{"seq":"47","testcd":"DIABP","test":"Diastolic Blood Pressure","cat":null,"orres":"91.2","orresu":"mmHg","stresc":"91.2","stresn":"91.2","stresu":"mmHg","stnrlo":null,"stnrhi":null,"nrind":null,"pos":null,"loc":null,"dtc":"2025-03-30","dy":"368","visit":"MONTH 12","visitnum":"6.0","epoch":"TREATMENT"},{"seq":"48","testcd":"HEIGHT","test":"Height","cat":null,"orres":"150.9","orresu":"cm","stresc":"150.9","stresn":"150.9","stresu":"cm","stnrlo":null,"stnrhi":null,"nrind":null,"pos":null,"loc":null,"dtc":"2025-03-30","dy":"368","visit":"MONTH 12","visitnum":"6.0","epoch":"TREATMENT"},{"seq":"49","testcd":"PULSE","test":"Pulse Rate","cat":null,"orres":null,"orresu":null,"stresc":null,"stresn":null,"stresu":null,"stnrlo":null,"stnrhi":null,"nrind":null,"pos":null,"loc":null,"dtc":"2025-03-30","dy":"368","visit":"MONTH 12","visitnum":"6.0","epoch":"TREATMENT"},{"seq":"50","testcd":"RESP","test":"Respiratory Rate","cat":null,"orres":"23.9","orresu":"breaths/min","stresc":"23.9","stresn":"23.9","stresu":"breaths/min","stnrlo":null,"stnrhi":null,"nrind":null,"pos":null,"loc":null,"dtc":"2025-03-30","dy":"368","visit":"MONTH 12","visitnum":"6.0","epoch":"TREATMENT"},{"seq":"51","testcd":"SYSBP","test":"Systolic Blood Pressure","cat":null,"orres":"140.8","orresu":"mmHg","stresc":"140.8","stresn":"140.8","stresu":"mmHg","stnrlo":null,"stnrhi":null,"nrind":null,"pos":null,"loc":null,"dtc":"2025-03-30","dy":"368","visit":"MONTH 12","visitnum":"6.0","epoch":"TREATMENT"},{"seq":"52","testcd":"TEMP","test":"Temperature","cat":null,"orres":"36.8","orresu":"C","stresc":"36.8","stresn":"36.8","stresu":"C","stnrlo":null,"stnrhi":null,"nrind":null,"pos":null,"loc":null,"dtc":"2025-03-30","dy":"368","visit":"MONTH 12","visitnum":"6.0","epoch":"TREATMENT"},{"seq":"53","testcd":"WEIGHT","test":"Weight","cat":null,"orres":"96.1","orresu":"kg","stresc":"96.1","stresn":"96.1","stresu":"kg","stnrlo":null,"stnrhi":null,"nrind":null,"pos":null,"loc":null,"dtc":"2025-03-30","dy":"368","visit":"MONTH 12","visitnum":"6.0","epoch":"TREATMENT"},{"seq":"54","testcd":"BMI","test":"BMI","cat":null,"orres":null,"orresu":null,"stresc":"42.7","stresn":"42.7","stresu":"kg/m2","stnrlo":null,"stnrhi":null,"nrind":null,"pos":null,"loc":null,"dtc":"2025-09-24","dy":"546","visit":"MONTH 18","visitnum":"7.0","epoch":"TREATMENT"},{"seq":"55","testcd":"DIABP","test":"Diastolic Blood Pressure","cat":null,"orres":"92.8","orresu":"mmHg","stresc":"92.8","stresn":"92.8","stresu":"mmHg","stnrlo":null,"stnrhi":null,"nrind":null,"pos":null,"loc":null,"dtc":"2025-09-24","dy":"546","visit":"MONTH 18","visitnum":"7.0","epoch":"TREATMENT"},{"seq":"56","testcd":"HEIGHT","test":"Height","cat":null,"orres":"150.4","orresu":"cm","stresc":"150.4","stresn":"150.4","stresu":"cm","stnrlo":null,"stnrhi":null,"nrind":null,"pos":null,"loc":null,"dtc":"2025-09-24","dy":"546","visit":"MONTH 18","visitnum":"7.0","epoch":"TREATMENT"},{"seq":"57","testcd":"PULSE","test":"Pulse Rate","cat":null,"orres":"70.9","orresu":"beats/min","stresc":"70.9","stresn":"70.9","stresu":"beats/min","stnrlo":null,"stnrhi":null,"nrind":null,"pos":null,"loc":null,"dtc":"2025-09-24","dy":"546","visit":"MONTH 18","visitnum":"7.0","epoch":"TREATMENT"},{"seq":"58","testcd":"RESP","test":"Respiratory Rate","cat":null,"orres":"24.7","orresu":"breaths/min","stresc":"24.7","stresn":"24.7","stresu":"breaths/min","stnrlo":null,"stnrhi":null,"nrind":null,"pos":null,"loc":null,"dtc":"2025-09-24","dy":"546","visit":"MONTH 18","visitnum":"7.0","epoch":"TREATMENT"},{"seq":"59","testcd":"SYSBP","test":"Systolic Blood Pressure","cat":null,"orres":"140.9","orresu":"mmHg","stresc":"140.9","stresn":"140.9","stresu":"mmHg","stnrlo":null,"stnrhi":null,"nrind":null,"pos":null,"loc":null,"dtc":"2025-09-24","dy":"546","visit":"MONTH 18","visitnum":"7.0","epoch":"TREATMENT"},{"seq":"60","testcd":"TEMP","test":"Temperature","cat":null,"orres":"36.9","orresu":"C","stresc":"36.9","stresn":"36.9","stresu":"C","stnrlo":null,"stnrhi":null,"nrind":null,"pos":null,"loc":null,"dtc":"2025-09-24","dy":"546","visit":"MONTH 18","visitnum":"7.0","epoch":"TREATMENT"},{"seq":"61","testcd":"WEIGHT","test":"Weight","cat":null,"orres":"96.5","orresu":"kg","stresc":"96.5","stresn":"96.5","stresu":"kg","stnrlo":null,"stnrhi":null,"nrind":null,"pos":null,"loc":null,"dtc":"2025-09-24","dy":"546","visit":"MONTH 18","visitnum":"7.0","epoch":"TREATMENT"}]},"section_10_questionnaires_and_scores":{"questionnaires":[],"findings_about":[]},"section_11_protocol_deviations":{"deviations":[{"seq":"1","term":"Missed PLACEBO dose on 2024-04-29","decod":"MISSED DOSE","cat":"MINOR","scat":"DOSING","start_dtc":"2024-04-29","end_dtc":null,"visit":null},{"seq":"2","term":"Missed PLACEBO dose on 2024-05-02","decod":"MISSED DOSE","cat":"MINOR","scat":"DOSING","start_dtc":"2024-05-02","end_dtc":null,"visit":null},{"seq":"3","term":"Missed PLACEBO dose on 2024-05-24","decod":"MISSED DOSE","cat":"MINOR","scat":"DOSING","start_dtc":"2024-05-24","end_dtc":null,"visit":null},{"seq":"4","term":"Missed PLACEBO dose on 2024-05-29","decod":"MISSED DOSE","cat":"MINOR","scat":"DOSING","start_dtc":"2024-05-29","end_dtc":null,"visit":null},{"seq":"5","term":"Missed PLACEBO dose on 2024-05-31","decod":"MISSED DOSE","cat":"MINOR","scat":"DOSING","start_dtc":"2024-05-31","end_dtc":null,"visit":null},{"seq":"6","term":"Missed PLACEBO dose on 2024-06-09","decod":"MISSED DOSE","cat":"MINOR","scat":"DOSING","start_dtc":"2024-06-09","end_dtc":null,"visit":null},{"seq":"7","term":"Missed PLACEBO dose on 2024-06-12","decod":"MISSED DOSE","cat":"MINOR","scat":"DOSING","start_dtc":"2024-06-12","end_dtc":null,"visit":null},{"seq":"8","term":"Missed PLACEBO dose on 2024-06-13","decod":"MISSED DOSE","cat":"MINOR","scat":"DOSING","start_dtc":"2024-06-13","end_dtc":null,"visit":null},{"seq":"9","term":"Visit WEEK 12 occurred 6 days late (Day 91 vs planned Day 85)","decod":"VISIT OCCURRED OUTSIDE VISIT WINDOW","cat":"MINOR","scat":"VISIT WINDOW","start_dtc":"2024-06-26","end_dtc":null,"visit":null},{"seq":"10","term":"Missed PLACEBO dose on 2024-06-26","decod":"MISSED DOSE","cat":"MINOR","scat":"DOSING","start_dtc":"2024-06-26","end_dtc":null,"visit":null},{"seq":"11","term":"Missed PLACEBO dose on 2024-06-30","decod":"MISSED DOSE","cat":"MINOR","scat":"DOSING","start_dtc":"2024-06-30","end_dtc":null,"visit":null},{"seq":"12","term":"Missed PLACEBO dose on 2024-07-09","decod":"MISSED DOSE","cat":"MINOR","scat":"DOSING","start_dtc":"2024-07-09","end_dtc":null,"visit":null},{"seq":"13","term":"Missed PLACEBO dose on 2024-07-17","decod":"MISSED DOSE","cat":"MINOR","scat":"DOSING","start_dtc":"2024-07-17","end_dtc":null,"visit":null},{"seq":"14","term":"Missed PLACEBO dose on 2024-08-05","decod":"MISSED DOSE","cat":"MINOR","scat":"DOSING","start_dtc":"2024-08-05","end_dtc":null,"visit":null},{"seq":"15","term":"Missed PLACEBO dose on 2024-08-27","decod":"MISSED DOSE","cat":"MINOR","scat":"DOSING","start_dtc":"2024-08-27","end_dtc":null,"visit":null},{"seq":"16","term":"Missed PLACEBO dose on 2024-08-31","decod":"MISSED DOSE","cat":"MINOR","scat":"DOSING","start_dtc":"2024-08-31","end_dtc":null,"visit":null},{"seq":"17","term":"Missed PLACEBO dose on 2024-09-09","decod":"MISSED DOSE","cat":"MINOR","scat":"DOSING","start_dtc":"2024-09-09","end_dtc":null,"visit":null},{"seq":"18","term":"Missed PLACEBO dose on 2024-09-13","decod":"MISSED DOSE","cat":"MINOR","scat":"DOSING","start_dtc":"2024-09-13","end_dtc":null,"visit":null},{"seq":"19","term":"Missed PLACEBO dose on 2024-09-14","decod":"MISSED DOSE","cat":"MINOR","scat":"DOSING","start_dtc":"2024-09-14","end_dtc":null,"visit":null},{"seq":"20","term":"Visit MONTH 6 occurred 6 days late (Day 189 vs planned Day 183)","decod":"VISIT OCCURRED OUTSIDE VISIT WINDOW","cat":"MINOR","scat":"VISIT WINDOW","start_dtc":"2024-10-02","end_dtc":null,"visit":null},{"seq":"21","term":"Missed PLACEBO dose on 2024-10-10","decod":"MISSED DOSE","cat":"MINOR","scat":"DOSING","start_dtc":"2024-10-10","end_dtc":null,"visit":null},{"seq":"22","term":"Missed PLACEBO dose on 2024-10-16","decod":"MISSED DOSE","cat":"MINOR","scat":"DOSING","start_dtc":"2024-10-16","end_dtc":null,"visit":null},{"seq":"23","term":"Missed PLACEBO dose on 2024-10-20","decod":"MISSED DOSE","cat":"MINOR","scat":"DOSING","start_dtc":"2024-10-20","end_dtc":null,"visit":null},{"seq":"24","term":"Missed PLACEBO dose on 2024-10-23","decod":"MISSED DOSE","cat":"MINOR","scat":"DOSING","start_dtc":"2024-10-23","end_dtc":null,"visit":null},{"seq":"25","term":"Missed PLACEBO dose on 2024-10-26","decod":"MISSED DOSE","cat":"MINOR","scat":"DOSING","start_dtc":"2024-10-26","end_dtc":null,"visit":null},{"seq":"26","term":"Missed PLACEBO dose on 2024-11-05","decod":"MISSED DOSE","cat":"MINOR","scat":"DOSING","start_dtc":"2024-11-05","end_dtc":null,"visit":null},{"seq":"27","term":"Missed PLACEBO dose on 2024-11-06","decod":"MISSED DOSE","cat":"MINOR","scat":"DOSING","start_dtc":"2024-11-06","end_dtc":null,"visit":null},{"seq":"28","term":"Missed PLACEBO dose on 2024-11-20","decod":"MISSED DOSE","cat":"MINOR","scat":"DOSING","start_dtc":"2024-11-20","end_dtc":null,"visit":null},{"seq":"29","term":"Missed PLACEBO dose on 2024-12-06","decod":"MISSED DOSE","cat":"MINOR","scat":"DOSING","start_dtc":"2024-12-06","end_dtc":null,"visit":null},{"seq":"30","term":"Missed PLACEBO dose on 2024-12-07","decod":"MISSED DOSE","cat":"MINOR","scat":"DOSING","start_dtc":"2024-12-07","end_dtc":null,"visit":null},{"seq":"31","term":"Missed PLACEBO dose on 2024-12-10","decod":"MISSED DOSE","cat":"MINOR","scat":"DOSING","start_dtc":"2024-12-10","end_dtc":null,"visit":null},{"seq":"32","term":"Missed PLACEBO dose on 2024-12-11","decod":"MISSED DOSE","cat":"MINOR","scat":"DOSING","start_dtc":"2024-12-11","end_dtc":null,"visit":null},{"seq":"33","term":"Missed PLACEBO dose on 2024-12-19","decod":"MISSED DOSE","cat":"MINOR","scat":"DOSING","start_dtc":"2024-12-19","end_dtc":null,"visit":null},{"seq":"34","term":"Missed PLACEBO dose on 2024-12-20","decod":"MISSED DOSE","cat":"MINOR","scat":"DOSING","start_dtc":"2024-12-20","end_dtc":null,"visit":null},{"seq":"35","term":"Missed PLACEBO dose on 2024-12-27","decod":"MISSED DOSE","cat":"MINOR","scat":"DOSING","start_dtc":"2024-12-27","end_dtc":null,"visit":null},{"seq":"36","term":"Missed PLACEBO dose on 2025-01-01","decod":"MISSED DOSE","cat":"MINOR","scat":"DOSING","start_dtc":"2025-01-01","end_dtc":null,"visit":null},{"seq":"37","term":"Missed PLACEBO dose on 2025-01-05","decod":"MISSED DOSE","cat":"MINOR","scat":"DOSING","start_dtc":"2025-01-05","end_dtc":null,"visit":null},{"seq":"38","term":"Missed PLACEBO dose on 2025-01-06","decod":"MISSED DOSE","cat":"MINOR","scat":"DOSING","start_dtc":"2025-01-06","end_dtc":null,"visit":null},{"seq":"39","term":"Missed PLACEBO dose on 2025-01-18","decod":"MISSED DOSE","cat":"MINOR","scat":"DOSING","start_dtc":"2025-01-18","end_dtc":null,"visit":null},{"seq":"40","term":"Missed PLACEBO dose on 2025-02-13","decod":"MISSED DOSE","cat":"MINOR","scat":"DOSING","start_dtc":"2025-02-13","end_dtc":null,"visit":null},{"seq":"41","term":"Missed PLACEBO dose on 2025-02-17","decod":"MISSED DOSE","cat":"MINOR","scat":"DOSING","start_dtc":"2025-02-17","end_dtc":null,"visit":null},{"seq":"42","term":"Missed PLACEBO dose on 2025-02-18","decod":"MISSED DOSE","cat":"MINOR","scat":"DOSING","start_dtc":"2025-02-18","end_dtc":null,"visit":null},{"seq":"43","term":"Missed PLACEBO dose on 2025-02-22","decod":"MISSED DOSE","cat":"MINOR","scat":"DOSING","start_dtc":"2025-02-22","end_dtc":null,"visit":null},{"seq":"44","term":"Missed PLACEBO dose on 2025-03-17","decod":"MISSED DOSE","cat":"MINOR","scat":"DOSING","start_dtc":"2025-03-17","end_dtc":null,"visit":null},{"seq":"45","term":"Missed PLACEBO dose on 2025-03-20","decod":"MISSED DOSE","cat":"MINOR","scat":"DOSING","start_dtc":"2025-03-20","end_dtc":null,"visit":null},{"seq":"46","term":"Missed PLACEBO dose on 2025-03-28","decod":"MISSED DOSE","cat":"MINOR","scat":"DOSING","start_dtc":"2025-03-28","end_dtc":null,"visit":null},{"seq":"47","term":"Visit MONTH 18 occurred 1 days early (Day 546 vs planned Day 547)","decod":"VISIT OCCURRED OUTSIDE VISIT WINDOW","cat":"MINOR","scat":"VISIT WINDOW","start_dtc":"2025-09-24","end_dtc":null,"visit":null}],"total":47},"section_12_disposition":{"completion_status":"INFORMED CONSENT OBTAINED","disposition_records":[{"seq":"1","term":"INFORMED CONSENT OBTAINED","decod":"INFORMED CONSENT OBTAINED","cat":"PROTOCOL MILESTONE","scat":null,"dtc":"2024-03-18","dy":null,"visit":null,"epoch":"SCREENING"},{"seq":"2","term":"RANDOMIZED","decod":"RANDOMIZED","cat":"PROTOCOL MILESTONE","scat":null,"dtc":"2024-03-28","dy":null,"visit":null,"epoch":"TREATMENT"},{"seq":"3","term":"DEATH","decod":"DEATH","cat":"DISPOSITION EVENT","scat":null,"dtc":"2026-02-25","dy":null,"visit":null,"epoch":"TREATMENT"}],"death":{"seq":"1","dthdtc":null,"cause":null}},"section_13_hospitalizations":{"items":[{"seq":"1","term":"Cytokine release syndrome","decod":"Cytokine release syndrome","cat":"HOSPITALIZATION","start_dtc":"2024-06-24","end_dtc":"2024-07-02","epoch":"TREATMENT"},{"seq":"2","term":"Hypotension","decod":"Hypotension","cat":"EMERGENCY ROOM VISIT","start_dtc":"2024-10-03","end_dtc":"2024-10-07","epoch":"TREATMENT"},{"seq":"3","term":"Fatigue","decod":"Fatigue","cat":"EMERGENCY ROOM VISIT","start_dtc":"2024-10-11","end_dtc":"2024-10-22","epoch":"TREATMENT"},{"seq":"4","term":"Hypotension","decod":"Hypotension","cat":"HOSPITALIZATION","start_dtc":"2024-12-19","end_dtc":"2025-01-02","epoch":"TREATMENT"},{"seq":"5","term":"Headache","decod":"Headache","cat":"HOSPITALIZATION","start_dtc":"2025-03-22","end_dtc":"2025-04-07","epoch":"TREATMENT"},{"seq":"6","term":"Genital infection fungal","decod":"Genital infection fungal","cat":"HOSPITALIZATION","start_dtc":"2025-03-31","end_dtc":"2025-04-13","epoch":"TREATMENT"},{"seq":"7","term":"Nausea","decod":"Nausea","cat":"HOSPITALIZATION","start_dtc":"2025-05-24","end_dtc":"2025-06-02","epoch":"TREATMENT"},{"seq":"8","term":"Atrial fibrillation","decod":"Atrial fibrillation","cat":"HOSPITALIZATION","start_dtc":"2025-10-02","end_dtc":"2025-10-17","epoch":"TREATMENT"}],"total":8},"section_14_substance_use":{"items":[{"seq":"1","substance":"BEER/WINE/SPIRITS","decod":"ETHANOL","cat":"ALCOHOL","scat":null,"usage":"N","dose":null,"dosu":null,"freq":null,"start_dtc":null,"end_dtc":null},{"seq":"2","substance":"COFFEE","decod":"COFFEE","cat":"CAFFEINE","scat":null,"usage":"N","dose":null,"dosu":null,"freq":null,"start_dtc":null,"end_dtc":null},{"seq":"3","substance":"CIGARETTES","decod":"CIGARETTES","cat":"TOBACCO","scat":null,"usage":"Y","dose":null,"dosu":null,"freq":null,"start_dtc":"2012-03-21","end_dtc":"2020-03-19"}],"total":3},"section_15_subject_status":{"items":[{"seq":"1","testcd":"SURVSTAT","test":"Survival Status","orres":"DEAD","stresc":"DEAD","dtc":"2026-07-13","visit":"SAFETY FU","epoch":"FOLLOW-UP"}],"total":1}}