{"subject_id":"I8F-JE-GPGO-SURPASS-JPN_OSAKA01-0002","study_id":"I8F-JE-GPGO-SURPASS","generated_at":"2026-07-07T06:16:06.185735+00:00","sdtmig_version":"3.4","flags":{"has_serious_ae":true,"has_fatal_ae":false,"has_protocol_deviation":true,"n_protocol_deviations":13,"n_adverse_events":32,"n_concomitant_meds":14,"max_ae_severity":"SEVERE","screen_failure":false,"discontinued_early":false,"discontinuation_reason":null,"death":false,"exposure_days":357},"timeline":[{"dtc":"2012-01-28","dy":"-4411","event":"CM START: ROSUVASTATIN","domain":"CM","category":"concomitant_med"},{"dtc":"2024-01-10","dy":"-46","event":"VISIT: SCREENING","domain":"SV","category":"visit"},{"dtc":"2024-01-25","dy":"-31","event":"INFORMED CONSENT OBTAINED","domain":"DS","category":"milestone"},{"dtc":"2024-02-25","dy":"1","event":"RANDOMIZED","domain":"DS","category":"milestone"},{"dtc":"2024-02-25","dy":"1","event":"FIRST DOSE: TIRZEPATIDE","domain":"EX","category":"exposure"},{"dtc":"2024-02-25","dy":"1","event":"VISIT: BASELINE","domain":"SV","category":"visit"},{"dtc":"2024-02-28","dy":"4","event":"AE: Nausea (MODERATE)","domain":"AE","category":"adverse_event"},{"dtc":"2024-03-02","dy":"7","event":"AE: Cholelithiasis (MODERATE)","domain":"AE","category":"adverse_event"},{"dtc":"2024-03-02","dy":"7","event":"CM START: PARACETAMOL","domain":"CM","category":"concomitant_med"},{"dtc":"2024-03-10","dy":"15","event":"DEVIATION: DOSE MODIFICATION","domain":"DV","category":"deviation"},{"dtc":"2024-03-16","dy":"21","event":"AE: Decreased appetite (MODERATE)","domain":"AE","category":"adverse_event"},{"dtc":"2024-03-26","dy":"31","event":"VISIT: WEEK 4","domain":"SV","category":"visit"},{"dtc":"2024-04-14","dy":"50","event":"AE: Flatulence (MODERATE)","domain":"AE","category":"adverse_event"},{"dtc":"2024-04-14","dy":"50","event":"DEVIATION: DOSE MODIFICATION","domain":"DV","category":"deviation"},{"dtc":"2024-04-14","dy":"50","event":"CM START: SIMETHICONE","domain":"CM","category":"concomitant_med"},{"dtc":"2024-04-18","dy":"54","event":"DEVIATION: VISIT OCCURRED OUTSIDE VISIT WINDOW","domain":"DV","category":"deviation"},{"dtc":"2024-04-18","dy":"54","event":"VISIT: WEEK 8","domain":"SV","category":"visit"},{"dtc":"2024-04-25","dy":"61","event":"AE: Constipation (MODERATE)","domain":"AE","category":"adverse_event"},{"dtc":"2024-04-25","dy":"61","event":"CM START: DOCUSATE SODIUM","domain":"CM","category":"concomitant_med"},{"dtc":"2024-05-07","dy":"73","event":"AE: Decreased appetite (SEVERE) [SERIOUS]","domain":"AE","category":"adverse_event"},{"dtc":"2024-05-07","dy":"73","event":"CM START: MEGESTROL","domain":"CM","category":"concomitant_med"},{"dtc":"2024-05-13","dy":"79","event":"AE: Constipation (MODERATE)","domain":"AE","category":"adverse_event"},{"dtc":"2024-05-14","dy":"80","event":"AE: Headache (MILD)","domain":"AE","category":"adverse_event"},{"dtc":"2024-05-19","dy":"85","event":"DEVIATION: DOSE MODIFICATION","domain":"DV","category":"deviation"},{"dtc":"2024-05-20","dy":"86","event":"DEVIATION: VISIT OCCURRED OUTSIDE VISIT WINDOW","domain":"DV","category":"deviation"},{"dtc":"2024-05-20","dy":"86","event":"VISIT: WEEK 12","domain":"SV","category":"visit"},{"dtc":"2024-05-26","dy":"92","event":"DEVIATION: DOSE MODIFICATION","domain":"DV","category":"deviation"},{"dtc":"2024-06-02","dy":"99","event":"DEVIATION: MISSED DOSE","domain":"DV","category":"deviation"},{"dtc":"2024-06-09","dy":"106","event":"DEVIATION: MISSED DOSE","domain":"DV","category":"deviation"},{"dtc":"2024-06-15","dy":"112","event":"AE: Vomiting (MODERATE)","domain":"AE","category":"adverse_event"},{"dtc":"2024-06-16","dy":"113","event":"DEVIATION: VISIT OCCURRED OUTSIDE VISIT WINDOW","domain":"DV","category":"deviation"},{"dtc":"2024-06-16","dy":"113","event":"VISIT: WEEK 16","domain":"SV","category":"visit"},{"dtc":"2024-06-17","dy":"114","event":"AE: Vomiting (MODERATE)","domain":"AE","category":"adverse_event"},{"dtc":"2024-06-17","dy":"114","event":"CM START: ONDANSETRON","domain":"CM","category":"concomitant_med"},{"dtc":"2024-06-23","dy":"120","event":"AE: Diarrhoea (MODERATE)","domain":"AE","category":"adverse_event"},{"dtc":"2024-07-13","dy":"140","event":"AE: Constipation (SEVERE) [SERIOUS]","domain":"AE","category":"adverse_event"},{"dtc":"2024-07-13","dy":"140","event":"CM START: DOCUSATE SODIUM","domain":"CM","category":"concomitant_med"},{"dtc":"2024-07-15","dy":"142","event":"AE: Diarrhoea (MODERATE)","domain":"AE","category":"adverse_event"},{"dtc":"2024-07-15","dy":"142","event":"CM START: LOPERAMIDE","domain":"CM","category":"concomitant_med"},{"dtc":"2024-07-17","dy":"144","event":"VISIT: WEEK 20","domain":"SV","category":"visit"},{"dtc":"2024-07-25","dy":"152","event":"AE: Dyspepsia (MODERATE)","domain":"AE","category":"adverse_event"},{"dtc":"2024-07-25","dy":"152","event":"CM START: OMEPRAZOLE","domain":"CM","category":"concomitant_med"},{"dtc":"2024-08-01","dy":"159","event":"AE: Nausea (MILD)","domain":"AE","category":"adverse_event"},{"dtc":"2024-08-06","dy":"164","event":"AE: Diarrhoea (MILD)","domain":"AE","category":"adverse_event"},{"dtc":"2024-08-11","dy":"169","event":"DEVIATION: MISSED DOSE","domain":"DV","category":"deviation"},{"dtc":"2024-08-12","dy":"170","event":"DEVIATION: VISIT OCCURRED OUTSIDE VISIT WINDOW","domain":"DV","category":"deviation"},{"dtc":"2024-08-12","dy":"170","event":"VISIT: WEEK 24","domain":"SV","category":"visit"},{"dtc":"2024-08-17","dy":"175","event":"AE: Nausea (MILD)","domain":"AE","category":"adverse_event"},{"dtc":"2024-08-17","dy":"175","event":"CM START: ONDANSETRON","domain":"CM","category":"concomitant_med"},{"dtc":"2024-08-24","dy":"182","event":"AE: Nausea (MODERATE)","domain":"AE","category":"adverse_event"},{"dtc":"2024-08-24","dy":"182","event":"CM START: ONDANSETRON","domain":"CM","category":"concomitant_med"},{"dtc":"2024-08-28","dy":"186","event":"AE: Decreased appetite (MILD)","domain":"AE","category":"adverse_event"},{"dtc":"2024-09-02","dy":"191","event":"AE: Diarrhoea (MODERATE)","domain":"AE","category":"adverse_event"},{"dtc":"2024-09-23","dy":"212","event":"AE: Dyspepsia (MILD)","domain":"AE","category":"adverse_event"},{"dtc":"2024-10-06","dy":"225","event":"AE: Constipation (MODERATE)","domain":"AE","category":"adverse_event"},{"dtc":"2024-10-08","dy":"227","event":"VISIT: WEEK 32","domain":"SV","category":"visit"},{"dtc":"2024-11-01","dy":"251","event":"AE: Decreased appetite (MILD)","domain":"AE","category":"adverse_event"},{"dtc":"2024-11-09","dy":"259","event":"AE: Nausea (MILD)","domain":"AE","category":"adverse_event"},{"dtc":"2024-11-09","dy":"259","event":"CM START: ONDANSETRON","domain":"CM","category":"concomitant_med"},{"dtc":"2024-11-23","dy":"273","event":"AE: Diarrhoea (SEVERE) [SERIOUS]","domain":"AE","category":"adverse_event"},{"dtc":"2024-11-23","dy":"273","event":"CM START: LOPERAMIDE","domain":"CM","category":"concomitant_med"},{"dtc":"2024-11-27","dy":"277","event":"AE: Constipation (MILD)","domain":"AE","category":"adverse_event"},{"dtc":"2024-11-28","dy":"278","event":"VISIT: WEEK 40","domain":"SV","category":"visit"},{"dtc":"2024-12-14","dy":"294","event":"AE: Nausea (MILD)","domain":"AE","category":"adverse_event"},{"dtc":"2024-12-15","dy":"295","event":"DEVIATION: MISSED DOSE","domain":"DV","category":"deviation"},{"dtc":"2024-12-21","dy":"301","event":"AE: Diarrhoea (MODERATE)","domain":"AE","category":"adverse_event"},{"dtc":"2024-12-23","dy":"303","event":"AE: Diarrhoea (MILD)","domain":"AE","category":"adverse_event"},{"dtc":"2024-12-30","dy":"310","event":"AE: Dyspepsia (MODERATE)","domain":"AE","category":"adverse_event"},{"dtc":"2024-12-30","dy":"310","event":"CM START: OMEPRAZOLE","domain":"CM","category":"concomitant_med"},{"dtc":"2025-01-06","dy":"317","event":"AE: Nausea (MODERATE)","domain":"AE","category":"adverse_event"},{"dtc":"2025-02-04","dy":"346","event":"AE: Nausea (MILD)","domain":"AE","category":"adverse_event"},{"dtc":"2025-02-16","dy":"358","event":"LAST DOSE: TIRZEPATIDE","domain":"EX","category":"exposure"},{"dtc":"2025-02-17","dy":"359","event":"VISIT: WEEK 52 EOT","domain":"SV","category":"visit"},{"dtc":"2025-03-19","dy":"389","event":"DEVIATION: VISIT OCCURRED OUTSIDE VISIT WINDOW","domain":"DV","category":"deviation"},{"dtc":"2025-03-19","dy":"389","event":"VISIT: WEEK 56 SAFETY FU","domain":"SV","category":"visit"},{"dtc":"2025-04-19","dy":"420","event":"COMPLETED","domain":"DS","category":"milestone"}],"section_1_demographics":{"usubjid":"I8F-JE-GPGO-SURPASS-JPN_OSAKA01-0002","subjid":"0002","siteid":"JPN_OSAKA01","age":"42","ageu":"YEARS","sex":"M","race":"ASIAN","ethnicity":"NOT HISPANIC OR LATINO","country":"JPN","arm":"Tirzepatide 15 mg QW SC (target)","armcd":"TIRZ_15","actarm":"Tirzepatide 15 mg QW SC (target)","actarmcd":"TIRZ_15","randomization_date":null,"informed_consent_date":"2024-01-25","reference_start_date":"2024-02-25","reference_end_date":"2025-04-19","screen_failure":false,"death_flag":null,"death_date":null,"subject_characteristics":[{"testcd":"ALCUSE","test":"Alcohol Use","orres":"NON-DRINKER","stresc":"NON-DRINKER","visit":null,"dtc":"2024-01-25"},{"testcd":"BMI","test":"Body Mass Index","orres":"24.2","stresc":"24.2","visit":null,"dtc":"2024-01-25"},{"testcd":"DURDIS","test":"Duration of Disease","orres":"255 months","stresc":"255","visit":null,"dtc":"2024-01-25"},{"testcd":"TOBUSE","test":"Tobacco Use","orres":"NEVER SMOKED","stresc":"NEVER SMOKED","visit":null,"dtc":"2024-01-25"}]},"section_2_medical_history":{"items":[{"seq":"1","term":"HYPERLIPIDEMIA","decod":"HYPERLIPIDEMIA","cat":"METABOLIC","scat":null,"presp":null,"occur":null,"status":null,"onset_dtc":"2012-01-28","end_dtc":null,"visit":null},{"seq":"2","term":"OBESITY","decod":"OBESITY","cat":"METABOLIC","scat":null,"presp":null,"occur":null,"status":null,"onset_dtc":"2003-01-30","end_dtc":"2017-06-06","visit":null}]},"section_3_inclusion_exclusion":{"criteria":[]},"section_4_trial_participation":{"visits":[{"visitnum":"1.0","visit":"SCREENING","start_dtc":"2024-01-10","end_dtc":"2024-01-10","updes":null},{"visitnum":"2.0","visit":"BASELINE","start_dtc":"2024-02-25","end_dtc":"2024-02-25","updes":null},{"visitnum":"3.0","visit":"WEEK 4","start_dtc":"2024-03-26","end_dtc":"2024-03-26","updes":null},{"visitnum":"4.0","visit":"WEEK 8","start_dtc":"2024-04-18","end_dtc":"2024-04-18","updes":null},{"visitnum":"5.0","visit":"WEEK 12","start_dtc":"2024-05-20","end_dtc":"2024-05-20","updes":null},{"visitnum":"6.0","visit":"WEEK 16","start_dtc":"2024-06-16","end_dtc":"2024-06-16","updes":null},{"visitnum":"7.0","visit":"WEEK 20","start_dtc":"2024-07-17","end_dtc":"2024-07-17","updes":null},{"visitnum":"8.0","visit":"WEEK 24","start_dtc":"2024-08-12","end_dtc":"2024-08-12","updes":null},{"visitnum":"9.0","visit":"WEEK 32","start_dtc":"2024-10-08","end_dtc":"2024-10-08","updes":null},{"visitnum":"10.0","visit":"WEEK 40","start_dtc":"2024-11-28","end_dtc":"2024-11-28","updes":null},{"visitnum":"11.0","visit":"WEEK 52 EOT","start_dtc":"2025-02-17","end_dtc":"2025-02-17","updes":null},{"visitnum":"12.0","visit":"WEEK 56 SAFETY FU","start_dtc":"2025-03-19","end_dtc":"2025-03-19","updes":null}],"epochs":[{"seq":"1","etcd":"SCRN","element":"Screening","start_dtc":"2024-01-28","end_dtc":"2024-02-25","updes":null},{"seq":"2","etcd":"TRT","element":"Treatment","start_dtc":"2024-02-25","end_dtc":"2025-02-23","updes":null},{"seq":"3","etcd":"FU","element":"Safety follow-up","start_dtc":"2025-02-23","end_dtc":"2025-03-22","updes":null}],"visit_count":12},"section_5_concomitant_medications":{"medications":[{"seq":"1","trt":"ROSUVASTATIN","decod":"ROSUVASTATIN","cat":"PRIOR","dose":"10","doseu":null,"dosef":"QD","route":"ORAL","indication":"HYPERLIPIDEMIA","start_dtc":"2012-01-28","end_dtc":"2025-04-19","ongoing":null,"visit":null},{"seq":"2","trt":"PARACETAMOL","decod":"PARACETAMOL","cat":"CONCOMITANT","dose":"500","doseu":null,"dosef":"PRN","route":"ORAL","indication":"CHOLELITHIASIS","start_dtc":"2024-03-02","end_dtc":"2024-03-29","ongoing":null,"visit":null},{"seq":"3","trt":"SIMETHICONE","decod":"SIMETHICONE","cat":"CONCOMITANT","dose":"80.0","doseu":null,"dosef":"PRN","route":"ORAL","indication":"FLATULENCE","start_dtc":"2024-04-14","end_dtc":"2024-04-28","ongoing":null,"visit":null},{"seq":"4","trt":"DOCUSATE SODIUM","decod":"DOCUSATE SODIUM","cat":"CONCOMITANT","dose":"100","doseu":null,"dosef":"BID","route":"ORAL","indication":"CONSTIPATION","start_dtc":"2024-04-25","end_dtc":"2024-05-19","ongoing":null,"visit":null},{"seq":"5","trt":"MEGESTROL","decod":"MEGESTROL","cat":"CONCOMITANT","dose":"400.0","doseu":null,"dosef":"QD","route":"ORAL","indication":"DECREASED APPETITE","start_dtc":"2024-05-07","end_dtc":"2024-06-05","ongoing":null,"visit":null},{"seq":"6","trt":"ONDANSETRON","decod":"ONDANSETRON","cat":"CONCOMITANT","dose":"8","doseu":null,"dosef":"BID","route":"ORAL","indication":"VOMITING","start_dtc":"2024-06-17","end_dtc":"2024-07-05","ongoing":null,"visit":null},{"seq":"7","trt":"DOCUSATE SODIUM","decod":"DOCUSATE SODIUM","cat":"CONCOMITANT","dose":"100","doseu":null,"dosef":"BID","route":"ORAL","indication":"CONSTIPATION","start_dtc":"2024-07-13","end_dtc":"2024-07-28","ongoing":null,"visit":null},{"seq":"8","trt":"LOPERAMIDE","decod":"LOPERAMIDE","cat":"CONCOMITANT","dose":"2","doseu":null,"dosef":"PRN","route":"ORAL","indication":"DIARRHOEA","start_dtc":"2024-07-15","end_dtc":"2024-07-19","ongoing":null,"visit":null},{"seq":"9","trt":"OMEPRAZOLE","decod":"OMEPRAZOLE","cat":"CONCOMITANT","dose":"20.0","doseu":null,"dosef":"QD","route":"ORAL","indication":"DYSPEPSIA","start_dtc":"2024-07-25","end_dtc":"2024-08-12","ongoing":null,"visit":null},{"seq":"10","trt":"ONDANSETRON","decod":"ONDANSETRON","cat":"CONCOMITANT","dose":"4","doseu":null,"dosef":"PRN","route":"ORAL","indication":"NAUSEA","start_dtc":"2024-08-17","end_dtc":"2024-08-27","ongoing":null,"visit":null},{"seq":"11","trt":"ONDANSETRON","decod":"ONDANSETRON","cat":"CONCOMITANT","dose":"4","doseu":null,"dosef":"PRN","route":"ORAL","indication":"NAUSEA","start_dtc":"2024-08-24","end_dtc":"2024-09-16","ongoing":null,"visit":null},{"seq":"12","trt":"ONDANSETRON","decod":"ONDANSETRON","cat":"CONCOMITANT","dose":"4","doseu":null,"dosef":"PRN","route":"ORAL","indication":"NAUSEA","start_dtc":"2024-11-09","end_dtc":"2024-11-18","ongoing":null,"visit":null},{"seq":"13","trt":"LOPERAMIDE","decod":"LOPERAMIDE","cat":"CONCOMITANT","dose":"2","doseu":null,"dosef":"PRN","route":"ORAL","indication":"DIARRHOEA","start_dtc":"2024-11-23","end_dtc":"2024-11-27","ongoing":null,"visit":null},{"seq":"14","trt":"OMEPRAZOLE","decod":"OMEPRAZOLE","cat":"CONCOMITANT","dose":"20.0","doseu":null,"dosef":"QD","route":"ORAL","indication":"DYSPEPSIA","start_dtc":"2024-12-30","end_dtc":"2025-01-24","ongoing":null,"visit":null}]},"section_6_exposure":{"exposure_as_administered":[{"seq":"1","trt":"TIRZEPATIDE","dose":"2.5","doseu":null,"dosef":"QW","route":"SUBCUTANEOUS","lot":null,"start_dtc":"2024-02-25","end_dtc":"2024-02-25","start_dy":"1","end_dy":"1","epoch":"TREATMENT","visit":null},{"seq":"2","trt":"TIRZEPATIDE","dose":"2.5","doseu":null,"dosef":"QW","route":"SUBCUTANEOUS","lot":null,"start_dtc":"2024-03-03","end_dtc":"2024-03-03","start_dy":"8","end_dy":"8","epoch":"TREATMENT","visit":null},{"seq":"3","trt":"TIRZEPATIDE","dose":"2.5","doseu":null,"dosef":"QW","route":"SUBCUTANEOUS","lot":null,"start_dtc":"2024-03-10","end_dtc":"2024-03-10","start_dy":"15","end_dy":"15","epoch":"TREATMENT","visit":null},{"seq":"4","trt":"TIRZEPATIDE","dose":"2.5","doseu":null,"dosef":"QW","route":"SUBCUTANEOUS","lot":null,"start_dtc":"2024-03-17","end_dtc":"2024-03-17","start_dy":"22","end_dy":"22","epoch":"TREATMENT","visit":null},{"seq":"5","trt":"TIRZEPATIDE","dose":"5.0","doseu":null,"dosef":"QW","route":"SUBCUTANEOUS","lot":null,"start_dtc":"2024-03-24","end_dtc":"2024-03-24","start_dy":"29","end_dy":"29","epoch":"TREATMENT","visit":null},{"seq":"6","trt":"TIRZEPATIDE","dose":"5.0","doseu":null,"dosef":"QW","route":"SUBCUTANEOUS","lot":null,"start_dtc":"2024-03-31","end_dtc":"2024-03-31","start_dy":"36","end_dy":"36","epoch":"TREATMENT","visit":null},{"seq":"7","trt":"TIRZEPATIDE","dose":"5.0","doseu":null,"dosef":"QW","route":"SUBCUTANEOUS","lot":null,"start_dtc":"2024-04-07","end_dtc":"2024-04-07","start_dy":"43","end_dy":"43","epoch":"TREATMENT","visit":null},{"seq":"8","trt":"TIRZEPATIDE","dose":"5.0","doseu":null,"dosef":"QW","route":"SUBCUTANEOUS","lot":null,"start_dtc":"2024-04-14","end_dtc":"2024-04-14","start_dy":"50","end_dy":"50","epoch":"TREATMENT","visit":null},{"seq":"9","trt":"TIRZEPATIDE","dose":"7.5","doseu":null,"dosef":"QW","route":"SUBCUTANEOUS","lot":null,"start_dtc":"2024-04-21","end_dtc":"2024-04-21","start_dy":"57","end_dy":"57","epoch":"TREATMENT","visit":null},{"seq":"10","trt":"TIRZEPATIDE","dose":"7.5","doseu":null,"dosef":"QW","route":"SUBCUTANEOUS","lot":null,"start_dtc":"2024-04-28","end_dtc":"2024-04-28","start_dy":"64","end_dy":"64","epoch":"TREATMENT","visit":null},{"seq":"11","trt":"TIRZEPATIDE","dose":"7.5","doseu":null,"dosef":"QW","route":"SUBCUTANEOUS","lot":null,"start_dtc":"2024-05-05","end_dtc":"2024-05-05","start_dy":"71","end_dy":"71","epoch":"TREATMENT","visit":null},{"seq":"12","trt":"TIRZEPATIDE","dose":"7.5","doseu":null,"dosef":"QW","route":"SUBCUTANEOUS","lot":null,"start_dtc":"2024-05-12","end_dtc":"2024-05-12","start_dy":"78","end_dy":"78","epoch":"TREATMENT","visit":null},{"seq":"13","trt":"TIRZEPATIDE","dose":"10.0","doseu":null,"dosef":"QW","route":"SUBCUTANEOUS","lot":null,"start_dtc":"2024-05-19","end_dtc":"2024-05-19","start_dy":"85","end_dy":"85","epoch":"TREATMENT","visit":null},{"seq":"14","trt":"TIRZEPATIDE","dose":"10.0","doseu":null,"dosef":"QW","route":"SUBCUTANEOUS","lot":null,"start_dtc":"2024-05-26","end_dtc":"2024-05-26","start_dy":"92","end_dy":"92","epoch":"TREATMENT","visit":null},{"seq":"15","trt":"TIRZEPATIDE","dose":"12.5","doseu":null,"dosef":"QW","route":"SUBCUTANEOUS","lot":null,"start_dtc":"2024-06-16","end_dtc":"2024-06-16","start_dy":"113","end_dy":"113","epoch":"TREATMENT","visit":null},{"seq":"16","trt":"TIRZEPATIDE","dose":"12.5","doseu":null,"dosef":"QW","route":"SUBCUTANEOUS","lot":null,"start_dtc":"2024-06-23","end_dtc":"2024-06-23","start_dy":"120","end_dy":"120","epoch":"TREATMENT","visit":null},{"seq":"17","trt":"TIRZEPATIDE","dose":"12.5","doseu":null,"dosef":"QW","route":"SUBCUTANEOUS","lot":null,"start_dtc":"2024-06-30","end_dtc":"2024-06-30","start_dy":"127","end_dy":"127","epoch":"TREATMENT","visit":null},{"seq":"18","trt":"TIRZEPATIDE","dose":"12.5","doseu":null,"dosef":"QW","route":"SUBCUTANEOUS","lot":null,"start_dtc":"2024-07-07","end_dtc":"2024-07-07","start_dy":"134","end_dy":"134","epoch":"TREATMENT","visit":null},{"seq":"19","trt":"TIRZEPATIDE","dose":"15.0","doseu":null,"dosef":"QW","route":"SUBCUTANEOUS","lot":null,"start_dtc":"2024-07-14","end_dtc":"2024-07-14","start_dy":"141","end_dy":"141","epoch":"TREATMENT","visit":null},{"seq":"20","trt":"TIRZEPATIDE","dose":"15.0","doseu":null,"dosef":"QW","route":"SUBCUTANEOUS","lot":null,"start_dtc":"2024-07-21","end_dtc":"2024-07-21","start_dy":"148","end_dy":"148","epoch":"TREATMENT","visit":null},{"seq":"21","trt":"TIRZEPATIDE","dose":"15.0","doseu":null,"dosef":"QW","route":"SUBCUTANEOUS","lot":null,"start_dtc":"2024-07-28","end_dtc":"2024-07-28","start_dy":"155","end_dy":"155","epoch":"TREATMENT","visit":null},{"seq":"22","trt":"TIRZEPATIDE","dose":"15.0","doseu":null,"dosef":"QW","route":"SUBCUTANEOUS","lot":null,"start_dtc":"2024-08-04","end_dtc":"2024-08-04","start_dy":"162","end_dy":"162","epoch":"TREATMENT","visit":null},{"seq":"23","trt":"TIRZEPATIDE","dose":"15.0","doseu":null,"dosef":"QW","route":"SUBCUTANEOUS","lot":null,"start_dtc":"2024-08-18","end_dtc":"2024-08-18","start_dy":"176","end_dy":"176","epoch":"TREATMENT","visit":null},{"seq":"24","trt":"TIRZEPATIDE","dose":"15.0","doseu":null,"dosef":"QW","route":"SUBCUTANEOUS","lot":null,"start_dtc":"2024-08-25","end_dtc":"2024-08-25","start_dy":"183","end_dy":"183","epoch":"TREATMENT","visit":null},{"seq":"25","trt":"TIRZEPATIDE","dose":"15.0","doseu":null,"dosef":"QW","route":"SUBCUTANEOUS","lot":null,"start_dtc":"2024-09-01","end_dtc":"2024-09-01","start_dy":"190","end_dy":"190","epoch":"TREATMENT","visit":null},{"seq":"26","trt":"TIRZEPATIDE","dose":"15.0","doseu":null,"dosef":"QW","route":"SUBCUTANEOUS","lot":null,"start_dtc":"2024-09-08","end_dtc":"2024-09-08","start_dy":"197","end_dy":"197","epoch":"TREATMENT","visit":null},{"seq":"27","trt":"TIRZEPATIDE","dose":"15.0","doseu":null,"dosef":"QW","route":"SUBCUTANEOUS","lot":null,"start_dtc":"2024-09-15","end_dtc":"2024-09-15","start_dy":"204","end_dy":"204","epoch":"TREATMENT","visit":null},{"seq":"28","trt":"TIRZEPATIDE","dose":"15.0","doseu":null,"dosef":"QW","route":"SUBCUTANEOUS","lot":null,"start_dtc":"2024-09-22","end_dtc":"2024-09-22","start_dy":"211","end_dy":"211","epoch":"TREATMENT","visit":null},{"seq":"29","trt":"TIRZEPATIDE","dose":"15.0","doseu":null,"dosef":"QW","route":"SUBCUTANEOUS","lot":null,"start_dtc":"2024-09-29","end_dtc":"2024-09-29","start_dy":"218","end_dy":"218","epoch":"TREATMENT","visit":null},{"seq":"30","trt":"TIRZEPATIDE","dose":"15.0","doseu":null,"dosef":"QW","route":"SUBCUTANEOUS","lot":null,"start_dtc":"2024-10-06","end_dtc":"2024-10-06","start_dy":"225","end_dy":"225","epoch":"TREATMENT","visit":null},{"seq":"31","trt":"TIRZEPATIDE","dose":"15.0","doseu":null,"dosef":"QW","route":"SUBCUTANEOUS","lot":null,"start_dtc":"2024-10-13","end_dtc":"2024-10-13","start_dy":"232","end_dy":"232","epoch":"TREATMENT","visit":null},{"seq":"32","trt":"TIRZEPATIDE","dose":"15.0","doseu":null,"dosef":"QW","route":"SUBCUTANEOUS","lot":null,"start_dtc":"2024-10-20","end_dtc":"2024-10-20","start_dy":"239","end_dy":"239","epoch":"TREATMENT","visit":null},{"seq":"33","trt":"TIRZEPATIDE","dose":"15.0","doseu":null,"dosef":"QW","route":"SUBCUTANEOUS","lot":null,"start_dtc":"2024-10-27","end_dtc":"2024-10-27","start_dy":"246","end_dy":"246","epoch":"TREATMENT","visit":null},{"seq":"34","trt":"TIRZEPATIDE","dose":"15.0","doseu":null,"dosef":"QW","route":"SUBCUTANEOUS","lot":null,"start_dtc":"2024-11-03","end_dtc":"2024-11-03","start_dy":"253","end_dy":"253","epoch":"TREATMENT","visit":null},{"seq":"35","trt":"TIRZEPATIDE","dose":"15.0","doseu":null,"dosef":"QW","route":"SUBCUTANEOUS","lot":null,"start_dtc":"2024-11-10","end_dtc":"2024-11-10","start_dy":"260","end_dy":"260","epoch":"TREATMENT","visit":null},{"seq":"36","trt":"TIRZEPATIDE","dose":"15.0","doseu":null,"dosef":"QW","route":"SUBCUTANEOUS","lot":null,"start_dtc":"2024-11-17","end_dtc":"2024-11-17","start_dy":"267","end_dy":"267","epoch":"TREATMENT","visit":null},{"seq":"37","trt":"TIRZEPATIDE","dose":"15.0","doseu":null,"dosef":"QW","route":"SUBCUTANEOUS","lot":null,"start_dtc":"2024-11-24","end_dtc":"2024-11-24","start_dy":"274","end_dy":"274","epoch":"TREATMENT","visit":null},{"seq":"38","trt":"TIRZEPATIDE","dose":"15.0","doseu":null,"dosef":"QW","route":"SUBCUTANEOUS","lot":null,"start_dtc":"2024-12-01","end_dtc":"2024-12-01","start_dy":"281","end_dy":"281","epoch":"TREATMENT","visit":null},{"seq":"39","trt":"TIRZEPATIDE","dose":"15.0","doseu":null,"dosef":"QW","route":"SUBCUTANEOUS","lot":null,"start_dtc":"2024-12-08","end_dtc":"2024-12-08","start_dy":"288","end_dy":"288","epoch":"TREATMENT","visit":null},{"seq":"40","trt":"TIRZEPATIDE","dose":"15.0","doseu":null,"dosef":"QW","route":"SUBCUTANEOUS","lot":null,"start_dtc":"2024-12-22","end_dtc":"2024-12-22","start_dy":"302","end_dy":"302","epoch":"TREATMENT","visit":null},{"seq":"41","trt":"TIRZEPATIDE","dose":"15.0","doseu":null,"dosef":"QW","route":"SUBCUTANEOUS","lot":null,"start_dtc":"2024-12-29","end_dtc":"2024-12-29","start_dy":"309","end_dy":"309","epoch":"TREATMENT","visit":null},{"seq":"42","trt":"TIRZEPATIDE","dose":"15.0","doseu":null,"dosef":"QW","route":"SUBCUTANEOUS","lot":null,"start_dtc":"2025-01-05","end_dtc":"2025-01-05","start_dy":"316","end_dy":"316","epoch":"TREATMENT","visit":null},{"seq":"43","trt":"TIRZEPATIDE","dose":"15.0","doseu":null,"dosef":"QW","route":"SUBCUTANEOUS","lot":null,"start_dtc":"2025-01-12","end_dtc":"2025-01-12","start_dy":"323","end_dy":"323","epoch":"TREATMENT","visit":null},{"seq":"44","trt":"TIRZEPATIDE","dose":"15.0","doseu":null,"dosef":"QW","route":"SUBCUTANEOUS","lot":null,"start_dtc":"2025-01-26","end_dtc":"2025-01-26","start_dy":"337","end_dy":"337","epoch":"TREATMENT","visit":null},{"seq":"45","trt":"TIRZEPATIDE","dose":"15.0","doseu":null,"dosef":"QW","route":"SUBCUTANEOUS","lot":null,"start_dtc":"2025-02-02","end_dtc":"2025-02-02","start_dy":"344","end_dy":"344","epoch":"TREATMENT","visit":null},{"seq":"46","trt":"TIRZEPATIDE","dose":"15.0","doseu":null,"dosef":"QW","route":"SUBCUTANEOUS","lot":null,"start_dtc":"2025-02-09","end_dtc":"2025-02-09","start_dy":"351","end_dy":"351","epoch":"TREATMENT","visit":null},{"seq":"47","trt":"TIRZEPATIDE","dose":"15.0","doseu":null,"dosef":"QW","route":"SUBCUTANEOUS","lot":null,"start_dtc":"2025-02-16","end_dtc":"2025-02-16","start_dy":"358","end_dy":"358","epoch":"TREATMENT","visit":null}],"exposure_as_collected":[{"seq":"1","trt":"TIRZEPATIDE","dose":"2.5","doseu":null,"dosef":"QW","route":"SUBCUTANEOUS","start_dtc":"2024-02-25","end_dtc":"2024-02-25","visit":"BASELINE"},{"seq":"2","trt":"TIRZEPATIDE","dose":"2.5","doseu":null,"dosef":"QW","route":"SUBCUTANEOUS","start_dtc":"2024-03-03","end_dtc":"2024-03-03","visit":null},{"seq":"3","trt":"TIRZEPATIDE","dose":"2.5","doseu":null,"dosef":"QW","route":"SUBCUTANEOUS","start_dtc":"2024-03-10","end_dtc":"2024-03-10","visit":null},{"seq":"4","trt":"TIRZEPATIDE","dose":"2.5","doseu":null,"dosef":"QW","route":"SUBCUTANEOUS","start_dtc":"2024-03-17","end_dtc":"2024-03-17","visit":null},{"seq":"5","trt":"TIRZEPATIDE","dose":"5.0","doseu":null,"dosef":"QW","route":"SUBCUTANEOUS","start_dtc":"2024-03-24","end_dtc":"2024-03-24","visit":"WEEK 4"},{"seq":"6","trt":"TIRZEPATIDE","dose":"5.0","doseu":null,"dosef":"QW","route":"SUBCUTANEOUS","start_dtc":"2024-03-31","end_dtc":"2024-03-31","visit":null},{"seq":"7","trt":"TIRZEPATIDE","dose":"5.0","doseu":null,"dosef":"QW","route":"SUBCUTANEOUS","start_dtc":"2024-04-07","end_dtc":"2024-04-07","visit":null},{"seq":"8","trt":"TIRZEPATIDE","dose":"5.0","doseu":null,"dosef":"QW","route":"SUBCUTANEOUS","start_dtc":"2024-04-14","end_dtc":"2024-04-14","visit":null},{"seq":"9","trt":"TIRZEPATIDE","dose":"7.5","doseu":null,"dosef":"QW","route":"SUBCUTANEOUS","start_dtc":"2024-04-21","end_dtc":"2024-04-21","visit":"WEEK 8"},{"seq":"10","trt":"TIRZEPATIDE","dose":"7.5","doseu":null,"dosef":"QW","route":"SUBCUTANEOUS","start_dtc":"2024-04-28","end_dtc":"2024-04-28","visit":null},{"seq":"11","trt":"TIRZEPATIDE","dose":"7.5","doseu":null,"dosef":"QW","route":"SUBCUTANEOUS","start_dtc":"2024-05-05","end_dtc":"2024-05-05","visit":null},{"seq":"12","trt":"TIRZEPATIDE","dose":"7.5","doseu":null,"dosef":"QW","route":"SUBCUTANEOUS","start_dtc":"2024-05-12","end_dtc":"2024-05-12","visit":null},{"seq":"13","trt":"TIRZEPATIDE","dose":"10.0","doseu":null,"dosef":"QW","route":"SUBCUTANEOUS","start_dtc":"2024-05-19","end_dtc":"2024-05-19","visit":"WEEK 12"},{"seq":"14","trt":"TIRZEPATIDE","dose":"10.0","doseu":null,"dosef":"QW","route":"SUBCUTANEOUS","start_dtc":"2024-05-26","end_dtc":"2024-05-26","visit":null},{"seq":"15","trt":"TIRZEPATIDE","dose":null,"doseu":null,"dosef":"QW","route":"SUBCUTANEOUS","start_dtc":"2024-06-02","end_dtc":"2024-06-02","visit":null},{"seq":"16","trt":"TIRZEPATIDE","dose":null,"doseu":null,"dosef":"QW","route":"SUBCUTANEOUS","start_dtc":"2024-06-09","end_dtc":"2024-06-09","visit":null},{"seq":"17","trt":"TIRZEPATIDE","dose":"12.5","doseu":null,"dosef":"QW","route":"SUBCUTANEOUS","start_dtc":"2024-06-16","end_dtc":"2024-06-16","visit":"WEEK 16"},{"seq":"18","trt":"TIRZEPATIDE","dose":"12.5","doseu":null,"dosef":"QW","route":"SUBCUTANEOUS","start_dtc":"2024-06-23","end_dtc":"2024-06-23","visit":null},{"seq":"19","trt":"TIRZEPATIDE","dose":"12.5","doseu":null,"dosef":"QW","route":"SUBCUTANEOUS","start_dtc":"2024-06-30","end_dtc":"2024-06-30","visit":null},{"seq":"20","trt":"TIRZEPATIDE","dose":"12.5","doseu":null,"dosef":"QW","route":"SUBCUTANEOUS","start_dtc":"2024-07-07","end_dtc":"2024-07-07","visit":null},{"seq":"21","trt":"TIRZEPATIDE","dose":"15.0","doseu":null,"dosef":"QW","route":"SUBCUTANEOUS","start_dtc":"2024-07-14","end_dtc":"2024-07-14","visit":"WEEK 20"},{"seq":"22","trt":"TIRZEPATIDE","dose":"15.0","doseu":null,"dosef":"QW","route":"SUBCUTANEOUS","start_dtc":"2024-07-21","end_dtc":"2024-07-21","visit":null},{"seq":"23","trt":"TIRZEPATIDE","dose":"15.0","doseu":null,"dosef":"QW","route":"SUBCUTANEOUS","start_dtc":"2024-07-28","end_dtc":"2024-07-28","visit":null},{"seq":"24","trt":"TIRZEPATIDE","dose":"15.0","doseu":null,"dosef":"QW","route":"SUBCUTANEOUS","start_dtc":"2024-08-04","end_dtc":"2024-08-04","visit":null},{"seq":"25","trt":"TIRZEPATIDE","dose":null,"doseu":null,"dosef":"QW","route":"SUBCUTANEOUS","start_dtc":"2024-08-11","end_dtc":"2024-08-11","visit":"WEEK 24"},{"seq":"26","trt":"TIRZEPATIDE","dose":"15.0","doseu":null,"dosef":"QW","route":"SUBCUTANEOUS","start_dtc":"2024-08-18","end_dtc":"2024-08-18","visit":null},{"seq":"27","trt":"TIRZEPATIDE","dose":"15.0","doseu":null,"dosef":"QW","route":"SUBCUTANEOUS","start_dtc":"2024-08-25","end_dtc":"2024-08-25","visit":null},{"seq":"28","trt":"TIRZEPATIDE","dose":"15.0","doseu":null,"dosef":"QW","route":"SUBCUTANEOUS","start_dtc":"2024-09-01","end_dtc":"2024-09-01","visit":null},{"seq":"29","trt":"TIRZEPATIDE","dose":"15.0","doseu":null,"dosef":"QW","route":"SUBCUTANEOUS","start_dtc":"2024-09-08","end_dtc":"2024-09-08","visit":null},{"seq":"30","trt":"TIRZEPATIDE","dose":"15.0","doseu":null,"dosef":"QW","route":"SUBCUTANEOUS","start_dtc":"2024-09-15","end_dtc":"2024-09-15","visit":null},{"seq":"31","trt":"TIRZEPATIDE","dose":"15.0","doseu":null,"dosef":"QW","route":"SUBCUTANEOUS","start_dtc":"2024-09-22","end_dtc":"2024-09-22","visit":null},{"seq":"32","trt":"TIRZEPATIDE","dose":"15.0","doseu":null,"dosef":"QW","route":"SUBCUTANEOUS","start_dtc":"2024-09-29","end_dtc":"2024-09-29","visit":null},{"seq":"33","trt":"TIRZEPATIDE","dose":"15.0","doseu":null,"dosef":"QW","route":"SUBCUTANEOUS","start_dtc":"2024-10-06","end_dtc":"2024-10-06","visit":"WEEK 32"},{"seq":"34","trt":"TIRZEPATIDE","dose":"15.0","doseu":null,"dosef":"QW","route":"SUBCUTANEOUS","start_dtc":"2024-10-13","end_dtc":"2024-10-13","visit":null},{"seq":"35","trt":"TIRZEPATIDE","dose":"15.0","doseu":null,"dosef":"QW","route":"SUBCUTANEOUS","start_dtc":"2024-10-20","end_dtc":"2024-10-20","visit":null},{"seq":"36","trt":"TIRZEPATIDE","dose":"15.0","doseu":null,"dosef":"QW","route":"SUBCUTANEOUS","start_dtc":"2024-10-27","end_dtc":"2024-10-27","visit":null},{"seq":"37","trt":"TIRZEPATIDE","dose":"15.0","doseu":null,"dosef":"QW","route":"SUBCUTANEOUS","start_dtc":"2024-11-03","end_dtc":"2024-11-03","visit":null},{"seq":"38","trt":"TIRZEPATIDE","dose":"15.0","doseu":null,"dosef":"QW","route":"SUBCUTANEOUS","start_dtc":"2024-11-10","end_dtc":"2024-11-10","visit":null},{"seq":"39","trt":"TIRZEPATIDE","dose":"15.0","doseu":null,"dosef":"QW","route":"SUBCUTANEOUS","start_dtc":"2024-11-17","end_dtc":"2024-11-17","visit":null},{"seq":"40","trt":"TIRZEPATIDE","dose":"15.0","doseu":null,"dosef":"QW","route":"SUBCUTANEOUS","start_dtc":"2024-11-24","end_dtc":"2024-11-24","visit":null},{"seq":"41","trt":"TIRZEPATIDE","dose":"15.0","doseu":null,"dosef":"QW","route":"SUBCUTANEOUS","start_dtc":"2024-12-01","end_dtc":"2024-12-01","visit":"WEEK 40"},{"seq":"42","trt":"TIRZEPATIDE","dose":"15.0","doseu":null,"dosef":"QW","route":"SUBCUTANEOUS","start_dtc":"2024-12-08","end_dtc":"2024-12-08","visit":null},{"seq":"43","trt":"TIRZEPATIDE","dose":null,"doseu":null,"dosef":"QW","route":"SUBCUTANEOUS","start_dtc":"2024-12-15","end_dtc":"2024-12-15","visit":null},{"seq":"44","trt":"TIRZEPATIDE","dose":"15.0","doseu":null,"dosef":"QW","route":"SUBCUTANEOUS","start_dtc":"2024-12-22","end_dtc":"2024-12-22","visit":null},{"seq":"45","trt":"TIRZEPATIDE","dose":"15.0","doseu":null,"dosef":"QW","route":"SUBCUTANEOUS","start_dtc":"2024-12-29","end_dtc":"2024-12-29","visit":null},{"seq":"46","trt":"TIRZEPATIDE","dose":"15.0","doseu":null,"dosef":"QW","route":"SUBCUTANEOUS","start_dtc":"2025-01-05","end_dtc":"2025-01-05","visit":null},{"seq":"47","trt":"TIRZEPATIDE","dose":"15.0","doseu":null,"dosef":"QW","route":"SUBCUTANEOUS","start_dtc":"2025-01-12","end_dtc":"2025-01-12","visit":null},{"seq":"48","trt":"TIRZEPATIDE","dose":null,"doseu":null,"dosef":"QW","route":"SUBCUTANEOUS","start_dtc":"2025-01-19","end_dtc":"2025-01-19","visit":null},{"seq":"49","trt":"TIRZEPATIDE","dose":"15.0","doseu":null,"dosef":"QW","route":"SUBCUTANEOUS","start_dtc":"2025-01-26","end_dtc":"2025-01-26","visit":null},{"seq":"50","trt":"TIRZEPATIDE","dose":"15.0","doseu":null,"dosef":"QW","route":"SUBCUTANEOUS","start_dtc":"2025-02-02","end_dtc":"2025-02-02","visit":null},{"seq":"51","trt":"TIRZEPATIDE","dose":"15.0","doseu":null,"dosef":"QW","route":"SUBCUTANEOUS","start_dtc":"2025-02-09","end_dtc":"2025-02-09","visit":null},{"seq":"52","trt":"TIRZEPATIDE","dose":"15.0","doseu":null,"dosef":"QW","route":"SUBCUTANEOUS","start_dtc":"2025-02-16","end_dtc":"2025-02-16","visit":null}]},"section_7_adverse_events":{"summary":{"total_aes":32,"serious_aes":3,"fatal_aes":0,"by_severity":{"MODERATE":17,"SEVERE":3,"MILD":12},"by_soc":{"Gastrointestinal disorders":26,"Hepatobiliary disorders":1,"Metabolism and nutrition disorders":4,"Nervous system disorders":1}},"events":[{"seq":"1","term":"NAUSEA","decod":"Nausea","llt":"Nausea","hlt":"Nausea and vomiting symptoms","hlgt":"Gastrointestinal signs and symptoms","soc":"Gastrointestinal disorders","bodsys":"Gastrointestinal disorders","severity":"MODERATE","serious":"N","causality":"NOT RELATED","action_taken":"DOSE NOT CHANGED","outcome":"RECOVERED/RESOLVED","fatal":"N","hospitalization":"N","life_threatening":"N","onset_dtc":"2024-02-28","end_dtc":"2024-03-01","onset_dy":"4","end_dy":"6","duration":null,"epoch":"TREATMENT","visit":null,"supplemental":{"AETRTEM":"Y"}},{"seq":"2","term":"CHOLELITHIASIS","decod":"Cholelithiasis","llt":"Cholelithiasis","hlt":"Gallbladder disorders","hlgt":"Hepatobiliary disorders NEC","soc":"Hepatobiliary disorders","bodsys":"Hepatobiliary disorders","severity":"MODERATE","serious":"N","causality":"NOT RELATED","action_taken":"DOSE NOT CHANGED","outcome":"RECOVERED/RESOLVED","fatal":"N","hospitalization":"N","life_threatening":"N","onset_dtc":"2024-03-02","end_dtc":"2024-03-10","onset_dy":"7","end_dy":"15","duration":null,"epoch":"TREATMENT","visit":null,"supplemental":{"AETRTEM":"Y"}},{"seq":"3","term":"DECREASED APPETITE","decod":"Decreased appetite","llt":"Decreased appetite","hlt":"Appetite disorders","hlgt":"Eating disorders and disturbances","soc":"Metabolism and nutrition disorders","bodsys":"Metabolism and nutrition disorders","severity":"MODERATE","serious":"N","causality":"UNLIKELY RELATED","action_taken":"DOSE NOT CHANGED","outcome":"RECOVERED/RESOLVED WITH SEQUELAE","fatal":"N","hospitalization":"N","life_threatening":"N","onset_dtc":"2024-03-16","end_dtc":"2024-04-04","onset_dy":"21","end_dy":"40","duration":null,"epoch":"TREATMENT","visit":null,"supplemental":{"AETRTEM":"Y"}},{"seq":"4","term":"FLATULENCE","decod":"Flatulence","llt":"Flatulence","hlt":"Flatulence, bloating and distension","hlgt":"Gastrointestinal signs and symptoms","soc":"Gastrointestinal disorders","bodsys":"Gastrointestinal disorders","severity":"MODERATE","serious":"N","causality":"POSSIBLY RELATED","action_taken":"DOSE NOT CHANGED","outcome":"RECOVERING/RESOLVING","fatal":"N","hospitalization":"N","life_threatening":"N","onset_dtc":"2024-04-14","end_dtc":"2024-05-02","onset_dy":"50","end_dy":"68","duration":null,"epoch":"TREATMENT","visit":null,"supplemental":{"AETRTEM":"Y"}},{"seq":"5","term":"CONSTIPATION","decod":"Constipation","llt":"Constipation","hlt":"Gastrointestinal motility and defaecation conditions NEC","hlgt":"Gastrointestinal motility and defaecation conditions","soc":"Gastrointestinal disorders","bodsys":"Gastrointestinal disorders","severity":"MODERATE","serious":"N","causality":"UNLIKELY RELATED","action_taken":"DOSE NOT CHANGED","outcome":"RECOVERING/RESOLVING","fatal":"N","hospitalization":"N","life_threatening":"N","onset_dtc":"2024-04-25","end_dtc":"2024-05-19","onset_dy":"61","end_dy":"85","duration":null,"epoch":"TREATMENT","visit":null,"supplemental":{"AETRTEM":"Y"}},{"seq":"6","term":"DECREASED APPETITE","decod":"Decreased appetite","llt":"Decreased appetite","hlt":"Appetite disorders","hlgt":"Eating disorders and disturbances","soc":"Metabolism and nutrition disorders","bodsys":"Metabolism and nutrition disorders","severity":"SEVERE","serious":"Y","causality":"NOT RELATED","action_taken":"DOSE NOT CHANGED","outcome":"RECOVERED/RESOLVED","fatal":"N","hospitalization":"Y","life_threatening":"N","onset_dtc":"2024-05-07","end_dtc":"2024-05-15","onset_dy":"73","end_dy":"81","duration":null,"epoch":"TREATMENT","visit":null,"supplemental":{"AETRTEM":"Y"}},{"seq":"7","term":"CONSTIPATION","decod":"Constipation","llt":"Constipation","hlt":"Gastrointestinal motility and defaecation conditions NEC","hlgt":"Gastrointestinal motility and defaecation conditions","soc":"Gastrointestinal disorders","bodsys":"Gastrointestinal disorders","severity":"MODERATE","serious":"N","causality":"POSSIBLY RELATED","action_taken":"DOSE REDUCED","outcome":"RECOVERED/RESOLVED","fatal":"N","hospitalization":"N","life_threatening":"N","onset_dtc":"2024-05-13","end_dtc":"2024-06-11","onset_dy":"79","end_dy":"108","duration":null,"epoch":"TREATMENT","visit":null,"supplemental":{"AETRTEM":"Y"}},{"seq":"8","term":"HEADACHE","decod":"Headache","llt":"Headache","hlt":"Headaches NEC","hlgt":"Headaches","soc":"Nervous system disorders","bodsys":"Nervous system disorders","severity":"MILD","serious":"N","causality":"NOT RELATED","action_taken":"DOSE NOT CHANGED","outcome":"NOT RECOVERED/NOT RESOLVED","fatal":"N","hospitalization":"N","life_threatening":"N","onset_dtc":"2024-05-14","end_dtc":null,"onset_dy":"80","end_dy":null,"duration":null,"epoch":"TREATMENT","visit":null,"supplemental":{"AETRTEM":"Y"}},{"seq":"9","term":"VOMITING","decod":"Vomiting","llt":"Vomiting","hlt":"Nausea and vomiting symptoms","hlgt":"Gastrointestinal signs and symptoms","soc":"Gastrointestinal disorders","bodsys":"Gastrointestinal disorders","severity":"MODERATE","serious":"N","causality":"NOT RELATED","action_taken":"DOSE NOT CHANGED","outcome":"RECOVERED/RESOLVED","fatal":"N","hospitalization":"N","life_threatening":"N","onset_dtc":"2024-06-15","end_dtc":"2024-06-16","onset_dy":"112","end_dy":"113","duration":null,"epoch":"TREATMENT","visit":null,"supplemental":{"AETRTEM":"Y"}},{"seq":"10","term":"VOMITING","decod":"Vomiting","llt":"Vomiting","hlt":"Nausea and vomiting symptoms","hlgt":"Gastrointestinal signs and symptoms","soc":"Gastrointestinal disorders","bodsys":"Gastrointestinal disorders","severity":"MODERATE","serious":"N","causality":"NOT RELATED","action_taken":"DOSE NOT CHANGED","outcome":"RECOVERED/RESOLVED","fatal":"N","hospitalization":"N","life_threatening":"N","onset_dtc":"2024-06-17","end_dtc":"2024-06-21","onset_dy":"114","end_dy":"118","duration":null,"epoch":"TREATMENT","visit":null,"supplemental":{"AETRTEM":"Y"}},{"seq":"11","term":"DIARRHOEA","decod":"Diarrhoea","llt":"Diarrhoea","hlt":"Diarrhoea (excl infective)","hlgt":"Gastrointestinal motility and defaecation conditions","soc":"Gastrointestinal disorders","bodsys":"Gastrointestinal disorders","severity":"MODERATE","serious":"N","causality":"PROBABLY RELATED","action_taken":"DRUG INTERRUPTED","outcome":"UNKNOWN","fatal":"N","hospitalization":"N","life_threatening":"N","onset_dtc":"2024-06-23","end_dtc":"2024-06-25","onset_dy":"120","end_dy":"122","duration":null,"epoch":"TREATMENT","visit":null,"supplemental":{"AETRTEM":"Y"}},{"seq":"12","term":"CONSTIPATION","decod":"Constipation","llt":"Constipation","hlt":"Gastrointestinal motility and defaecation conditions NEC","hlgt":"Gastrointestinal motility and defaecation conditions","soc":"Gastrointestinal disorders","bodsys":"Gastrointestinal disorders","severity":"SEVERE","serious":"Y","causality":"NOT RELATED","action_taken":"DOSE NOT CHANGED","outcome":"RECOVERED/RESOLVED","fatal":"N","hospitalization":"Y","life_threatening":"N","onset_dtc":"2024-07-13","end_dtc":"2024-07-20","onset_dy":"140","end_dy":"147","duration":null,"epoch":"TREATMENT","visit":null,"supplemental":{"AETRTEM":"Y"}},{"seq":"13","term":"DIARRHOEA","decod":"Diarrhoea","llt":"Diarrhoea","hlt":"Diarrhoea (excl infective)","hlgt":"Gastrointestinal motility and defaecation conditions","soc":"Gastrointestinal disorders","bodsys":"Gastrointestinal disorders","severity":"MODERATE","serious":"N","causality":"UNLIKELY RELATED","action_taken":"DOSE NOT CHANGED","outcome":"RECOVERED/RESOLVED","fatal":"N","hospitalization":"N","life_threatening":"N","onset_dtc":"2024-07-15","end_dtc":"2024-07-22","onset_dy":"142","end_dy":"149","duration":null,"epoch":"TREATMENT","visit":null,"supplemental":{"AETRTEM":"Y"}},{"seq":"14","term":"DYSPEPSIA","decod":"Dyspepsia","llt":"Dyspepsia","hlt":"Dyspeptic signs and symptoms","hlgt":"Gastrointestinal signs and symptoms","soc":"Gastrointestinal disorders","bodsys":"Gastrointestinal disorders","severity":"MODERATE","serious":"N","causality":"NOT RELATED","action_taken":"DOSE NOT CHANGED","outcome":"RECOVERED/RESOLVED","fatal":"N","hospitalization":"N","life_threatening":"N","onset_dtc":"2024-07-25","end_dtc":"2024-08-16","onset_dy":"152","end_dy":"174","duration":null,"epoch":"TREATMENT","visit":null,"supplemental":{"AETRTEM":"Y"}},{"seq":"15","term":"NAUSEA","decod":"Nausea","llt":"Nausea","hlt":"Nausea and vomiting symptoms","hlgt":"Gastrointestinal signs and symptoms","soc":"Gastrointestinal disorders","bodsys":"Gastrointestinal disorders","severity":"MILD","serious":"N","causality":"NOT RELATED","action_taken":"DOSE NOT CHANGED","outcome":"NOT RECOVERED/NOT RESOLVED","fatal":"N","hospitalization":"N","life_threatening":"N","onset_dtc":"2024-08-01","end_dtc":null,"onset_dy":"159","end_dy":null,"duration":null,"epoch":"TREATMENT","visit":null,"supplemental":{"AETRTEM":"Y"}},{"seq":"16","term":"DIARRHOEA","decod":"Diarrhoea","llt":"Diarrhoea","hlt":"Diarrhoea (excl infective)","hlgt":"Gastrointestinal motility and defaecation conditions","soc":"Gastrointestinal disorders","bodsys":"Gastrointestinal disorders","severity":"MILD","serious":"N","causality":"NOT RELATED","action_taken":"DOSE NOT CHANGED","outcome":"RECOVERED/RESOLVED","fatal":"N","hospitalization":"N","life_threatening":"N","onset_dtc":"2024-08-06","end_dtc":"2024-08-07","onset_dy":"164","end_dy":"165","duration":null,"epoch":"TREATMENT","visit":null,"supplemental":{"AETRTEM":"Y"}},{"seq":"17","term":"NAUSEA","decod":"Nausea","llt":"Nausea","hlt":"Nausea and vomiting symptoms","hlgt":"Gastrointestinal signs and symptoms","soc":"Gastrointestinal disorders","bodsys":"Gastrointestinal disorders","severity":"MILD","serious":"N","causality":"NOT RELATED","action_taken":"DOSE NOT CHANGED","outcome":"RECOVERED/RESOLVED","fatal":"N","hospitalization":"N","life_threatening":"N","onset_dtc":"2024-08-17","end_dtc":"2024-08-18","onset_dy":"175","end_dy":"176","duration":null,"epoch":"TREATMENT","visit":null,"supplemental":{"AETRTEM":"Y"}},{"seq":"18","term":"NAUSEA","decod":"Nausea","llt":"Nausea","hlt":"Nausea and vomiting symptoms","hlgt":"Gastrointestinal signs and symptoms","soc":"Gastrointestinal disorders","bodsys":"Gastrointestinal disorders","severity":"MODERATE","serious":"N","causality":"NOT RELATED","action_taken":"DOSE NOT CHANGED","outcome":"RECOVERED/RESOLVED","fatal":"N","hospitalization":"N","life_threatening":"N","onset_dtc":"2024-08-24","end_dtc":"2024-08-28","onset_dy":"182","end_dy":"186","duration":null,"epoch":"TREATMENT","visit":null,"supplemental":{"AETRTEM":"Y"}},{"seq":"19","term":"DECREASED APPETITE","decod":"Decreased appetite","llt":"Decreased appetite","hlt":"Appetite disorders","hlgt":"Eating disorders and disturbances","soc":"Metabolism and nutrition disorders","bodsys":"Metabolism and nutrition disorders","severity":"MILD","serious":"N","causality":"NOT RELATED","action_taken":"DOSE NOT CHANGED","outcome":"RECOVERED/RESOLVED WITH SEQUELAE","fatal":"N","hospitalization":"N","life_threatening":"N","onset_dtc":"2024-08-28","end_dtc":"2024-09-03","onset_dy":"186","end_dy":"192","duration":null,"epoch":"TREATMENT","visit":null,"supplemental":{"AETRTEM":"Y"}},{"seq":"20","term":"DIARRHOEA","decod":"Diarrhoea","llt":"Diarrhoea","hlt":"Diarrhoea (excl infective)","hlgt":"Gastrointestinal motility and defaecation conditions","soc":"Gastrointestinal disorders","bodsys":"Gastrointestinal disorders","severity":"MODERATE","serious":"N","causality":"PROBABLY RELATED","action_taken":"DOSE NOT CHANGED","outcome":"RECOVERED/RESOLVED","fatal":"N","hospitalization":"N","life_threatening":"N","onset_dtc":"2024-09-02","end_dtc":"2024-09-07","onset_dy":"191","end_dy":"196","duration":null,"epoch":"TREATMENT","visit":null,"supplemental":{"AETRTEM":"Y"}},{"seq":"21","term":"DYSPEPSIA","decod":"Dyspepsia","llt":"Dyspepsia","hlt":"Dyspeptic signs and symptoms","hlgt":"Gastrointestinal signs and symptoms","soc":"Gastrointestinal disorders","bodsys":"Gastrointestinal disorders","severity":"MILD","serious":"N","causality":"NOT RELATED","action_taken":"DOSE NOT CHANGED","outcome":"NOT RECOVERED/NOT RESOLVED","fatal":"N","hospitalization":"N","life_threatening":"N","onset_dtc":"2024-09-23","end_dtc":null,"onset_dy":"212","end_dy":null,"duration":null,"epoch":"TREATMENT","visit":null,"supplemental":{"AETRTEM":"Y"}},{"seq":"22","term":"CONSTIPATION","decod":"Constipation","llt":"Constipation","hlt":"Gastrointestinal motility and defaecation conditions NEC","hlgt":"Gastrointestinal motility and defaecation conditions","soc":"Gastrointestinal disorders","bodsys":"Gastrointestinal disorders","severity":"MODERATE","serious":"N","causality":"POSSIBLY RELATED","action_taken":"DRUG INTERRUPTED","outcome":"RECOVERED/RESOLVED","fatal":"N","hospitalization":"N","life_threatening":"N","onset_dtc":"2024-10-06","end_dtc":"2024-10-11","onset_dy":"225","end_dy":"230","duration":null,"epoch":"TREATMENT","visit":null,"supplemental":{"AETRTEM":"Y"}},{"seq":"23","term":"DECREASED APPETITE","decod":"Decreased appetite","llt":"Decreased appetite","hlt":"Appetite disorders","hlgt":"Eating disorders and disturbances","soc":"Metabolism and nutrition disorders","bodsys":"Metabolism and nutrition disorders","severity":"MILD","serious":"N","causality":"UNLIKELY RELATED","action_taken":"DOSE NOT CHANGED","outcome":"RECOVERED/RESOLVED","fatal":"N","hospitalization":"N","life_threatening":"N","onset_dtc":"2024-11-01","end_dtc":"2024-11-12","onset_dy":"251","end_dy":"262","duration":null,"epoch":"TREATMENT","visit":null,"supplemental":{"AETRTEM":"Y"}},{"seq":"24","term":"NAUSEA","decod":"Nausea","llt":"Nausea","hlt":"Nausea and vomiting symptoms","hlgt":"Gastrointestinal signs and symptoms","soc":"Gastrointestinal disorders","bodsys":"Gastrointestinal disorders","severity":"MILD","serious":"N","causality":"NOT RELATED","action_taken":"DOSE NOT CHANGED","outcome":"RECOVERED/RESOLVED","fatal":"N","hospitalization":"N","life_threatening":"N","onset_dtc":"2024-11-09","end_dtc":"2024-11-12","onset_dy":"259","end_dy":"262","duration":null,"epoch":"TREATMENT","visit":null,"supplemental":{"AETRTEM":"Y"}},{"seq":"25","term":"DIARRHOEA","decod":"Diarrhoea","llt":"Diarrhoea","hlt":"Diarrhoea (excl infective)","hlgt":"Gastrointestinal motility and defaecation conditions","soc":"Gastrointestinal disorders","bodsys":"Gastrointestinal disorders","severity":"SEVERE","serious":"Y","causality":"NOT RELATED","action_taken":"DOSE NOT CHANGED","outcome":"RECOVERED/RESOLVED","fatal":"N","hospitalization":"Y","life_threatening":"N","onset_dtc":"2024-11-23","end_dtc":"2024-12-20","onset_dy":"273","end_dy":"300","duration":null,"epoch":"TREATMENT","visit":null,"supplemental":{"AETRTEM":"Y"}},{"seq":"26","term":"CONSTIPATION","decod":"Constipation","llt":"Constipation","hlt":"Gastrointestinal motility and defaecation conditions NEC","hlgt":"Gastrointestinal motility and defaecation conditions","soc":"Gastrointestinal disorders","bodsys":"Gastrointestinal disorders","severity":"MILD","serious":"N","causality":"NOT RELATED","action_taken":"DOSE NOT CHANGED","outcome":"RECOVERED/RESOLVED","fatal":"N","hospitalization":"N","life_threatening":"N","onset_dtc":"2024-11-27","end_dtc":"2024-12-03","onset_dy":"277","end_dy":"283","duration":null,"epoch":"TREATMENT","visit":null,"supplemental":{"AETRTEM":"Y"}},{"seq":"27","term":"NAUSEA","decod":"Nausea","llt":"Nausea","hlt":"Nausea and vomiting symptoms","hlgt":"Gastrointestinal signs and symptoms","soc":"Gastrointestinal disorders","bodsys":"Gastrointestinal disorders","severity":"MILD","serious":"N","causality":"NOT RELATED","action_taken":"DOSE NOT CHANGED","outcome":"RECOVERED/RESOLVED WITH SEQUELAE","fatal":"N","hospitalization":"N","life_threatening":"N","onset_dtc":"2024-12-14","end_dtc":"2024-12-17","onset_dy":"294","end_dy":"297","duration":null,"epoch":"TREATMENT","visit":null,"supplemental":{"AETRTEM":"Y"}},{"seq":"28","term":"DIARRHOEA","decod":"Diarrhoea","llt":"Diarrhoea","hlt":"Diarrhoea (excl infective)","hlgt":"Gastrointestinal motility and defaecation conditions","soc":"Gastrointestinal disorders","bodsys":"Gastrointestinal disorders","severity":"MODERATE","serious":"N","causality":"NOT RELATED","action_taken":"DOSE NOT CHANGED","outcome":"RECOVERED/RESOLVED","fatal":"N","hospitalization":"N","life_threatening":"N","onset_dtc":"2024-12-21","end_dtc":"2024-12-29","onset_dy":"301","end_dy":"309","duration":null,"epoch":"TREATMENT","visit":null,"supplemental":{"AETRTEM":"Y"}},{"seq":"29","term":"DIARRHOEA","decod":"Diarrhoea","llt":"Diarrhoea","hlt":"Diarrhoea (excl infective)","hlgt":"Gastrointestinal motility and defaecation conditions","soc":"Gastrointestinal disorders","bodsys":"Gastrointestinal disorders","severity":"MILD","serious":"N","causality":"NOT RELATED","action_taken":"DOSE NOT CHANGED","outcome":"RECOVERED/RESOLVED","fatal":"N","hospitalization":"N","life_threatening":"N","onset_dtc":"2024-12-23","end_dtc":"2024-12-27","onset_dy":"303","end_dy":"307","duration":null,"epoch":"TREATMENT","visit":null,"supplemental":{"AETRTEM":"Y"}},{"seq":"30","term":"DYSPEPSIA","decod":"Dyspepsia","llt":"Dyspepsia","hlt":"Dyspeptic signs and symptoms","hlgt":"Gastrointestinal signs and symptoms","soc":"Gastrointestinal disorders","bodsys":"Gastrointestinal disorders","severity":"MODERATE","serious":"N","causality":"POSSIBLY RELATED","action_taken":"DRUG INTERRUPTED","outcome":"RECOVERED/RESOLVED","fatal":"N","hospitalization":"N","life_threatening":"N","onset_dtc":"2024-12-30","end_dtc":"2025-01-24","onset_dy":"310","end_dy":"335","duration":null,"epoch":"TREATMENT","visit":null,"supplemental":{"AETRTEM":"Y"}},{"seq":"31","term":"NAUSEA","decod":"Nausea","llt":"Nausea","hlt":"Nausea and vomiting symptoms","hlgt":"Gastrointestinal signs and symptoms","soc":"Gastrointestinal disorders","bodsys":"Gastrointestinal disorders","severity":"MODERATE","serious":"N","causality":"POSSIBLY RELATED","action_taken":"DOSE REDUCED","outcome":"RECOVERING/RESOLVING","fatal":"N","hospitalization":"N","life_threatening":"N","onset_dtc":"2025-01-06","end_dtc":"2025-01-13","onset_dy":"317","end_dy":"324","duration":null,"epoch":"TREATMENT","visit":null,"supplemental":{"AETRTEM":"Y"}},{"seq":"32","term":"NAUSEA","decod":"Nausea","llt":"Nausea","hlt":"Nausea and vomiting symptoms","hlgt":"Gastrointestinal signs and symptoms","soc":"Gastrointestinal disorders","bodsys":"Gastrointestinal disorders","severity":"MILD","serious":"N","causality":"NOT RELATED","action_taken":"DOSE NOT CHANGED","outcome":"RECOVERED/RESOLVED","fatal":"N","hospitalization":"N","life_threatening":"N","onset_dtc":"2025-02-04","end_dtc":"2025-02-07","onset_dy":"346","end_dy":"349","duration":null,"epoch":"TREATMENT","visit":null,"supplemental":{"AETRTEM":"Y"}}]},"section_8_laboratory_results":{"summary":{"total_records":63,"abnormal_count":15,"abnormal_pct":23.8},"shift_summary":[{"testcd":"ALT","baseline_value":28.29,"baseline_nrind":"NORMAL","worst_post_baseline_value":29.86,"worst_post_baseline_nrind":"NORMAL","worst_visit":"WEEK 32"},{"testcd":"AST","baseline_value":28.67,"baseline_nrind":"NORMAL","worst_post_baseline_value":31.56,"worst_post_baseline_nrind":"NORMAL","worst_visit":"WEEK 56 SAFETY FU"},{"testcd":"CREAT","baseline_value":73.04,"baseline_nrind":"NORMAL","worst_post_baseline_value":77.19,"worst_post_baseline_nrind":"NORMAL","worst_visit":"WEEK 12"},{"testcd":"GLUC","baseline_value":9.3,"baseline_nrind":"HIGH","worst_post_baseline_value":9.34,"worst_post_baseline_nrind":"HIGH","worst_visit":"WEEK 40"},{"testcd":"HGB","baseline_value":151.63,"baseline_nrind":"NORMAL","worst_post_baseline_value":147.9,"worst_post_baseline_nrind":"NORMAL","worst_visit":"WEEK 24"},{"testcd":"PLAT","baseline_value":278.57,"baseline_nrind":"NORMAL","worst_post_baseline_value":298.23,"worst_post_baseline_nrind":"NORMAL","worst_visit":"WEEK 12"},{"testcd":"WBC","baseline_value":11.79,"baseline_nrind":"HIGH","worst_post_baseline_value":11.61,"worst_post_baseline_nrind":"HIGH","worst_visit":"WEEK 32"}],"results":[{"seq":"1","testcd":"ALT","test":"Alanine Aminotransferase","cat":"CHEMISTRY","orres":"28.29","orresu":"U/L","stresc":"28.29","stresn":"28.29","stresu":"U/L","stnrlo":"7","stnrhi":"56","nrind":"NORMAL","fast":null,"dtc":"2024-01-10","dy":"-46","visit":"SCREENING","visitnum":"1.0","epoch":"SCREENING","spec":null,"method":null},{"seq":"2","testcd":"AST","test":"Aspartate Aminotransferase","cat":"CHEMISTRY","orres":"28.67","orresu":"U/L","stresc":"28.67","stresn":"28.67","stresu":"U/L","stnrlo":"10","stnrhi":"40","nrind":"NORMAL","fast":null,"dtc":"2024-01-10","dy":"-46","visit":"SCREENING","visitnum":"1.0","epoch":"SCREENING","spec":null,"method":null},{"seq":"3","testcd":"CREAT","test":"Creatinine","cat":"CHEMISTRY","orres":"73.04","orresu":"umol/L","stresc":"73.04","stresn":"73.04","stresu":"umol/L","stnrlo":"62","stnrhi":"106","nrind":"NORMAL","fast":null,"dtc":"2024-01-10","dy":"-46","visit":"SCREENING","visitnum":"1.0","epoch":"SCREENING","spec":null,"method":null},{"seq":"4","testcd":"GLUC","test":"Glucose","cat":"CHEMISTRY","orres":"9.3","orresu":"mmol/L","stresc":"9.3","stresn":"9.3","stresu":"mmol/L","stnrlo":"3.9","stnrhi":"5.6","nrind":"HIGH","fast":null,"dtc":"2024-01-10","dy":"-46","visit":"SCREENING","visitnum":"1.0","epoch":"SCREENING","spec":null,"method":null},{"seq":"5","testcd":"HGB","test":"Hemoglobin","cat":"HEMATOLOGY","orres":"151.63","orresu":"g/L","stresc":"151.63","stresn":"151.63","stresu":"g/L","stnrlo":"130","stnrhi":"175","nrind":"NORMAL","fast":null,"dtc":"2024-01-10","dy":"-46","visit":"SCREENING","visitnum":"1.0","epoch":"SCREENING","spec":null,"method":null},{"seq":"6","testcd":"PLAT","test":"Platelets","cat":"HEMATOLOGY","orres":"278.57","orresu":"10^9/L","stresc":"278.57","stresn":"278.57","stresu":"10^9/L","stnrlo":"150","stnrhi":"400","nrind":"NORMAL","fast":null,"dtc":"2024-01-10","dy":"-46","visit":"SCREENING","visitnum":"1.0","epoch":"SCREENING","spec":null,"method":null},{"seq":"7","testcd":"WBC","test":"Leukocytes","cat":"HEMATOLOGY","orres":"11.79","orresu":"10^9/L","stresc":"11.79","stresn":"11.79","stresu":"10^9/L","stnrlo":"4.0","stnrhi":"11.0","nrind":"HIGH","fast":null,"dtc":"2024-01-10","dy":"-46","visit":"SCREENING","visitnum":"1.0","epoch":"SCREENING","spec":null,"method":null},{"seq":"8","testcd":"ALT","test":"Alanine Aminotransferase","cat":"CHEMISTRY","orres":"26.59","orresu":"U/L","stresc":"26.59","stresn":"26.59","stresu":"U/L","stnrlo":"7","stnrhi":"56","nrind":"NORMAL","fast":null,"dtc":"2024-02-25","dy":"1","visit":"BASELINE","visitnum":"2.0","epoch":"TREATMENT","spec":null,"method":null},{"seq":"9","testcd":"AST","test":"Aspartate Aminotransferase","cat":"CHEMISTRY","orres":"30.37","orresu":"U/L","stresc":"30.37","stresn":"30.37","stresu":"U/L","stnrlo":"10","stnrhi":"40","nrind":"NORMAL","fast":null,"dtc":"2024-02-25","dy":"1","visit":"BASELINE","visitnum":"2.0","epoch":"TREATMENT","spec":null,"method":null},{"seq":"10","testcd":"CREAT","test":"Creatinine","cat":"CHEMISTRY","orres":"72.81","orresu":"umol/L","stresc":"72.81","stresn":"72.81","stresu":"umol/L","stnrlo":"62","stnrhi":"106","nrind":"NORMAL","fast":null,"dtc":"2024-02-25","dy":"1","visit":"BASELINE","visitnum":"2.0","epoch":"TREATMENT","spec":null,"method":null},{"seq":"11","testcd":"GLUC","test":"Glucose","cat":"CHEMISTRY","orres":"9.26","orresu":"mmol/L","stresc":"9.26","stresn":"9.26","stresu":"mmol/L","stnrlo":"3.9","stnrhi":"5.6","nrind":"HIGH","fast":null,"dtc":"2024-02-25","dy":"1","visit":"BASELINE","visitnum":"2.0","epoch":"TREATMENT","spec":null,"method":null},{"seq":"12","testcd":"HGB","test":"Hemoglobin","cat":"HEMATOLOGY","orres":"153.17","orresu":"g/L","stresc":"153.17","stresn":"153.17","stresu":"g/L","stnrlo":"130","stnrhi":"175","nrind":"NORMAL","fast":null,"dtc":"2024-02-25","dy":"1","visit":"BASELINE","visitnum":"2.0","epoch":"TREATMENT","spec":null,"method":null},{"seq":"13","testcd":"PLAT","test":"Platelets","cat":"HEMATOLOGY","orres":"282.23","orresu":"10^9/L","stresc":"282.23","stresn":"282.23","stresu":"10^9/L","stnrlo":"150","stnrhi":"400","nrind":"NORMAL","fast":null,"dtc":"2024-02-25","dy":"1","visit":"BASELINE","visitnum":"2.0","epoch":"TREATMENT","spec":null,"method":null},{"seq":"14","testcd":"WBC","test":"Leukocytes","cat":"HEMATOLOGY","orres":null,"orresu":null,"stresc":null,"stresn":null,"stresu":null,"stnrlo":null,"stnrhi":null,"nrind":null,"fast":null,"dtc":"2024-02-25","dy":"1","visit":"BASELINE","visitnum":"2.0","epoch":"TREATMENT","spec":null,"method":null},{"seq":"15","testcd":"ALT","test":"Alanine Aminotransferase","cat":"CHEMISTRY","orres":"28.31","orresu":"U/L","stresc":"28.31","stresn":"28.31","stresu":"U/L","stnrlo":"7","stnrhi":"56","nrind":"NORMAL","fast":null,"dtc":"2024-05-20","dy":"86","visit":"WEEK 12","visitnum":"5.0","epoch":"TREATMENT","spec":null,"method":null},{"seq":"16","testcd":"AST","test":"Aspartate Aminotransferase","cat":"CHEMISTRY","orres":"30.32","orresu":"U/L","stresc":"30.32","stresn":"30.32","stresu":"U/L","stnrlo":"10","stnrhi":"40","nrind":"NORMAL","fast":null,"dtc":"2024-05-20","dy":"86","visit":"WEEK 12","visitnum":"5.0","epoch":"TREATMENT","spec":null,"method":null},{"seq":"17","testcd":"CREAT","test":"Creatinine","cat":"CHEMISTRY","orres":"77.19","orresu":"umol/L","stresc":"77.19","stresn":"77.19","stresu":"umol/L","stnrlo":"62","stnrhi":"106","nrind":"NORMAL","fast":null,"dtc":"2024-05-20","dy":"86","visit":"WEEK 12","visitnum":"5.0","epoch":"TREATMENT","spec":null,"method":null},{"seq":"18","testcd":"GLUC","test":"Glucose","cat":"CHEMISTRY","orres":"9.04","orresu":"mmol/L","stresc":"9.04","stresn":"9.04","stresu":"mmol/L","stnrlo":"3.9","stnrhi":"5.6","nrind":"HIGH","fast":null,"dtc":"2024-05-20","dy":"86","visit":"WEEK 12","visitnum":"5.0","epoch":"TREATMENT","spec":null,"method":null},{"seq":"19","testcd":"HGB","test":"Hemoglobin","cat":"HEMATOLOGY","orres":"152.67","orresu":"g/L","stresc":"152.67","stresn":"152.67","stresu":"g/L","stnrlo":"130","stnrhi":"175","nrind":"NORMAL","fast":null,"dtc":"2024-05-20","dy":"86","visit":"WEEK 12","visitnum":"5.0","epoch":"TREATMENT","spec":null,"method":null},{"seq":"20","testcd":"PLAT","test":"Platelets","cat":"HEMATOLOGY","orres":"298.23","orresu":"10^9/L","stresc":"298.23","stresn":"298.23","stresu":"10^9/L","stnrlo":"150","stnrhi":"400","nrind":"NORMAL","fast":null,"dtc":"2024-05-20","dy":"86","visit":"WEEK 12","visitnum":"5.0","epoch":"TREATMENT","spec":null,"method":null},{"seq":"21","testcd":"WBC","test":"Leukocytes","cat":"HEMATOLOGY","orres":"11.46","orresu":"10^9/L","stresc":"11.46","stresn":"11.46","stresu":"10^9/L","stnrlo":"4.0","stnrhi":"11.0","nrind":"HIGH","fast":null,"dtc":"2024-05-20","dy":"86","visit":"WEEK 12","visitnum":"5.0","epoch":"TREATMENT","spec":null,"method":null},{"seq":"22","testcd":"ALT","test":"Alanine Aminotransferase","cat":"CHEMISTRY","orres":null,"orresu":null,"stresc":null,"stresn":null,"stresu":null,"stnrlo":null,"stnrhi":null,"nrind":null,"fast":null,"dtc":"2024-06-16","dy":"113","visit":"WEEK 16","visitnum":"6.0","epoch":"TREATMENT","spec":null,"method":null},{"seq":"23","testcd":"AST","test":"Aspartate Aminotransferase","cat":"CHEMISTRY","orres":"28.92","orresu":"U/L","stresc":"28.92","stresn":"28.92","stresu":"U/L","stnrlo":"10","stnrhi":"40","nrind":"NORMAL","fast":null,"dtc":"2024-06-16","dy":"113","visit":"WEEK 16","visitnum":"6.0","epoch":"TREATMENT","spec":null,"method":null},{"seq":"24","testcd":"CREAT","test":"Creatinine","cat":"CHEMISTRY","orres":"75.23","orresu":"umol/L","stresc":"75.23","stresn":"75.23","stresu":"umol/L","stnrlo":"62","stnrhi":"106","nrind":"NORMAL","fast":null,"dtc":"2024-06-16","dy":"113","visit":"WEEK 16","visitnum":"6.0","epoch":"TREATMENT","spec":null,"method":null},{"seq":"25","testcd":"GLUC","test":"Glucose","cat":"CHEMISTRY","orres":"9.21","orresu":"mmol/L","stresc":"9.21","stresn":"9.21","stresu":"mmol/L","stnrlo":"3.9","stnrhi":"5.6","nrind":"HIGH","fast":null,"dtc":"2024-06-16","dy":"113","visit":"WEEK 16","visitnum":"6.0","epoch":"TREATMENT","spec":null,"method":null},{"seq":"26","testcd":"HGB","test":"Hemoglobin","cat":"HEMATOLOGY","orres":"151.24","orresu":"g/L","stresc":"151.24","stresn":"151.24","stresu":"g/L","stnrlo":"130","stnrhi":"175","nrind":"NORMAL","fast":null,"dtc":"2024-06-16","dy":"113","visit":"WEEK 16","visitnum":"6.0","epoch":"TREATMENT","spec":null,"method":null},{"seq":"27","testcd":"PLAT","test":"Platelets","cat":"HEMATOLOGY","orres":"270.89","orresu":"10^9/L","stresc":"270.89","stresn":"270.89","stresu":"10^9/L","stnrlo":"150","stnrhi":"400","nrind":"NORMAL","fast":null,"dtc":"2024-06-16","dy":"113","visit":"WEEK 16","visitnum":"6.0","epoch":"TREATMENT","spec":null,"method":null},{"seq":"28","testcd":"WBC","test":"Leukocytes","cat":"HEMATOLOGY","orres":"11.03","orresu":"10^9/L","stresc":"11.03","stresn":"11.03","stresu":"10^9/L","stnrlo":"4.0","stnrhi":"11.0","nrind":"HIGH","fast":null,"dtc":"2024-06-16","dy":"113","visit":"WEEK 16","visitnum":"6.0","epoch":"TREATMENT","spec":null,"method":null},{"seq":"29","testcd":"ALT","test":"Alanine Aminotransferase","cat":"CHEMISTRY","orres":"28.92","orresu":"U/L","stresc":"28.92","stresn":"28.92","stresu":"U/L","stnrlo":"7","stnrhi":"56","nrind":"NORMAL","fast":null,"dtc":"2024-07-17","dy":"144","visit":"WEEK 20","visitnum":"7.0","epoch":"TREATMENT","spec":null,"method":null},{"seq":"30","testcd":"AST","test":"Aspartate Aminotransferase","cat":"CHEMISTRY","orres":"31.26","orresu":"U/L","stresc":"31.26","stresn":"31.26","stresu":"U/L","stnrlo":"10","stnrhi":"40","nrind":"NORMAL","fast":null,"dtc":"2024-07-17","dy":"144","visit":"WEEK 20","visitnum":"7.0","epoch":"TREATMENT","spec":null,"method":null},{"seq":"31","testcd":"CREAT","test":"Creatinine","cat":"CHEMISTRY","orres":"73.74","orresu":"umol/L","stresc":"73.74","stresn":"73.74","stresu":"umol/L","stnrlo":"62","stnrhi":"106","nrind":"NORMAL","fast":null,"dtc":"2024-07-17","dy":"144","visit":"WEEK 20","visitnum":"7.0","epoch":"TREATMENT","spec":null,"method":null},{"seq":"32","testcd":"GLUC","test":"Glucose","cat":"CHEMISTRY","orres":"9.25","orresu":"mmol/L","stresc":"9.25","stresn":"9.25","stresu":"mmol/L","stnrlo":"3.9","stnrhi":"5.6","nrind":"HIGH","fast":null,"dtc":"2024-07-17","dy":"144","visit":"WEEK 20","visitnum":"7.0","epoch":"TREATMENT","spec":null,"method":null},{"seq":"33","testcd":"HGB","test":"Hemoglobin","cat":"HEMATOLOGY","orres":"149.1","orresu":"g/L","stresc":"149.1","stresn":"149.1","stresu":"g/L","stnrlo":"130","stnrhi":"175","nrind":"NORMAL","fast":null,"dtc":"2024-07-17","dy":"144","visit":"WEEK 20","visitnum":"7.0","epoch":"TREATMENT","spec":null,"method":null},{"seq":"34","testcd":"PLAT","test":"Platelets","cat":"HEMATOLOGY","orres":"275.71","orresu":"10^9/L","stresc":"275.71","stresn":"275.71","stresu":"10^9/L","stnrlo":"150","stnrhi":"400","nrind":"NORMAL","fast":null,"dtc":"2024-07-17","dy":"144","visit":"WEEK 20","visitnum":"7.0","epoch":"TREATMENT","spec":null,"method":null},{"seq":"35","testcd":"WBC","test":"Leukocytes","cat":"HEMATOLOGY","orres":"10.83","orresu":"10^9/L","stresc":"10.83","stresn":"10.83","stresu":"10^9/L","stnrlo":"4.0","stnrhi":"11.0","nrind":"NORMAL","fast":null,"dtc":"2024-07-17","dy":"144","visit":"WEEK 20","visitnum":"7.0","epoch":"TREATMENT","spec":null,"method":null},{"seq":"36","testcd":"ALT","test":"Alanine Aminotransferase","cat":"CHEMISTRY","orres":"29.78","orresu":"U/L","stresc":"29.78","stresn":"29.78","stresu":"U/L","stnrlo":"7","stnrhi":"56","nrind":"NORMAL","fast":null,"dtc":"2024-08-12","dy":"170","visit":"WEEK 24","visitnum":"8.0","epoch":"TREATMENT","spec":null,"method":null},{"seq":"37","testcd":"AST","test":"Aspartate Aminotransferase","cat":"CHEMISTRY","orres":"30.89","orresu":"U/L","stresc":"30.89","stresn":"30.89","stresu":"U/L","stnrlo":"10","stnrhi":"40","nrind":"NORMAL","fast":null,"dtc":"2024-08-12","dy":"170","visit":"WEEK 24","visitnum":"8.0","epoch":"TREATMENT","spec":null,"method":null},{"seq":"38","testcd":"CREAT","test":"Creatinine","cat":"CHEMISTRY","orres":"72.71","orresu":"umol/L","stresc":"72.71","stresn":"72.71","stresu":"umol/L","stnrlo":"62","stnrhi":"106","nrind":"NORMAL","fast":null,"dtc":"2024-08-12","dy":"170","visit":"WEEK 24","visitnum":"8.0","epoch":"TREATMENT","spec":null,"method":null},{"seq":"39","testcd":"GLUC","test":"Glucose","cat":"CHEMISTRY","orres":"9.04","orresu":"mmol/L","stresc":"9.04","stresn":"9.04","stresu":"mmol/L","stnrlo":"3.9","stnrhi":"5.6","nrind":"HIGH","fast":null,"dtc":"2024-08-12","dy":"170","visit":"WEEK 24","visitnum":"8.0","epoch":"TREATMENT","spec":null,"method":null},{"seq":"40","testcd":"HGB","test":"Hemoglobin","cat":"HEMATOLOGY","orres":"147.9","orresu":"g/L","stresc":"147.9","stresn":"147.9","stresu":"g/L","stnrlo":"130","stnrhi":"175","nrind":"NORMAL","fast":null,"dtc":"2024-08-12","dy":"170","visit":"WEEK 24","visitnum":"8.0","epoch":"TREATMENT","spec":null,"method":null},{"seq":"41","testcd":"PLAT","test":"Platelets","cat":"HEMATOLOGY","orres":"266.34","orresu":"10^9/L","stresc":"266.34","stresn":"266.34","stresu":"10^9/L","stnrlo":"150","stnrhi":"400","nrind":"NORMAL","fast":null,"dtc":"2024-08-12","dy":"170","visit":"WEEK 24","visitnum":"8.0","epoch":"TREATMENT","spec":null,"method":null},{"seq":"42","testcd":"WBC","test":"Leukocytes","cat":"HEMATOLOGY","orres":"10.85","orresu":"10^9/L","stresc":"10.85","stresn":"10.85","stresu":"10^9/L","stnrlo":"4.0","stnrhi":"11.0","nrind":"NORMAL","fast":null,"dtc":"2024-08-12","dy":"170","visit":"WEEK 24","visitnum":"8.0","epoch":"TREATMENT","spec":null,"method":null},{"seq":"43","testcd":"ALT","test":"Alanine Aminotransferase","cat":"CHEMISTRY","orres":"29.86","orresu":"U/L","stresc":"29.86","stresn":"29.86","stresu":"U/L","stnrlo":"7","stnrhi":"56","nrind":"NORMAL","fast":null,"dtc":"2024-10-08","dy":"227","visit":"WEEK 32","visitnum":"9.0","epoch":"TREATMENT","spec":null,"method":null},{"seq":"44","testcd":"AST","test":"Aspartate Aminotransferase","cat":"CHEMISTRY","orres":"30.58","orresu":"U/L","stresc":"30.58","stresn":"30.58","stresu":"U/L","stnrlo":"10","stnrhi":"40","nrind":"NORMAL","fast":null,"dtc":"2024-10-08","dy":"227","visit":"WEEK 32","visitnum":"9.0","epoch":"TREATMENT","spec":null,"method":null},{"seq":"45","testcd":"CREAT","test":"Creatinine","cat":"CHEMISTRY","orres":"73.44","orresu":"umol/L","stresc":"73.44","stresn":"73.44","stresu":"umol/L","stnrlo":"62","stnrhi":"106","nrind":"NORMAL","fast":null,"dtc":"2024-10-08","dy":"227","visit":"WEEK 32","visitnum":"9.0","epoch":"TREATMENT","spec":null,"method":null},{"seq":"46","testcd":"GLUC","test":"Glucose","cat":"CHEMISTRY","orres":"9.24","orresu":"mmol/L","stresc":"9.24","stresn":"9.24","stresu":"mmol/L","stnrlo":"3.9","stnrhi":"5.6","nrind":"HIGH","fast":null,"dtc":"2024-10-08","dy":"227","visit":"WEEK 32","visitnum":"9.0","epoch":"TREATMENT","spec":null,"method":null},{"seq":"47","testcd":"HGB","test":"Hemoglobin","cat":"HEMATOLOGY","orres":"150.0","orresu":"g/L","stresc":"150.0","stresn":"150.0","stresu":"g/L","stnrlo":"130","stnrhi":"175","nrind":"NORMAL","fast":null,"dtc":"2024-10-08","dy":"227","visit":"WEEK 32","visitnum":"9.0","epoch":"TREATMENT","spec":null,"method":null},{"seq":"48","testcd":"PLAT","test":"Platelets","cat":"HEMATOLOGY","orres":"275.44","orresu":"10^9/L","stresc":"275.44","stresn":"275.44","stresu":"10^9/L","stnrlo":"150","stnrhi":"400","nrind":"NORMAL","fast":null,"dtc":"2024-10-08","dy":"227","visit":"WEEK 32","visitnum":"9.0","epoch":"TREATMENT","spec":null,"method":null},{"seq":"49","testcd":"WBC","test":"Leukocytes","cat":"HEMATOLOGY","orres":"11.61","orresu":"10^9/L","stresc":"11.61","stresn":"11.61","stresu":"10^9/L","stnrlo":"4.0","stnrhi":"11.0","nrind":"HIGH","fast":null,"dtc":"2024-10-08","dy":"227","visit":"WEEK 32","visitnum":"9.0","epoch":"TREATMENT","spec":null,"method":null},{"seq":"50","testcd":"ALT","test":"Alanine Aminotransferase","cat":"CHEMISTRY","orres":"28.8","orresu":"U/L","stresc":"28.8","stresn":"28.8","stresu":"U/L","stnrlo":"7","stnrhi":"56","nrind":"NORMAL","fast":null,"dtc":"2024-11-28","dy":"278","visit":"WEEK 40","visitnum":"10.0","epoch":"TREATMENT","spec":null,"method":null},{"seq":"51","testcd":"AST","test":"Aspartate Aminotransferase","cat":"CHEMISTRY","orres":"31.47","orresu":"U/L","stresc":"31.47","stresn":"31.47","stresu":"U/L","stnrlo":"10","stnrhi":"40","nrind":"NORMAL","fast":null,"dtc":"2024-11-28","dy":"278","visit":"WEEK 40","visitnum":"10.0","epoch":"TREATMENT","spec":null,"method":null},{"seq":"52","testcd":"CREAT","test":"Creatinine","cat":"CHEMISTRY","orres":"72.74","orresu":"umol/L","stresc":"72.74","stresn":"72.74","stresu":"umol/L","stnrlo":"62","stnrhi":"106","nrind":"NORMAL","fast":null,"dtc":"2024-11-28","dy":"278","visit":"WEEK 40","visitnum":"10.0","epoch":"TREATMENT","spec":null,"method":null},{"seq":"53","testcd":"GLUC","test":"Glucose","cat":"CHEMISTRY","orres":"9.34","orresu":"mmol/L","stresc":"9.34","stresn":"9.34","stresu":"mmol/L","stnrlo":"3.9","stnrhi":"5.6","nrind":"HIGH","fast":null,"dtc":"2024-11-28","dy":"278","visit":"WEEK 40","visitnum":"10.0","epoch":"TREATMENT","spec":null,"method":null},{"seq":"54","testcd":"HGB","test":"Hemoglobin","cat":"HEMATOLOGY","orres":"153.88","orresu":"g/L","stresc":"153.88","stresn":"153.88","stresu":"g/L","stnrlo":"130","stnrhi":"175","nrind":"NORMAL","fast":null,"dtc":"2024-11-28","dy":"278","visit":"WEEK 40","visitnum":"10.0","epoch":"TREATMENT","spec":null,"method":null},{"seq":"55","testcd":"PLAT","test":"Platelets","cat":"HEMATOLOGY","orres":"285.33","orresu":"10^9/L","stresc":"285.33","stresn":"285.33","stresu":"10^9/L","stnrlo":"150","stnrhi":"400","nrind":"NORMAL","fast":null,"dtc":"2024-11-28","dy":"278","visit":"WEEK 40","visitnum":"10.0","epoch":"TREATMENT","spec":null,"method":null},{"seq":"56","testcd":"WBC","test":"Leukocytes","cat":"HEMATOLOGY","orres":"11.32","orresu":"10^9/L","stresc":"11.32","stresn":"11.32","stresu":"10^9/L","stnrlo":"4.0","stnrhi":"11.0","nrind":"HIGH","fast":null,"dtc":"2024-11-28","dy":"278","visit":"WEEK 40","visitnum":"10.0","epoch":"TREATMENT","spec":null,"method":null},{"seq":"57","testcd":"ALT","test":"Alanine Aminotransferase","cat":"CHEMISTRY","orres":"27.6","orresu":"U/L","stresc":"27.6","stresn":"27.6","stresu":"U/L","stnrlo":"7","stnrhi":"56","nrind":"NORMAL","fast":null,"dtc":"2025-03-19","dy":"389","visit":"WEEK 56 SAFETY FU","visitnum":"12.0","epoch":"FOLLOW-UP","spec":null,"method":null},{"seq":"58","testcd":"AST","test":"Aspartate Aminotransferase","cat":"CHEMISTRY","orres":"31.56","orresu":"U/L","stresc":"31.56","stresn":"31.56","stresu":"U/L","stnrlo":"10","stnrhi":"40","nrind":"NORMAL","fast":null,"dtc":"2025-03-19","dy":"389","visit":"WEEK 56 SAFETY FU","visitnum":"12.0","epoch":"FOLLOW-UP","spec":null,"method":null},{"seq":"59","testcd":"CREAT","test":"Creatinine","cat":"CHEMISTRY","orres":"73.03","orresu":"umol/L","stresc":"73.03","stresn":"73.03","stresu":"umol/L","stnrlo":"62","stnrhi":"106","nrind":"NORMAL","fast":null,"dtc":"2025-03-19","dy":"389","visit":"WEEK 56 SAFETY FU","visitnum":"12.0","epoch":"FOLLOW-UP","spec":null,"method":null},{"seq":"60","testcd":"GLUC","test":"Glucose","cat":"CHEMISTRY","orres":"9.25","orresu":"mmol/L","stresc":"9.25","stresn":"9.25","stresu":"mmol/L","stnrlo":"3.9","stnrhi":"5.6","nrind":"HIGH","fast":null,"dtc":"2025-03-19","dy":"389","visit":"WEEK 56 SAFETY FU","visitnum":"12.0","epoch":"FOLLOW-UP","spec":null,"method":null},{"seq":"61","testcd":"HGB","test":"Hemoglobin","cat":"HEMATOLOGY","orres":"153.18","orresu":"g/L","stresc":"153.18","stresn":"153.18","stresu":"g/L","stnrlo":"130","stnrhi":"175","nrind":"NORMAL","fast":null,"dtc":"2025-03-19","dy":"389","visit":"WEEK 56 SAFETY FU","visitnum":"12.0","epoch":"FOLLOW-UP","spec":null,"method":null},{"seq":"62","testcd":"PLAT","test":"Platelets","cat":"HEMATOLOGY","orres":"283.08","orresu":"10^9/L","stresc":"283.08","stresn":"283.08","stresu":"10^9/L","stnrlo":"150","stnrhi":"400","nrind":"NORMAL","fast":null,"dtc":"2025-03-19","dy":"389","visit":"WEEK 56 SAFETY FU","visitnum":"12.0","epoch":"FOLLOW-UP","spec":null,"method":null},{"seq":"63","testcd":"WBC","test":"Leukocytes","cat":"HEMATOLOGY","orres":"11.35","orresu":"10^9/L","stresc":"11.35","stresn":"11.35","stresu":"10^9/L","stnrlo":"4.0","stnrhi":"11.0","nrind":"HIGH","fast":null,"dtc":"2025-03-19","dy":"389","visit":"WEEK 56 SAFETY FU","visitnum":"12.0","epoch":"FOLLOW-UP","spec":null,"method":null}]},"section_9_vital_signs":{"summary":{"total_records":96},"trends":{"BMI":[{"visit":"SCREENING","visitnum":"1.0","dtc":"2024-01-10","value":"24.2","unit":"kg/m2"},{"visit":"BASELINE","visitnum":"2.0","dtc":"2024-02-25","value":"24.1","unit":"kg/m2"},{"visit":"WEEK 4","visitnum":"3.0","dtc":"2024-03-26","value":"24.0","unit":"kg/m2"},{"visit":"WEEK 8","visitnum":"4.0","dtc":"2024-04-18","value":"24.4","unit":"kg/m2"},{"visit":"WEEK 12","visitnum":"5.0","dtc":"2024-05-20","value":"23.6","unit":"kg/m2"},{"visit":"WEEK 16","visitnum":"6.0","dtc":"2024-06-16","value":"20.9","unit":"kg/m2"},{"visit":"WEEK 20","visitnum":"7.0","dtc":"2024-07-17","value":"23.1","unit":"kg/m2"},{"visit":"WEEK 24","visitnum":"8.0","dtc":"2024-08-12","value":"22.6","unit":"kg/m2"},{"visit":"WEEK 32","visitnum":"9.0","dtc":"2024-10-08","value":"21.9","unit":"kg/m2"},{"visit":"WEEK 40","visitnum":"10.0","dtc":"2024-11-28","value":"21.8","unit":"kg/m2"},{"visit":"WEEK 52 EOT","visitnum":"11.0","dtc":"2025-02-17","value":"22.4","unit":"kg/m2"},{"visit":"WEEK 56 SAFETY FU","visitnum":"12.0","dtc":"2025-03-19","value":"22.9","unit":"kg/m2"}],"DIABP":[{"visit":"SCREENING","visitnum":"1.0","dtc":"2024-01-10","value":"80.9","unit":"mmHg"},{"visit":"BASELINE","visitnum":"2.0","dtc":"2024-02-25","value":"80.4","unit":"mmHg"},{"visit":"WEEK 4","visitnum":"3.0","dtc":"2024-03-26","value":"81.7","unit":"mmHg"},{"visit":"WEEK 8","visitnum":"4.0","dtc":"2024-04-18","value":"81.3","unit":"mmHg"},{"visit":"WEEK 12","visitnum":"5.0","dtc":"2024-05-20","value":"80.6","unit":"mmHg"},{"visit":"WEEK 16","visitnum":"6.0","dtc":"2024-06-16","value":"80.4","unit":"mmHg"},{"visit":"WEEK 20","visitnum":"7.0","dtc":"2024-07-17","value":"81.8","unit":"mmHg"},{"visit":"WEEK 24","visitnum":"8.0","dtc":"2024-08-12","value":"83.7","unit":"mmHg"},{"visit":"WEEK 32","visitnum":"9.0","dtc":"2024-10-08","value":"83.0","unit":"mmHg"},{"visit":"WEEK 40","visitnum":"10.0","dtc":"2024-11-28","value":"83.5","unit":"mmHg"},{"visit":"WEEK 56 SAFETY FU","visitnum":"12.0","dtc":"2025-03-19","value":"82.0","unit":"mmHg"}],"HEIGHT":[{"visit":"SCREENING","visitnum":"1.0","dtc":"2024-01-10","value":"158.2","unit":"cm"},{"visit":"BASELINE","visitnum":"2.0","dtc":"2024-02-25","value":"159.1","unit":"cm"},{"visit":"WEEK 4","visitnum":"3.0","dtc":"2024-03-26","value":"158.1","unit":"cm"},{"visit":"WEEK 8","visitnum":"4.0","dtc":"2024-04-18","value":"158.1","unit":"cm"},{"visit":"WEEK 12","visitnum":"5.0","dtc":"2024-05-20","value":"158.0","unit":"cm"},{"visit":"WEEK 16","visitnum":"6.0","dtc":"2024-06-16","value":"158.5","unit":"cm"},{"visit":"WEEK 20","visitnum":"7.0","dtc":"2024-07-17","value":"158.2","unit":"cm"},{"visit":"WEEK 24","visitnum":"8.0","dtc":"2024-08-12","value":"159.0","unit":"cm"},{"visit":"WEEK 32","visitnum":"9.0","dtc":"2024-10-08","value":"160.0","unit":"cm"},{"visit":"WEEK 40","visitnum":"10.0","dtc":"2024-11-28","value":"160.0","unit":"cm"},{"visit":"WEEK 52 EOT","visitnum":"11.0","dtc":"2025-02-17","value":"159.7","unit":"cm"},{"visit":"WEEK 56 SAFETY FU","visitnum":"12.0","dtc":"2025-03-19","value":"159.8","unit":"cm"}],"PULSE":[{"visit":"SCREENING","visitnum":"1.0","dtc":"2024-01-10","value":"82.1","unit":"beats/min"},{"visit":"BASELINE","visitnum":"2.0","dtc":"2024-02-25","value":"82.7","unit":"beats/min"},{"visit":"WEEK 4","visitnum":"3.0","dtc":"2024-03-26","value":"82.8","unit":"beats/min"},{"visit":"WEEK 8","visitnum":"4.0","dtc":"2024-04-18","value":"82.9","unit":"beats/min"},{"visit":"WEEK 12","visitnum":"5.0","dtc":"2024-05-20","value":"81.7","unit":"beats/min"},{"visit":"WEEK 16","visitnum":"6.0","dtc":"2024-06-16","value":"83.7","unit":"beats/min"},{"visit":"WEEK 20","visitnum":"7.0","dtc":"2024-07-17","value":"86.4","unit":"beats/min"},{"visit":"WEEK 24","visitnum":"8.0","dtc":"2024-08-12","value":"83.8","unit":"beats/min"},{"visit":"WEEK 32","visitnum":"9.0","dtc":"2024-10-08","value":"79.4","unit":"beats/min"},{"visit":"WEEK 40","visitnum":"10.0","dtc":"2024-11-28","value":"88.3","unit":"beats/min"},{"visit":"WEEK 52 EOT","visitnum":"11.0","dtc":"2025-02-17","value":"78.6","unit":"beats/min"},{"visit":"WEEK 56 SAFETY FU","visitnum":"12.0","dtc":"2025-03-19","value":"76.8","unit":"beats/min"}],"RESP":[{"visit":"SCREENING","visitnum":"1.0","dtc":"2024-01-10","value":"18.7","unit":"breaths/min"},{"visit":"BASELINE","visitnum":"2.0","dtc":"2024-02-25","value":"20.0","unit":"breaths/min"},{"visit":"WEEK 4","visitnum":"3.0","dtc":"2024-03-26","value":"19.9","unit":"breaths/min"},{"visit":"WEEK 8","visitnum":"4.0","dtc":"2024-04-18","value":"20.4","unit":"breaths/min"},{"visit":"WEEK 12","visitnum":"5.0","dtc":"2024-05-20","value":"21.4","unit":"breaths/min"},{"visit":"WEEK 16","visitnum":"6.0","dtc":"2024-06-16","value":"21.7","unit":"breaths/min"},{"visit":"WEEK 20","visitnum":"7.0","dtc":"2024-07-17","value":"21.3","unit":"breaths/min"},{"visit":"WEEK 24","visitnum":"8.0","dtc":"2024-08-12","value":"19.9","unit":"breaths/min"},{"visit":"WEEK 32","visitnum":"9.0","dtc":"2024-10-08","value":"20.5","unit":"breaths/min"},{"visit":"WEEK 52 EOT","visitnum":"11.0","dtc":"2025-02-17","value":"19.5","unit":"breaths/min"},{"visit":"WEEK 56 SAFETY FU","visitnum":"12.0","dtc":"2025-03-19","value":"20.1","unit":"breaths/min"}],"SYSBP":[{"visit":"SCREENING","visitnum":"1.0","dtc":"2024-01-10","value":"99.1","unit":"mmHg"},{"visit":"BASELINE","visitnum":"2.0","dtc":"2024-02-25","value":"99.9","unit":"mmHg"},{"visit":"WEEK 4","visitnum":"3.0","dtc":"2024-03-26","value":"100.8","unit":"mmHg"},{"visit":"WEEK 8","visitnum":"4.0","dtc":"2024-04-18","value":"100.3","unit":"mmHg"},{"visit":"WEEK 12","visitnum":"5.0","dtc":"2024-05-20","value":"100.2","unit":"mmHg"},{"visit":"WEEK 16","visitnum":"6.0","dtc":"2024-06-16","value":"99.5","unit":"mmHg"},{"visit":"WEEK 20","visitnum":"7.0","dtc":"2024-07-17","value":"100.1","unit":"mmHg"},{"visit":"WEEK 24","visitnum":"8.0","dtc":"2024-08-12","value":"101.2","unit":"mmHg"},{"visit":"WEEK 32","visitnum":"9.0","dtc":"2024-10-08","value":"101.0","unit":"mmHg"},{"visit":"WEEK 40","visitnum":"10.0","dtc":"2024-11-28","value":"103.0","unit":"mmHg"},{"visit":"WEEK 52 EOT","visitnum":"11.0","dtc":"2025-02-17","value":"102.1","unit":"mmHg"},{"visit":"WEEK 56 SAFETY FU","visitnum":"12.0","dtc":"2025-03-19","value":"100.9","unit":"mmHg"}],"TEMP":[{"visit":"SCREENING","visitnum":"1.0","dtc":"2024-01-10","value":"36.9","unit":"C"},{"visit":"BASELINE","visitnum":"2.0","dtc":"2024-02-25","value":"36.7","unit":"C"},{"visit":"WEEK 4","visitnum":"3.0","dtc":"2024-03-26","value":"36.8","unit":"C"},{"visit":"WEEK 8","visitnum":"4.0","dtc":"2024-04-18","value":"37.0","unit":"C"},{"visit":"WEEK 12","visitnum":"5.0","dtc":"2024-05-20","value":"36.8","unit":"C"},{"visit":"WEEK 16","visitnum":"6.0","dtc":"2024-06-16","value":"36.9","unit":"C"},{"visit":"WEEK 20","visitnum":"7.0","dtc":"2024-07-17","value":"36.9","unit":"C"},{"visit":"WEEK 24","visitnum":"8.0","dtc":"2024-08-12","value":"36.9","unit":"C"},{"visit":"WEEK 32","visitnum":"9.0","dtc":"2024-10-08","value":"37.0","unit":"C"},{"visit":"WEEK 40","visitnum":"10.0","dtc":"2024-11-28","value":"37.1","unit":"C"},{"visit":"WEEK 52 EOT","visitnum":"11.0","dtc":"2025-02-17","value":"37.0","unit":"C"},{"visit":"WEEK 56 SAFETY FU","visitnum":"12.0","dtc":"2025-03-19","value":"36.7","unit":"C"}],"WEIGHT":[{"visit":"SCREENING","visitnum":"1.0","dtc":"2024-01-10","value":"60.5","unit":"kg"},{"visit":"BASELINE","visitnum":"2.0","dtc":"2024-02-25","value":"60.9","unit":"kg"},{"visit":"WEEK 4","visitnum":"3.0","dtc":"2024-03-26","value":"60.0","unit":"kg"},{"visit":"WEEK 8","visitnum":"4.0","dtc":"2024-04-18","value":"60.9","unit":"kg"},{"visit":"WEEK 12","visitnum":"5.0","dtc":"2024-05-20","value":"59.0","unit":"kg"},{"visit":"WEEK 16","visitnum":"6.0","dtc":"2024-06-16","value":"52.6","unit":"kg"},{"visit":"WEEK 20","visitnum":"7.0","dtc":"2024-07-17","value":"57.9","unit":"kg"},{"visit":"WEEK 24","visitnum":"8.0","dtc":"2024-08-12","value":"57.2","unit":"kg"},{"visit":"WEEK 32","visitnum":"9.0","dtc":"2024-10-08","value":"56.1","unit":"kg"},{"visit":"WEEK 40","visitnum":"10.0","dtc":"2024-11-28","value":"55.9","unit":"kg"},{"visit":"WEEK 52 EOT","visitnum":"11.0","dtc":"2025-02-17","value":"57.1","unit":"kg"},{"visit":"WEEK 56 SAFETY FU","visitnum":"12.0","dtc":"2025-03-19","value":"58.4","unit":"kg"}]},"results":[{"seq":"1","testcd":"BMI","test":"BMI","cat":null,"orres":null,"orresu":null,"stresc":"24.2","stresn":"24.2","stresu":"kg/m2","stnrlo":null,"stnrhi":null,"nrind":null,"pos":null,"loc":null,"dtc":"2024-01-10","dy":"-46","visit":"SCREENING","visitnum":"1.0","epoch":"SCREENING"},{"seq":"2","testcd":"DIABP","test":"Diastolic Blood Pressure","cat":null,"orres":"80.9","orresu":"mmHg","stresc":"80.9","stresn":"80.9","stresu":"mmHg","stnrlo":null,"stnrhi":null,"nrind":null,"pos":null,"loc":null,"dtc":"2024-01-10","dy":"-46","visit":"SCREENING","visitnum":"1.0","epoch":"SCREENING"},{"seq":"3","testcd":"HEIGHT","test":"Height","cat":null,"orres":"158.2","orresu":"cm","stresc":"158.2","stresn":"158.2","stresu":"cm","stnrlo":null,"stnrhi":null,"nrind":null,"pos":null,"loc":null,"dtc":"2024-01-10","dy":"-46","visit":"SCREENING","visitnum":"1.0","epoch":"SCREENING"},{"seq":"4","testcd":"PULSE","test":"Pulse Rate","cat":null,"orres":"82.1","orresu":"beats/min","stresc":"82.1","stresn":"82.1","stresu":"beats/min","stnrlo":null,"stnrhi":null,"nrind":null,"pos":null,"loc":null,"dtc":"2024-01-10","dy":"-46","visit":"SCREENING","visitnum":"1.0","epoch":"SCREENING"},{"seq":"5","testcd":"RESP","test":"Respiratory Rate","cat":null,"orres":"18.7","orresu":"breaths/min","stresc":"18.7","stresn":"18.7","stresu":"breaths/min","stnrlo":null,"stnrhi":null,"nrind":null,"pos":null,"loc":null,"dtc":"2024-01-10","dy":"-46","visit":"SCREENING","visitnum":"1.0","epoch":"SCREENING"},{"seq":"6","testcd":"SYSBP","test":"Systolic Blood Pressure","cat":null,"orres":"99.1","orresu":"mmHg","stresc":"99.1","stresn":"99.1","stresu":"mmHg","stnrlo":null,"stnrhi":null,"nrind":null,"pos":null,"loc":null,"dtc":"2024-01-10","dy":"-46","visit":"SCREENING","visitnum":"1.0","epoch":"SCREENING"},{"seq":"7","testcd":"TEMP","test":"Temperature","cat":null,"orres":"36.9","orresu":"C","stresc":"36.9","stresn":"36.9","stresu":"C","stnrlo":null,"stnrhi":null,"nrind":null,"pos":null,"loc":null,"dtc":"2024-01-10","dy":"-46","visit":"SCREENING","visitnum":"1.0","epoch":"SCREENING"},{"seq":"8","testcd":"WEIGHT","test":"Weight","cat":null,"orres":"60.5","orresu":"kg","stresc":"60.5","stresn":"60.5","stresu":"kg","stnrlo":null,"stnrhi":null,"nrind":null,"pos":null,"loc":null,"dtc":"2024-01-10","dy":"-46","visit":"SCREENING","visitnum":"1.0","epoch":"SCREENING"},{"seq":"9","testcd":"BMI","test":"BMI","cat":null,"orres":null,"orresu":null,"stresc":"24.1","stresn":"24.1","stresu":"kg/m2","stnrlo":null,"stnrhi":null,"nrind":null,"pos":null,"loc":null,"dtc":"2024-02-25","dy":"1","visit":"BASELINE","visitnum":"2.0","epoch":"TREATMENT"},{"seq":"10","testcd":"DIABP","test":"Diastolic Blood Pressure","cat":null,"orres":"80.4","orresu":"mmHg","stresc":"80.4","stresn":"80.4","stresu":"mmHg","stnrlo":null,"stnrhi":null,"nrind":null,"pos":null,"loc":null,"dtc":"2024-02-25","dy":"1","visit":"BASELINE","visitnum":"2.0","epoch":"TREATMENT"},{"seq":"11","testcd":"HEIGHT","test":"Height","cat":null,"orres":"159.1","orresu":"cm","stresc":"159.1","stresn":"159.1","stresu":"cm","stnrlo":null,"stnrhi":null,"nrind":null,"pos":null,"loc":null,"dtc":"2024-02-25","dy":"1","visit":"BASELINE","visitnum":"2.0","epoch":"TREATMENT"},{"seq":"12","testcd":"PULSE","test":"Pulse Rate","cat":null,"orres":"82.7","orresu":"beats/min","stresc":"82.7","stresn":"82.7","stresu":"beats/min","stnrlo":null,"stnrhi":null,"nrind":null,"pos":null,"loc":null,"dtc":"2024-02-25","dy":"1","visit":"BASELINE","visitnum":"2.0","epoch":"TREATMENT"},{"seq":"13","testcd":"RESP","test":"Respiratory Rate","cat":null,"orres":"20.0","orresu":"breaths/min","stresc":"20.0","stresn":"20.0","stresu":"breaths/min","stnrlo":null,"stnrhi":null,"nrind":null,"pos":null,"loc":null,"dtc":"2024-02-25","dy":"1","visit":"BASELINE","visitnum":"2.0","epoch":"TREATMENT"},{"seq":"14","testcd":"SYSBP","test":"Systolic Blood Pressure","cat":null,"orres":"99.9","orresu":"mmHg","stresc":"99.9","stresn":"99.9","stresu":"mmHg","stnrlo":null,"stnrhi":null,"nrind":null,"pos":null,"loc":null,"dtc":"2024-02-25","dy":"1","visit":"BASELINE","visitnum":"2.0","epoch":"TREATMENT"},{"seq":"15","testcd":"TEMP","test":"Temperature","cat":null,"orres":"36.7","orresu":"C","stresc":"36.7","stresn":"36.7","stresu":"C","stnrlo":null,"stnrhi":null,"nrind":null,"pos":null,"loc":null,"dtc":"2024-02-25","dy":"1","visit":"BASELINE","visitnum":"2.0","epoch":"TREATMENT"},{"seq":"16","testcd":"WEIGHT","test":"Weight","cat":null,"orres":"60.9","orresu":"kg","stresc":"60.9","stresn":"60.9","stresu":"kg","stnrlo":null,"stnrhi":null,"nrind":null,"pos":null,"loc":null,"dtc":"2024-02-25","dy":"1","visit":"BASELINE","visitnum":"2.0","epoch":"TREATMENT"},{"seq":"17","testcd":"BMI","test":"BMI","cat":null,"orres":null,"orresu":null,"stresc":"24.0","stresn":"24.0","stresu":"kg/m2","stnrlo":null,"stnrhi":null,"nrind":null,"pos":null,"loc":null,"dtc":"2024-03-26","dy":"31","visit":"WEEK 4","visitnum":"3.0","epoch":"TREATMENT"},{"seq":"18","testcd":"DIABP","test":"Diastolic Blood Pressure","cat":null,"orres":"81.7","orresu":"mmHg","stresc":"81.7","stresn":"81.7","stresu":"mmHg","stnrlo":null,"stnrhi":null,"nrind":null,"pos":null,"loc":null,"dtc":"2024-03-26","dy":"31","visit":"WEEK 4","visitnum":"3.0","epoch":"TREATMENT"},{"seq":"19","testcd":"HEIGHT","test":"Height","cat":null,"orres":"158.1","orresu":"cm","stresc":"158.1","stresn":"158.1","stresu":"cm","stnrlo":null,"stnrhi":null,"nrind":null,"pos":null,"loc":null,"dtc":"2024-03-26","dy":"31","visit":"WEEK 4","visitnum":"3.0","epoch":"TREATMENT"},{"seq":"20","testcd":"PULSE","test":"Pulse Rate","cat":null,"orres":"82.8","orresu":"beats/min","stresc":"82.8","stresn":"82.8","stresu":"beats/min","stnrlo":null,"stnrhi":null,"nrind":null,"pos":null,"loc":null,"dtc":"2024-03-26","dy":"31","visit":"WEEK 4","visitnum":"3.0","epoch":"TREATMENT"},{"seq":"21","testcd":"RESP","test":"Respiratory Rate","cat":null,"orres":"19.9","orresu":"breaths/min","stresc":"19.9","stresn":"19.9","stresu":"breaths/min","stnrlo":null,"stnrhi":null,"nrind":null,"pos":null,"loc":null,"dtc":"2024-03-26","dy":"31","visit":"WEEK 4","visitnum":"3.0","epoch":"TREATMENT"},{"seq":"22","testcd":"SYSBP","test":"Systolic Blood Pressure","cat":null,"orres":"100.8","orresu":"mmHg","stresc":"100.8","stresn":"100.8","stresu":"mmHg","stnrlo":null,"stnrhi":null,"nrind":null,"pos":null,"loc":null,"dtc":"2024-03-26","dy":"31","visit":"WEEK 4","visitnum":"3.0","epoch":"TREATMENT"},{"seq":"23","testcd":"TEMP","test":"Temperature","cat":null,"orres":"36.8","orresu":"C","stresc":"36.8","stresn":"36.8","stresu":"C","stnrlo":null,"stnrhi":null,"nrind":null,"pos":null,"loc":null,"dtc":"2024-03-26","dy":"31","visit":"WEEK 4","visitnum":"3.0","epoch":"TREATMENT"},{"seq":"24","testcd":"WEIGHT","test":"Weight","cat":null,"orres":"60.0","orresu":"kg","stresc":"60.0","stresn":"60.0","stresu":"kg","stnrlo":null,"stnrhi":null,"nrind":null,"pos":null,"loc":null,"dtc":"2024-03-26","dy":"31","visit":"WEEK 4","visitnum":"3.0","epoch":"TREATMENT"},{"seq":"25","testcd":"BMI","test":"BMI","cat":null,"orres":null,"orresu":null,"stresc":"24.4","stresn":"24.4","stresu":"kg/m2","stnrlo":null,"stnrhi":null,"nrind":null,"pos":null,"loc":null,"dtc":"2024-04-18","dy":"54","visit":"WEEK 8","visitnum":"4.0","epoch":"TREATMENT"},{"seq":"26","testcd":"DIABP","test":"Diastolic Blood Pressure","cat":null,"orres":"81.3","orresu":"mmHg","stresc":"81.3","stresn":"81.3","stresu":"mmHg","stnrlo":null,"stnrhi":null,"nrind":null,"pos":null,"loc":null,"dtc":"2024-04-18","dy":"54","visit":"WEEK 8","visitnum":"4.0","epoch":"TREATMENT"},{"seq":"27","testcd":"HEIGHT","test":"Height","cat":null,"orres":"158.1","orresu":"cm","stresc":"158.1","stresn":"158.1","stresu":"cm","stnrlo":null,"stnrhi":null,"nrind":null,"pos":null,"loc":null,"dtc":"2024-04-18","dy":"54","visit":"WEEK 8","visitnum":"4.0","epoch":"TREATMENT"},{"seq":"28","testcd":"PULSE","test":"Pulse Rate","cat":null,"orres":"82.9","orresu":"beats/min","stresc":"82.9","stresn":"82.9","stresu":"beats/min","stnrlo":null,"stnrhi":null,"nrind":null,"pos":null,"loc":null,"dtc":"2024-04-18","dy":"54","visit":"WEEK 8","visitnum":"4.0","epoch":"TREATMENT"},{"seq":"29","testcd":"RESP","test":"Respiratory Rate","cat":null,"orres":"20.4","orresu":"breaths/min","stresc":"20.4","stresn":"20.4","stresu":"breaths/min","stnrlo":null,"stnrhi":null,"nrind":null,"pos":null,"loc":null,"dtc":"2024-04-18","dy":"54","visit":"WEEK 8","visitnum":"4.0","epoch":"TREATMENT"},{"seq":"30","testcd":"SYSBP","test":"Systolic Blood Pressure","cat":null,"orres":"100.3","orresu":"mmHg","stresc":"100.3","stresn":"100.3","stresu":"mmHg","stnrlo":null,"stnrhi":null,"nrind":null,"pos":null,"loc":null,"dtc":"2024-04-18","dy":"54","visit":"WEEK 8","visitnum":"4.0","epoch":"TREATMENT"},{"seq":"31","testcd":"TEMP","test":"Temperature","cat":null,"orres":"37.0","orresu":"C","stresc":"37.0","stresn":"37.0","stresu":"C","stnrlo":null,"stnrhi":null,"nrind":null,"pos":null,"loc":null,"dtc":"2024-04-18","dy":"54","visit":"WEEK 8","visitnum":"4.0","epoch":"TREATMENT"},{"seq":"32","testcd":"WEIGHT","test":"Weight","cat":null,"orres":"60.9","orresu":"kg","stresc":"60.9","stresn":"60.9","stresu":"kg","stnrlo":null,"stnrhi":null,"nrind":null,"pos":null,"loc":null,"dtc":"2024-04-18","dy":"54","visit":"WEEK 8","visitnum":"4.0","epoch":"TREATMENT"},{"seq":"33","testcd":"BMI","test":"BMI","cat":null,"orres":null,"orresu":null,"stresc":"23.6","stresn":"23.6","stresu":"kg/m2","stnrlo":null,"stnrhi":null,"nrind":null,"pos":null,"loc":null,"dtc":"2024-05-20","dy":"86","visit":"WEEK 12","visitnum":"5.0","epoch":"TREATMENT"},{"seq":"34","testcd":"DIABP","test":"Diastolic Blood Pressure","cat":null,"orres":"80.6","orresu":"mmHg","stresc":"80.6","stresn":"80.6","stresu":"mmHg","stnrlo":null,"stnrhi":null,"nrind":null,"pos":null,"loc":null,"dtc":"2024-05-20","dy":"86","visit":"WEEK 12","visitnum":"5.0","epoch":"TREATMENT"},{"seq":"35","testcd":"HEIGHT","test":"Height","cat":null,"orres":"158.0","orresu":"cm","stresc":"158.0","stresn":"158.0","stresu":"cm","stnrlo":null,"stnrhi":null,"nrind":null,"pos":null,"loc":null,"dtc":"2024-05-20","dy":"86","visit":"WEEK 12","visitnum":"5.0","epoch":"TREATMENT"},{"seq":"36","testcd":"PULSE","test":"Pulse Rate","cat":null,"orres":"81.7","orresu":"beats/min","stresc":"81.7","stresn":"81.7","stresu":"beats/min","stnrlo":null,"stnrhi":null,"nrind":null,"pos":null,"loc":null,"dtc":"2024-05-20","dy":"86","visit":"WEEK 12","visitnum":"5.0","epoch":"TREATMENT"},{"seq":"37","testcd":"RESP","test":"Respiratory Rate","cat":null,"orres":"21.4","orresu":"breaths/min","stresc":"21.4","stresn":"21.4","stresu":"breaths/min","stnrlo":null,"stnrhi":null,"nrind":null,"pos":null,"loc":null,"dtc":"2024-05-20","dy":"86","visit":"WEEK 12","visitnum":"5.0","epoch":"TREATMENT"},{"seq":"38","testcd":"SYSBP","test":"Systolic Blood Pressure","cat":null,"orres":"100.2","orresu":"mmHg","stresc":"100.2","stresn":"100.2","stresu":"mmHg","stnrlo":null,"stnrhi":null,"nrind":null,"pos":null,"loc":null,"dtc":"2024-05-20","dy":"86","visit":"WEEK 12","visitnum":"5.0","epoch":"TREATMENT"},{"seq":"39","testcd":"TEMP","test":"Temperature","cat":null,"orres":"36.8","orresu":"C","stresc":"36.8","stresn":"36.8","stresu":"C","stnrlo":null,"stnrhi":null,"nrind":null,"pos":null,"loc":null,"dtc":"2024-05-20","dy":"86","visit":"WEEK 12","visitnum":"5.0","epoch":"TREATMENT"},{"seq":"40","testcd":"WEIGHT","test":"Weight","cat":null,"orres":"59.0","orresu":"kg","stresc":"59.0","stresn":"59.0","stresu":"kg","stnrlo":null,"stnrhi":null,"nrind":null,"pos":null,"loc":null,"dtc":"2024-05-20","dy":"86","visit":"WEEK 12","visitnum":"5.0","epoch":"TREATMENT"},{"seq":"41","testcd":"BMI","test":"BMI","cat":null,"orres":null,"orresu":null,"stresc":"20.9","stresn":"20.9","stresu":"kg/m2","stnrlo":null,"stnrhi":null,"nrind":null,"pos":null,"loc":null,"dtc":"2024-06-16","dy":"113","visit":"WEEK 16","visitnum":"6.0","epoch":"TREATMENT"},{"seq":"42","testcd":"DIABP","test":"Diastolic Blood Pressure","cat":null,"orres":"80.4","orresu":"mmHg","stresc":"80.4","stresn":"80.4","stresu":"mmHg","stnrlo":null,"stnrhi":null,"nrind":null,"pos":null,"loc":null,"dtc":"2024-06-16","dy":"113","visit":"WEEK 16","visitnum":"6.0","epoch":"TREATMENT"},{"seq":"43","testcd":"HEIGHT","test":"Height","cat":null,"orres":"158.5","orresu":"cm","stresc":"158.5","stresn":"158.5","stresu":"cm","stnrlo":null,"stnrhi":null,"nrind":null,"pos":null,"loc":null,"dtc":"2024-06-16","dy":"113","visit":"WEEK 16","visitnum":"6.0","epoch":"TREATMENT"},{"seq":"44","testcd":"PULSE","test":"Pulse Rate","cat":null,"orres":"83.7","orresu":"beats/min","stresc":"83.7","stresn":"83.7","stresu":"beats/min","stnrlo":null,"stnrhi":null,"nrind":null,"pos":null,"loc":null,"dtc":"2024-06-16","dy":"113","visit":"WEEK 16","visitnum":"6.0","epoch":"TREATMENT"},{"seq":"45","testcd":"RESP","test":"Respiratory Rate","cat":null,"orres":"21.7","orresu":"breaths/min","stresc":"21.7","stresn":"21.7","stresu":"breaths/min","stnrlo":null,"stnrhi":null,"nrind":null,"pos":null,"loc":null,"dtc":"2024-06-16","dy":"113","visit":"WEEK 16","visitnum":"6.0","epoch":"TREATMENT"},{"seq":"46","testcd":"SYSBP","test":"Systolic Blood Pressure","cat":null,"orres":"99.5","orresu":"mmHg","stresc":"99.5","stresn":"99.5","stresu":"mmHg","stnrlo":null,"stnrhi":null,"nrind":null,"pos":null,"loc":null,"dtc":"2024-06-16","dy":"113","visit":"WEEK 16","visitnum":"6.0","epoch":"TREATMENT"},{"seq":"47","testcd":"TEMP","test":"Temperature","cat":null,"orres":"36.9","orresu":"C","stresc":"36.9","stresn":"36.9","stresu":"C","stnrlo":null,"stnrhi":null,"nrind":null,"pos":null,"loc":null,"dtc":"2024-06-16","dy":"113","visit":"WEEK 16","visitnum":"6.0","epoch":"TREATMENT"},{"seq":"48","testcd":"WEIGHT","test":"Weight","cat":null,"orres":"52.6","orresu":"kg","stresc":"52.6","stresn":"52.6","stresu":"kg","stnrlo":null,"stnrhi":null,"nrind":null,"pos":null,"loc":null,"dtc":"2024-06-16","dy":"113","visit":"WEEK 16","visitnum":"6.0","epoch":"TREATMENT"},{"seq":"49","testcd":"BMI","test":"BMI","cat":null,"orres":null,"orresu":null,"stresc":"23.1","stresn":"23.1","stresu":"kg/m2","stnrlo":null,"stnrhi":null,"nrind":null,"pos":null,"loc":null,"dtc":"2024-07-17","dy":"144","visit":"WEEK 20","visitnum":"7.0","epoch":"TREATMENT"},{"seq":"50","testcd":"DIABP","test":"Diastolic Blood Pressure","cat":null,"orres":"81.8","orresu":"mmHg","stresc":"81.8","stresn":"81.8","stresu":"mmHg","stnrlo":null,"stnrhi":null,"nrind":null,"pos":null,"loc":null,"dtc":"2024-07-17","dy":"144","visit":"WEEK 20","visitnum":"7.0","epoch":"TREATMENT"},{"seq":"51","testcd":"HEIGHT","test":"Height","cat":null,"orres":"158.2","orresu":"cm","stresc":"158.2","stresn":"158.2","stresu":"cm","stnrlo":null,"stnrhi":null,"nrind":null,"pos":null,"loc":null,"dtc":"2024-07-17","dy":"144","visit":"WEEK 20","visitnum":"7.0","epoch":"TREATMENT"},{"seq":"52","testcd":"PULSE","test":"Pulse Rate","cat":null,"orres":"86.4","orresu":"beats/min","stresc":"86.4","stresn":"86.4","stresu":"beats/min","stnrlo":null,"stnrhi":null,"nrind":null,"pos":null,"loc":null,"dtc":"2024-07-17","dy":"144","visit":"WEEK 20","visitnum":"7.0","epoch":"TREATMENT"},{"seq":"53","testcd":"RESP","test":"Respiratory Rate","cat":null,"orres":"21.3","orresu":"breaths/min","stresc":"21.3","stresn":"21.3","stresu":"breaths/min","stnrlo":null,"stnrhi":null,"nrind":null,"pos":null,"loc":null,"dtc":"2024-07-17","dy":"144","visit":"WEEK 20","visitnum":"7.0","epoch":"TREATMENT"},{"seq":"54","testcd":"SYSBP","test":"Systolic Blood Pressure","cat":null,"orres":"100.1","orresu":"mmHg","stresc":"100.1","stresn":"100.1","stresu":"mmHg","stnrlo":null,"stnrhi":null,"nrind":null,"pos":null,"loc":null,"dtc":"2024-07-17","dy":"144","visit":"WEEK 20","visitnum":"7.0","epoch":"TREATMENT"},{"seq":"55","testcd":"TEMP","test":"Temperature","cat":null,"orres":"36.9","orresu":"C","stresc":"36.9","stresn":"36.9","stresu":"C","stnrlo":null,"stnrhi":null,"nrind":null,"pos":null,"loc":null,"dtc":"2024-07-17","dy":"144","visit":"WEEK 20","visitnum":"7.0","epoch":"TREATMENT"},{"seq":"56","testcd":"WEIGHT","test":"Weight","cat":null,"orres":"57.9","orresu":"kg","stresc":"57.9","stresn":"57.9","stresu":"kg","stnrlo":null,"stnrhi":null,"nrind":null,"pos":null,"loc":null,"dtc":"2024-07-17","dy":"144","visit":"WEEK 20","visitnum":"7.0","epoch":"TREATMENT"},{"seq":"57","testcd":"BMI","test":"BMI","cat":null,"orres":null,"orresu":null,"stresc":"22.6","stresn":"22.6","stresu":"kg/m2","stnrlo":null,"stnrhi":null,"nrind":null,"pos":null,"loc":null,"dtc":"2024-08-12","dy":"170","visit":"WEEK 24","visitnum":"8.0","epoch":"TREATMENT"},{"seq":"58","testcd":"DIABP","test":"Diastolic Blood Pressure","cat":null,"orres":"83.7","orresu":"mmHg","stresc":"83.7","stresn":"83.7","stresu":"mmHg","stnrlo":null,"stnrhi":null,"nrind":null,"pos":null,"loc":null,"dtc":"2024-08-12","dy":"170","visit":"WEEK 24","visitnum":"8.0","epoch":"TREATMENT"},{"seq":"59","testcd":"HEIGHT","test":"Height","cat":null,"orres":"159.0","orresu":"cm","stresc":"159.0","stresn":"159.0","stresu":"cm","stnrlo":null,"stnrhi":null,"nrind":null,"pos":null,"loc":null,"dtc":"2024-08-12","dy":"170","visit":"WEEK 24","visitnum":"8.0","epoch":"TREATMENT"},{"seq":"60","testcd":"PULSE","test":"Pulse Rate","cat":null,"orres":"83.8","orresu":"beats/min","stresc":"83.8","stresn":"83.8","stresu":"beats/min","stnrlo":null,"stnrhi":null,"nrind":null,"pos":null,"loc":null,"dtc":"2024-08-12","dy":"170","visit":"WEEK 24","visitnum":"8.0","epoch":"TREATMENT"},{"seq":"61","testcd":"RESP","test":"Respiratory Rate","cat":null,"orres":"19.9","orresu":"breaths/min","stresc":"19.9","stresn":"19.9","stresu":"breaths/min","stnrlo":null,"stnrhi":null,"nrind":null,"pos":null,"loc":null,"dtc":"2024-08-12","dy":"170","visit":"WEEK 24","visitnum":"8.0","epoch":"TREATMENT"},{"seq":"62","testcd":"SYSBP","test":"Systolic Blood Pressure","cat":null,"orres":"101.2","orresu":"mmHg","stresc":"101.2","stresn":"101.2","stresu":"mmHg","stnrlo":null,"stnrhi":null,"nrind":null,"pos":null,"loc":null,"dtc":"2024-08-12","dy":"170","visit":"WEEK 24","visitnum":"8.0","epoch":"TREATMENT"},{"seq":"63","testcd":"TEMP","test":"Temperature","cat":null,"orres":"36.9","orresu":"C","stresc":"36.9","stresn":"36.9","stresu":"C","stnrlo":null,"stnrhi":null,"nrind":null,"pos":null,"loc":null,"dtc":"2024-08-12","dy":"170","visit":"WEEK 24","visitnum":"8.0","epoch":"TREATMENT"},{"seq":"64","testcd":"WEIGHT","test":"Weight","cat":null,"orres":"57.2","orresu":"kg","stresc":"57.2","stresn":"57.2","stresu":"kg","stnrlo":null,"stnrhi":null,"nrind":null,"pos":null,"loc":null,"dtc":"2024-08-12","dy":"170","visit":"WEEK 24","visitnum":"8.0","epoch":"TREATMENT"},{"seq":"65","testcd":"BMI","test":"BMI","cat":null,"orres":null,"orresu":null,"stresc":"21.9","stresn":"21.9","stresu":"kg/m2","stnrlo":null,"stnrhi":null,"nrind":null,"pos":null,"loc":null,"dtc":"2024-10-08","dy":"227","visit":"WEEK 32","visitnum":"9.0","epoch":"TREATMENT"},{"seq":"66","testcd":"DIABP","test":"Diastolic Blood Pressure","cat":null,"orres":"83.0","orresu":"mmHg","stresc":"83.0","stresn":"83.0","stresu":"mmHg","stnrlo":null,"stnrhi":null,"nrind":null,"pos":null,"loc":null,"dtc":"2024-10-08","dy":"227","visit":"WEEK 32","visitnum":"9.0","epoch":"TREATMENT"},{"seq":"67","testcd":"HEIGHT","test":"Height","cat":null,"orres":"160.0","orresu":"cm","stresc":"160.0","stresn":"160.0","stresu":"cm","stnrlo":null,"stnrhi":null,"nrind":null,"pos":null,"loc":null,"dtc":"2024-10-08","dy":"227","visit":"WEEK 32","visitnum":"9.0","epoch":"TREATMENT"},{"seq":"68","testcd":"PULSE","test":"Pulse Rate","cat":null,"orres":"79.4","orresu":"beats/min","stresc":"79.4","stresn":"79.4","stresu":"beats/min","stnrlo":null,"stnrhi":null,"nrind":null,"pos":null,"loc":null,"dtc":"2024-10-08","dy":"227","visit":"WEEK 32","visitnum":"9.0","epoch":"TREATMENT"},{"seq":"69","testcd":"RESP","test":"Respiratory Rate","cat":null,"orres":"20.5","orresu":"breaths/min","stresc":"20.5","stresn":"20.5","stresu":"breaths/min","stnrlo":null,"stnrhi":null,"nrind":null,"pos":null,"loc":null,"dtc":"2024-10-08","dy":"227","visit":"WEEK 32","visitnum":"9.0","epoch":"TREATMENT"},{"seq":"70","testcd":"SYSBP","test":"Systolic Blood Pressure","cat":null,"orres":"101.0","orresu":"mmHg","stresc":"101.0","stresn":"101.0","stresu":"mmHg","stnrlo":null,"stnrhi":null,"nrind":null,"pos":null,"loc":null,"dtc":"2024-10-08","dy":"227","visit":"WEEK 32","visitnum":"9.0","epoch":"TREATMENT"},{"seq":"71","testcd":"TEMP","test":"Temperature","cat":null,"orres":"37.0","orresu":"C","stresc":"37.0","stresn":"37.0","stresu":"C","stnrlo":null,"stnrhi":null,"nrind":null,"pos":null,"loc":null,"dtc":"2024-10-08","dy":"227","visit":"WEEK 32","visitnum":"9.0","epoch":"TREATMENT"},{"seq":"72","testcd":"WEIGHT","test":"Weight","cat":null,"orres":"56.1","orresu":"kg","stresc":"56.1","stresn":"56.1","stresu":"kg","stnrlo":null,"stnrhi":null,"nrind":null,"pos":null,"loc":null,"dtc":"2024-10-08","dy":"227","visit":"WEEK 32","visitnum":"9.0","epoch":"TREATMENT"},{"seq":"73","testcd":"BMI","test":"BMI","cat":null,"orres":null,"orresu":null,"stresc":"21.8","stresn":"21.8","stresu":"kg/m2","stnrlo":null,"stnrhi":null,"nrind":null,"pos":null,"loc":null,"dtc":"2024-11-28","dy":"278","visit":"WEEK 40","visitnum":"10.0","epoch":"TREATMENT"},{"seq":"74","testcd":"DIABP","test":"Diastolic Blood Pressure","cat":null,"orres":"83.5","orresu":"mmHg","stresc":"83.5","stresn":"83.5","stresu":"mmHg","stnrlo":null,"stnrhi":null,"nrind":null,"pos":null,"loc":null,"dtc":"2024-11-28","dy":"278","visit":"WEEK 40","visitnum":"10.0","epoch":"TREATMENT"},{"seq":"75","testcd":"HEIGHT","test":"Height","cat":null,"orres":"160.0","orresu":"cm","stresc":"160.0","stresn":"160.0","stresu":"cm","stnrlo":null,"stnrhi":null,"nrind":null,"pos":null,"loc":null,"dtc":"2024-11-28","dy":"278","visit":"WEEK 40","visitnum":"10.0","epoch":"TREATMENT"},{"seq":"76","testcd":"PULSE","test":"Pulse Rate","cat":null,"orres":"88.3","orresu":"beats/min","stresc":"88.3","stresn":"88.3","stresu":"beats/min","stnrlo":null,"stnrhi":null,"nrind":null,"pos":null,"loc":null,"dtc":"2024-11-28","dy":"278","visit":"WEEK 40","visitnum":"10.0","epoch":"TREATMENT"},{"seq":"77","testcd":"RESP","test":"Respiratory Rate","cat":null,"orres":null,"orresu":null,"stresc":null,"stresn":null,"stresu":null,"stnrlo":null,"stnrhi":null,"nrind":null,"pos":null,"loc":null,"dtc":"2024-11-28","dy":"278","visit":"WEEK 40","visitnum":"10.0","epoch":"TREATMENT"},{"seq":"78","testcd":"SYSBP","test":"Systolic Blood Pressure","cat":null,"orres":"103.0","orresu":"mmHg","stresc":"103.0","stresn":"103.0","stresu":"mmHg","stnrlo":null,"stnrhi":null,"nrind":null,"pos":null,"loc":null,"dtc":"2024-11-28","dy":"278","visit":"WEEK 40","visitnum":"10.0","epoch":"TREATMENT"},{"seq":"79","testcd":"TEMP","test":"Temperature","cat":null,"orres":"37.1","orresu":"C","stresc":"37.1","stresn":"37.1","stresu":"C","stnrlo":null,"stnrhi":null,"nrind":null,"pos":null,"loc":null,"dtc":"2024-11-28","dy":"278","visit":"WEEK 40","visitnum":"10.0","epoch":"TREATMENT"},{"seq":"80","testcd":"WEIGHT","test":"Weight","cat":null,"orres":"55.9","orresu":"kg","stresc":"55.9","stresn":"55.9","stresu":"kg","stnrlo":null,"stnrhi":null,"nrind":null,"pos":null,"loc":null,"dtc":"2024-11-28","dy":"278","visit":"WEEK 40","visitnum":"10.0","epoch":"TREATMENT"},{"seq":"81","testcd":"BMI","test":"BMI","cat":null,"orres":null,"orresu":null,"stresc":"22.4","stresn":"22.4","stresu":"kg/m2","stnrlo":null,"stnrhi":null,"nrind":null,"pos":null,"loc":null,"dtc":"2025-02-17","dy":"359","visit":"WEEK 52 EOT","visitnum":"11.0","epoch":"TREATMENT"},{"seq":"82","testcd":"DIABP","test":"Diastolic Blood Pressure","cat":null,"orres":null,"orresu":null,"stresc":null,"stresn":null,"stresu":null,"stnrlo":null,"stnrhi":null,"nrind":null,"pos":null,"loc":null,"dtc":"2025-02-17","dy":"359","visit":"WEEK 52 EOT","visitnum":"11.0","epoch":"TREATMENT"},{"seq":"83","testcd":"HEIGHT","test":"Height","cat":null,"orres":"159.7","orresu":"cm","stresc":"159.7","stresn":"159.7","stresu":"cm","stnrlo":null,"stnrhi":null,"nrind":null,"pos":null,"loc":null,"dtc":"2025-02-17","dy":"359","visit":"WEEK 52 EOT","visitnum":"11.0","epoch":"TREATMENT"},{"seq":"84","testcd":"PULSE","test":"Pulse Rate","cat":null,"orres":"78.6","orresu":"beats/min","stresc":"78.6","stresn":"78.6","stresu":"beats/min","stnrlo":null,"stnrhi":null,"nrind":null,"pos":null,"loc":null,"dtc":"2025-02-17","dy":"359","visit":"WEEK 52 EOT","visitnum":"11.0","epoch":"TREATMENT"},{"seq":"85","testcd":"RESP","test":"Respiratory Rate","cat":null,"orres":"19.5","orresu":"breaths/min","stresc":"19.5","stresn":"19.5","stresu":"breaths/min","stnrlo":null,"stnrhi":null,"nrind":null,"pos":null,"loc":null,"dtc":"2025-02-17","dy":"359","visit":"WEEK 52 EOT","visitnum":"11.0","epoch":"TREATMENT"},{"seq":"86","testcd":"SYSBP","test":"Systolic Blood Pressure","cat":null,"orres":"102.1","orresu":"mmHg","stresc":"102.1","stresn":"102.1","stresu":"mmHg","stnrlo":null,"stnrhi":null,"nrind":null,"pos":null,"loc":null,"dtc":"2025-02-17","dy":"359","visit":"WEEK 52 EOT","visitnum":"11.0","epoch":"TREATMENT"},{"seq":"87","testcd":"TEMP","test":"Temperature","cat":null,"orres":"37.0","orresu":"C","stresc":"37.0","stresn":"37.0","stresu":"C","stnrlo":null,"stnrhi":null,"nrind":null,"pos":null,"loc":null,"dtc":"2025-02-17","dy":"359","visit":"WEEK 52 EOT","visitnum":"11.0","epoch":"TREATMENT"},{"seq":"88","testcd":"WEIGHT","test":"Weight","cat":null,"orres":"57.1","orresu":"kg","stresc":"57.1","stresn":"57.1","stresu":"kg","stnrlo":null,"stnrhi":null,"nrind":null,"pos":null,"loc":null,"dtc":"2025-02-17","dy":"359","visit":"WEEK 52 EOT","visitnum":"11.0","epoch":"TREATMENT"},{"seq":"89","testcd":"BMI","test":"BMI","cat":null,"orres":null,"orresu":null,"stresc":"22.9","stresn":"22.9","stresu":"kg/m2","stnrlo":null,"stnrhi":null,"nrind":null,"pos":null,"loc":null,"dtc":"2025-03-19","dy":"389","visit":"WEEK 56 SAFETY FU","visitnum":"12.0","epoch":"FOLLOW-UP"},{"seq":"90","testcd":"DIABP","test":"Diastolic Blood Pressure","cat":null,"orres":"82.0","orresu":"mmHg","stresc":"82.0","stresn":"82.0","stresu":"mmHg","stnrlo":null,"stnrhi":null,"nrind":null,"pos":null,"loc":null,"dtc":"2025-03-19","dy":"389","visit":"WEEK 56 SAFETY FU","visitnum":"12.0","epoch":"FOLLOW-UP"},{"seq":"91","testcd":"HEIGHT","test":"Height","cat":null,"orres":"159.8","orresu":"cm","stresc":"159.8","stresn":"159.8","stresu":"cm","stnrlo":null,"stnrhi":null,"nrind":null,"pos":null,"loc":null,"dtc":"2025-03-19","dy":"389","visit":"WEEK 56 SAFETY FU","visitnum":"12.0","epoch":"FOLLOW-UP"},{"seq":"92","testcd":"PULSE","test":"Pulse Rate","cat":null,"orres":"76.8","orresu":"beats/min","stresc":"76.8","stresn":"76.8","stresu":"beats/min","stnrlo":null,"stnrhi":null,"nrind":null,"pos":null,"loc":null,"dtc":"2025-03-19","dy":"389","visit":"WEEK 56 SAFETY FU","visitnum":"12.0","epoch":"FOLLOW-UP"},{"seq":"93","testcd":"RESP","test":"Respiratory Rate","cat":null,"orres":"20.1","orresu":"breaths/min","stresc":"20.1","stresn":"20.1","stresu":"breaths/min","stnrlo":null,"stnrhi":null,"nrind":null,"pos":null,"loc":null,"dtc":"2025-03-19","dy":"389","visit":"WEEK 56 SAFETY FU","visitnum":"12.0","epoch":"FOLLOW-UP"},{"seq":"94","testcd":"SYSBP","test":"Systolic Blood Pressure","cat":null,"orres":"100.9","orresu":"mmHg","stresc":"100.9","stresn":"100.9","stresu":"mmHg","stnrlo":null,"stnrhi":null,"nrind":null,"pos":null,"loc":null,"dtc":"2025-03-19","dy":"389","visit":"WEEK 56 SAFETY FU","visitnum":"12.0","epoch":"FOLLOW-UP"},{"seq":"95","testcd":"TEMP","test":"Temperature","cat":null,"orres":"36.7","orresu":"C","stresc":"36.7","stresn":"36.7","stresu":"C","stnrlo":null,"stnrhi":null,"nrind":null,"pos":null,"loc":null,"dtc":"2025-03-19","dy":"389","visit":"WEEK 56 SAFETY FU","visitnum":"12.0","epoch":"FOLLOW-UP"},{"seq":"96","testcd":"WEIGHT","test":"Weight","cat":null,"orres":"58.4","orresu":"kg","stresc":"58.4","stresn":"58.4","stresu":"kg","stnrlo":null,"stnrhi":null,"nrind":null,"pos":null,"loc":null,"dtc":"2025-03-19","dy":"389","visit":"WEEK 56 SAFETY FU","visitnum":"12.0","epoch":"FOLLOW-UP"}]},"section_10_questionnaires_and_scores":{"questionnaires":[],"findings_about":[]},"section_11_protocol_deviations":{"deviations":[{"seq":"1","term":"Dose modified from 15.0 to 2.5 mg","decod":"DOSE MODIFICATION","cat":"MINOR","scat":"DOSING","start_dtc":"2024-03-10","end_dtc":null,"visit":null},{"seq":"2","term":"Dose modified from 15.0 to 5.0 mg","decod":"DOSE MODIFICATION","cat":"MINOR","scat":"DOSING","start_dtc":"2024-04-14","end_dtc":null,"visit":null},{"seq":"3","term":"Visit WEEK 8 occurred 3 days early (Day 54 vs planned Day 57)","decod":"VISIT OCCURRED OUTSIDE VISIT WINDOW","cat":"MINOR","scat":"VISIT WINDOW","start_dtc":"2024-04-18","end_dtc":null,"visit":null},{"seq":"4","term":"Dose modified from 15.0 to 10.0 mg","decod":"DOSE MODIFICATION","cat":"MINOR","scat":"DOSING","start_dtc":"2024-05-19","end_dtc":null,"visit":null},{"seq":"5","term":"Visit WEEK 12 occurred 1 days late (Day 86 vs planned Day 85)","decod":"VISIT OCCURRED OUTSIDE VISIT WINDOW","cat":"MINOR","scat":"VISIT WINDOW","start_dtc":"2024-05-20","end_dtc":null,"visit":null},{"seq":"6","term":"Dose modified from 15.0 to 10.0 mg","decod":"DOSE MODIFICATION","cat":"MINOR","scat":"DOSING","start_dtc":"2024-05-26","end_dtc":null,"visit":null},{"seq":"7","term":"Missed TIRZEPATIDE dose on 2024-06-02","decod":"MISSED DOSE","cat":"MINOR","scat":"DOSING","start_dtc":"2024-06-02","end_dtc":null,"visit":null},{"seq":"8","term":"Missed TIRZEPATIDE dose on 2024-06-09","decod":"MISSED DOSE","cat":"MINOR","scat":"DOSING","start_dtc":"2024-06-09","end_dtc":null,"visit":null},{"seq":"9","term":"Visit WEEK 16 occurred 0 days late (Day 113 vs planned Day 113)","decod":"VISIT OCCURRED OUTSIDE VISIT WINDOW","cat":"MINOR","scat":"VISIT WINDOW","start_dtc":"2024-06-16","end_dtc":null,"visit":null},{"seq":"10","term":"Missed TIRZEPATIDE dose on 2024-08-11","decod":"MISSED DOSE","cat":"MINOR","scat":"DOSING","start_dtc":"2024-08-11","end_dtc":null,"visit":null},{"seq":"11","term":"Visit WEEK 24 occurred 1 days late (Day 170 vs planned Day 169)","decod":"VISIT OCCURRED OUTSIDE VISIT WINDOW","cat":"MINOR","scat":"VISIT WINDOW","start_dtc":"2024-08-12","end_dtc":null,"visit":null},{"seq":"12","term":"Missed TIRZEPATIDE dose on 2024-12-15","decod":"MISSED DOSE","cat":"MINOR","scat":"DOSING","start_dtc":"2024-12-15","end_dtc":null,"visit":null},{"seq":"13","term":"Visit WEEK 56 SAFETY FU occurred 4 days early (Day 389 vs planned Day 393)","decod":"VISIT OCCURRED OUTSIDE VISIT WINDOW","cat":"MINOR","scat":"VISIT WINDOW","start_dtc":"2025-03-19","end_dtc":null,"visit":null}],"total":13},"section_12_disposition":{"completion_status":"COMPLETED","disposition_records":[{"seq":"1","term":"INFORMED CONSENT OBTAINED","decod":"INFORMED CONSENT OBTAINED","cat":"PROTOCOL MILESTONE","scat":null,"dtc":"2024-01-25","dy":null,"visit":null,"epoch":"SCREENING"},{"seq":"2","term":"RANDOMIZED","decod":"RANDOMIZED","cat":"PROTOCOL MILESTONE","scat":null,"dtc":"2024-02-25","dy":null,"visit":null,"epoch":"TREATMENT"},{"seq":"3","term":"COMPLETED","decod":"COMPLETED","cat":"DISPOSITION EVENT","scat":null,"dtc":"2025-04-19","dy":null,"visit":null,"epoch":"FOLLOW-UP"}],"death":null},"section_13_hospitalizations":{"items":[{"seq":"1","term":"Decreased appetite","decod":"Decreased appetite","cat":"HOSPITALIZATION","start_dtc":"2024-05-07","end_dtc":"2024-05-21","epoch":"TREATMENT"},{"seq":"2","term":"Constipation","decod":"Constipation","cat":"HOSPITALIZATION","start_dtc":"2024-07-13","end_dtc":"2024-07-16","epoch":"TREATMENT"},{"seq":"3","term":"Diarrhoea","decod":"Diarrhoea","cat":"HOSPITALIZATION","start_dtc":"2024-11-23","end_dtc":"2024-12-01","epoch":"TREATMENT"}],"total":3},"section_14_substance_use":{"items":[{"seq":"1","substance":"BEER/WINE/SPIRITS","decod":"ETHANOL","cat":"ALCOHOL","scat":null,"usage":"Y","dose":"13.0","dosu":"DRINKS/WEEK","freq":"QW","start_dtc":"2003-01-30","end_dtc":null},{"seq":"2","substance":"COFFEE","decod":"COFFEE","cat":"CAFFEINE","scat":null,"usage":"N","dose":null,"dosu":null,"freq":null,"start_dtc":null,"end_dtc":null},{"seq":"3","substance":"CIGARETTES","decod":"CIGARETTES","cat":"TOBACCO","scat":null,"usage":"N","dose":null,"dosu":null,"freq":null,"start_dtc":null,"end_dtc":null}],"total":3},"section_15_subject_status":{"items":[{"seq":"1","testcd":"SURVSTAT","test":"Survival Status","orres":"ALIVE","stresc":"ALIVE","dtc":"2025-04-19","visit":null,"epoch":"FOLLOW-UP"}],"total":1}}