{"subject_id":"I8F-JE-GPGO-SURPASS-JPN_SENDAI01-0012","study_id":"I8F-JE-GPGO-SURPASS","generated_at":"2026-07-07T06:16:06.804848+00:00","sdtmig_version":"3.4","flags":{"has_serious_ae":true,"has_fatal_ae":false,"has_protocol_deviation":true,"n_protocol_deviations":8,"n_adverse_events":12,"n_concomitant_meds":7,"max_ae_severity":"SEVERE","screen_failure":false,"discontinued_early":true,"discontinuation_reason":"ADVERSE EVENT","death":false,"exposure_days":147},"timeline":[{"dtc":"2024-03-09","dy":"-52","event":"VISIT: SCREENING","domain":"SV","category":"visit"},{"dtc":"2024-04-09","dy":"-21","event":"INFORMED CONSENT OBTAINED","domain":"DS","category":"milestone"},{"dtc":"2024-04-30","dy":"1","event":"RANDOMIZED","domain":"DS","category":"milestone"},{"dtc":"2024-04-30","dy":"1","event":"FIRST DOSE: TIRZEPATIDE","domain":"EX","category":"exposure"},{"dtc":"2024-04-30","dy":"1","event":"VISIT: BASELINE","domain":"SV","category":"visit"},{"dtc":"2024-05-03","dy":"4","event":"AE: Decreased appetite (MODERATE)","domain":"AE","category":"adverse_event"},{"dtc":"2024-05-03","dy":"4","event":"CM START: MEGESTROL","domain":"CM","category":"concomitant_med"},{"dtc":"2024-05-07","dy":"8","event":"DEVIATION: DOSE MODIFICATION","domain":"DV","category":"deviation"},{"dtc":"2024-05-14","dy":"15","event":"DEVIATION: DOSE MODIFICATION","domain":"DV","category":"deviation"},{"dtc":"2024-05-21","dy":"22","event":"DEVIATION: MISSED DOSE","domain":"DV","category":"deviation"},{"dtc":"2024-05-28","dy":"29","event":"DEVIATION: DOSE MODIFICATION","domain":"DV","category":"deviation"},{"dtc":"2024-05-31","dy":"32","event":"VISIT: WEEK 4","domain":"SV","category":"visit"},{"dtc":"2024-06-10","dy":"42","event":"AE: Diarrhoea (SEVERE) [SERIOUS]","domain":"AE","category":"adverse_event"},{"dtc":"2024-06-10","dy":"42","event":"CM START: LOPERAMIDE","domain":"CM","category":"concomitant_med"},{"dtc":"2024-06-25","dy":"57","event":"DEVIATION: DOSE MODIFICATION","domain":"DV","category":"deviation"},{"dtc":"2024-06-25","dy":"57","event":"VISIT: WEEK 8","domain":"SV","category":"visit"},{"dtc":"2024-06-30","dy":"62","event":"AE: Diarrhoea (SEVERE) [SERIOUS]","domain":"AE","category":"adverse_event"},{"dtc":"2024-06-30","dy":"62","event":"CM START: LOPERAMIDE","domain":"CM","category":"concomitant_med"},{"dtc":"2024-07-11","dy":"73","event":"AE: Constipation (MODERATE)","domain":"AE","category":"adverse_event"},{"dtc":"2024-07-11","dy":"73","event":"CM START: ASPIRIN","domain":"CM","category":"concomitant_med"},{"dtc":"2024-07-16","dy":"78","event":"AE: Constipation (MILD)","domain":"AE","category":"adverse_event"},{"dtc":"2024-07-16","dy":"78","event":"DEVIATION: DOSE MODIFICATION","domain":"DV","category":"deviation"},{"dtc":"2024-07-21","dy":"83","event":"AE: Constipation (SEVERE) [SERIOUS]","domain":"AE","category":"adverse_event"},{"dtc":"2024-07-21","dy":"83","event":"CM START: DOCUSATE SODIUM","domain":"CM","category":"concomitant_med"},{"dtc":"2024-07-26","dy":"88","event":"VISIT: WEEK 12","domain":"SV","category":"visit"},{"dtc":"2024-08-15","dy":"108","event":"AE: Diarrhoea (SEVERE) [SERIOUS]","domain":"AE","category":"adverse_event"},{"dtc":"2024-08-15","dy":"108","event":"CM START: LOPERAMIDE","domain":"CM","category":"concomitant_med"},{"dtc":"2024-08-20","dy":"113","event":"AE: Vomiting (MODERATE)","domain":"AE","category":"adverse_event"},{"dtc":"2024-08-20","dy":"113","event":"CM START: ONDANSETRON","domain":"CM","category":"concomitant_med"},{"dtc":"2024-08-21","dy":"114","event":"DEVIATION: VISIT OCCURRED OUTSIDE VISIT WINDOW","domain":"DV","category":"deviation"},{"dtc":"2024-08-21","dy":"114","event":"VISIT: WEEK 16","domain":"SV","category":"visit"},{"dtc":"2024-08-27","dy":"120","event":"DEVIATION: MISSED DOSE","domain":"DV","category":"deviation"},{"dtc":"2024-09-03","dy":"127","event":"AE: Nausea (SEVERE) [SERIOUS]","domain":"AE","category":"adverse_event"},{"dtc":"2024-09-07","dy":"131","event":"AE: Abdominal pain (MODERATE)","domain":"AE","category":"adverse_event"},{"dtc":"2024-09-13","dy":"137","event":"AE: Abdominal pain (MODERATE)","domain":"AE","category":"adverse_event"},{"dtc":"2024-09-19","dy":"143","event":"VISIT: WEEK 20","domain":"SV","category":"visit"},{"dtc":"2024-09-24","dy":"148","event":"ADVERSE EVENT","domain":"DS","category":"milestone"},{"dtc":"2024-09-24","dy":"148","event":"LAST DOSE: TIRZEPATIDE","domain":"EX","category":"exposure"},{"dtc":"2024-09-24","dy":"148","event":"AE: Fatigue (SEVERE) [SERIOUS]","domain":"AE","category":"adverse_event"}],"section_1_demographics":{"usubjid":"I8F-JE-GPGO-SURPASS-JPN_SENDAI01-0012","subjid":"0012","siteid":"JPN_SENDAI01","age":"48","ageu":"YEARS","sex":"F","race":"ASIAN","ethnicity":"NOT HISPANIC OR LATINO","country":"JPN","arm":"Tirzepatide 10 mg QW SC (target)","armcd":"TIRZ_10","actarm":"Tirzepatide 10 mg QW SC (target)","actarmcd":"TIRZ_10","randomization_date":null,"informed_consent_date":"2024-04-09","reference_start_date":"2024-04-30","reference_end_date":"2024-09-24","screen_failure":false,"death_flag":null,"death_date":null,"subject_characteristics":[{"testcd":"ALCUSE","test":"Alcohol Use","orres":"NON-DRINKER","stresc":"NON-DRINKER","visit":null,"dtc":"2024-04-09"},{"testcd":"BMI","test":"Body Mass Index","orres":"23.5","stresc":"23.5","visit":null,"dtc":"2024-04-09"},{"testcd":"DURDIS","test":"Duration of Disease","orres":"182 months","stresc":"182","visit":null,"dtc":"2024-04-09"},{"testcd":"TOBPKYR","test":"Tobacco Pack-Years","orres":"15","stresc":"15","visit":null,"dtc":"2024-04-09"},{"testcd":"TOBUSE","test":"Tobacco Use","orres":"FORMER SMOKER","stresc":"FORMER SMOKER","visit":null,"dtc":"2024-04-09"}]},"section_2_medical_history":{"items":[{"seq":"1","term":"GASTROESOPHAGEAL REFLUX DISEASE","decod":"GASTROESOPHAGEAL REFLUX DISEASE","cat":"GASTROINTESTINAL","scat":null,"presp":null,"occur":null,"status":null,"onset_dtc":"2009-04-13","end_dtc":"2022-01-01","visit":null},{"seq":"2","term":"HYPERLIPIDEMIA","decod":"HYPERLIPIDEMIA","cat":"METABOLIC","scat":null,"presp":null,"occur":null,"status":null,"onset_dtc":"2012-04-12","end_dtc":"2017-03-10","visit":null},{"seq":"3","term":"HYPERTENSION","decod":"HYPERTENSION","cat":"CARDIOVASCULAR","scat":null,"presp":null,"occur":null,"status":null,"onset_dtc":"2015-04-12","end_dtc":null,"visit":null}]},"section_3_inclusion_exclusion":{"criteria":[]},"section_4_trial_participation":{"visits":[{"visitnum":"1.0","visit":"SCREENING","start_dtc":"2024-03-09","end_dtc":"2024-03-09","updes":null},{"visitnum":"2.0","visit":"BASELINE","start_dtc":"2024-04-30","end_dtc":"2024-04-30","updes":null},{"visitnum":"3.0","visit":"WEEK 4","start_dtc":"2024-05-31","end_dtc":"2024-05-31","updes":null},{"visitnum":"4.0","visit":"WEEK 8","start_dtc":"2024-06-25","end_dtc":"2024-06-25","updes":null},{"visitnum":"5.0","visit":"WEEK 12","start_dtc":"2024-07-26","end_dtc":"2024-07-26","updes":null},{"visitnum":"6.0","visit":"WEEK 16","start_dtc":"2024-08-21","end_dtc":"2024-08-21","updes":null},{"visitnum":"7.0","visit":"WEEK 20","start_dtc":"2024-09-19","end_dtc":"2024-09-19","updes":null}],"epochs":[{"seq":"1","etcd":"SCRN","element":"Screening","start_dtc":"2024-04-02","end_dtc":"2024-04-30","updes":null},{"seq":"2","etcd":"TRT","element":"Treatment","start_dtc":"2024-04-30","end_dtc":"2024-09-24","updes":null}],"visit_count":7},"section_5_concomitant_medications":{"medications":[{"seq":"1","trt":"MEGESTROL","decod":"MEGESTROL","cat":"CONCOMITANT","dose":"400.0","doseu":null,"dosef":"QD","route":"ORAL","indication":"DECREASED APPETITE","start_dtc":"2024-05-03","end_dtc":"2024-05-29","ongoing":null,"visit":null},{"seq":"2","trt":"LOPERAMIDE","decod":"LOPERAMIDE","cat":"CONCOMITANT","dose":"2","doseu":null,"dosef":"PRN","route":"ORAL","indication":"DIARRHOEA","start_dtc":"2024-06-10","end_dtc":"2024-06-17","ongoing":null,"visit":null},{"seq":"3","trt":"LOPERAMIDE","decod":"LOPERAMIDE","cat":"CONCOMITANT","dose":"2","doseu":null,"dosef":"PRN","route":"ORAL","indication":"DIARRHOEA","start_dtc":"2024-06-30","end_dtc":"2024-07-27","ongoing":null,"visit":null},{"seq":"4","trt":"ASPIRIN","decod":"ASPIRIN","cat":"CONCOMITANT","dose":null,"doseu":null,"dosef":"QD","route":"ORAL","indication":null,"start_dtc":"2024-07-11","end_dtc":"2024-09-24","ongoing":null,"visit":null},{"seq":"5","trt":"DOCUSATE SODIUM","decod":"DOCUSATE SODIUM","cat":"CONCOMITANT","dose":"100","doseu":null,"dosef":"BID","route":"ORAL","indication":"CONSTIPATION","start_dtc":"2024-07-21","end_dtc":"2024-07-25","ongoing":null,"visit":null},{"seq":"6","trt":"LOPERAMIDE","decod":"LOPERAMIDE","cat":"CONCOMITANT","dose":"2","doseu":null,"dosef":"PRN","route":"ORAL","indication":"DIARRHOEA","start_dtc":"2024-08-15","end_dtc":"2024-09-08","ongoing":null,"visit":null},{"seq":"7","trt":"ONDANSETRON","decod":"ONDANSETRON","cat":"CONCOMITANT","dose":"8","doseu":null,"dosef":"BID","route":"ORAL","indication":"VOMITING","start_dtc":"2024-08-20","end_dtc":"2024-09-05","ongoing":null,"visit":null}]},"section_6_exposure":{"exposure_as_administered":[{"seq":"1","trt":"TIRZEPATIDE","dose":"2.5","doseu":null,"dosef":"QW","route":"SUBCUTANEOUS","lot":null,"start_dtc":"2024-04-30","end_dtc":"2024-04-30","start_dy":"1","end_dy":"1","epoch":"TREATMENT","visit":null},{"seq":"2","trt":"TIRZEPATIDE","dose":"2.5","doseu":null,"dosef":"QW","route":"SUBCUTANEOUS","lot":null,"start_dtc":"2024-05-07","end_dtc":"2024-05-07","start_dy":"8","end_dy":"8","epoch":"TREATMENT","visit":null},{"seq":"3","trt":"TIRZEPATIDE","dose":"2.5","doseu":null,"dosef":"QW","route":"SUBCUTANEOUS","lot":null,"start_dtc":"2024-05-14","end_dtc":"2024-05-14","start_dy":"15","end_dy":"15","epoch":"TREATMENT","visit":null},{"seq":"4","trt":"TIRZEPATIDE","dose":"5.0","doseu":null,"dosef":"QW","route":"SUBCUTANEOUS","lot":null,"start_dtc":"2024-05-28","end_dtc":"2024-05-28","start_dy":"29","end_dy":"29","epoch":"TREATMENT","visit":null},{"seq":"5","trt":"TIRZEPATIDE","dose":"5.0","doseu":null,"dosef":"QW","route":"SUBCUTANEOUS","lot":null,"start_dtc":"2024-06-04","end_dtc":"2024-06-04","start_dy":"36","end_dy":"36","epoch":"TREATMENT","visit":null},{"seq":"6","trt":"TIRZEPATIDE","dose":"5.0","doseu":null,"dosef":"QW","route":"SUBCUTANEOUS","lot":null,"start_dtc":"2024-06-11","end_dtc":"2024-06-11","start_dy":"43","end_dy":"43","epoch":"TREATMENT","visit":null},{"seq":"7","trt":"TIRZEPATIDE","dose":"5.0","doseu":null,"dosef":"QW","route":"SUBCUTANEOUS","lot":null,"start_dtc":"2024-06-18","end_dtc":"2024-06-18","start_dy":"50","end_dy":"50","epoch":"TREATMENT","visit":null},{"seq":"8","trt":"TIRZEPATIDE","dose":"7.5","doseu":null,"dosef":"QW","route":"SUBCUTANEOUS","lot":null,"start_dtc":"2024-06-25","end_dtc":"2024-06-25","start_dy":"57","end_dy":"57","epoch":"TREATMENT","visit":null},{"seq":"9","trt":"TIRZEPATIDE","dose":"7.5","doseu":null,"dosef":"QW","route":"SUBCUTANEOUS","lot":null,"start_dtc":"2024-07-02","end_dtc":"2024-07-02","start_dy":"64","end_dy":"64","epoch":"TREATMENT","visit":null},{"seq":"10","trt":"TIRZEPATIDE","dose":"7.5","doseu":null,"dosef":"QW","route":"SUBCUTANEOUS","lot":null,"start_dtc":"2024-07-09","end_dtc":"2024-07-09","start_dy":"71","end_dy":"71","epoch":"TREATMENT","visit":null},{"seq":"11","trt":"TIRZEPATIDE","dose":"7.5","doseu":null,"dosef":"QW","route":"SUBCUTANEOUS","lot":null,"start_dtc":"2024-07-16","end_dtc":"2024-07-16","start_dy":"78","end_dy":"78","epoch":"TREATMENT","visit":null},{"seq":"12","trt":"TIRZEPATIDE","dose":"10.0","doseu":null,"dosef":"QW","route":"SUBCUTANEOUS","lot":null,"start_dtc":"2024-07-23","end_dtc":"2024-07-23","start_dy":"85","end_dy":"85","epoch":"TREATMENT","visit":null},{"seq":"13","trt":"TIRZEPATIDE","dose":"10.0","doseu":null,"dosef":"QW","route":"SUBCUTANEOUS","lot":null,"start_dtc":"2024-07-30","end_dtc":"2024-07-30","start_dy":"92","end_dy":"92","epoch":"TREATMENT","visit":null},{"seq":"14","trt":"TIRZEPATIDE","dose":"10.0","doseu":null,"dosef":"QW","route":"SUBCUTANEOUS","lot":null,"start_dtc":"2024-08-06","end_dtc":"2024-08-06","start_dy":"99","end_dy":"99","epoch":"TREATMENT","visit":null},{"seq":"15","trt":"TIRZEPATIDE","dose":"10.0","doseu":null,"dosef":"QW","route":"SUBCUTANEOUS","lot":null,"start_dtc":"2024-08-13","end_dtc":"2024-08-13","start_dy":"106","end_dy":"106","epoch":"TREATMENT","visit":null},{"seq":"16","trt":"TIRZEPATIDE","dose":"10.0","doseu":null,"dosef":"QW","route":"SUBCUTANEOUS","lot":null,"start_dtc":"2024-08-20","end_dtc":"2024-08-20","start_dy":"113","end_dy":"113","epoch":"TREATMENT","visit":null},{"seq":"17","trt":"TIRZEPATIDE","dose":"10.0","doseu":null,"dosef":"QW","route":"SUBCUTANEOUS","lot":null,"start_dtc":"2024-09-03","end_dtc":"2024-09-03","start_dy":"127","end_dy":"127","epoch":"TREATMENT","visit":null},{"seq":"18","trt":"TIRZEPATIDE","dose":"10.0","doseu":null,"dosef":"QW","route":"SUBCUTANEOUS","lot":null,"start_dtc":"2024-09-10","end_dtc":"2024-09-10","start_dy":"134","end_dy":"134","epoch":"TREATMENT","visit":null},{"seq":"19","trt":"TIRZEPATIDE","dose":"10.0","doseu":null,"dosef":"QW","route":"SUBCUTANEOUS","lot":null,"start_dtc":"2024-09-17","end_dtc":"2024-09-17","start_dy":"141","end_dy":"141","epoch":"TREATMENT","visit":null},{"seq":"20","trt":"TIRZEPATIDE","dose":"10.0","doseu":null,"dosef":"QW","route":"SUBCUTANEOUS","lot":null,"start_dtc":"2024-09-24","end_dtc":"2024-09-24","start_dy":"148","end_dy":"148","epoch":"TREATMENT","visit":null}],"exposure_as_collected":[{"seq":"1","trt":"TIRZEPATIDE","dose":"2.5","doseu":null,"dosef":"QW","route":"SUBCUTANEOUS","start_dtc":"2024-04-30","end_dtc":"2024-04-30","visit":"BASELINE"},{"seq":"2","trt":"TIRZEPATIDE","dose":"2.5","doseu":null,"dosef":"QW","route":"SUBCUTANEOUS","start_dtc":"2024-05-07","end_dtc":"2024-05-07","visit":null},{"seq":"3","trt":"TIRZEPATIDE","dose":"2.5","doseu":null,"dosef":"QW","route":"SUBCUTANEOUS","start_dtc":"2024-05-14","end_dtc":"2024-05-14","visit":null},{"seq":"4","trt":"TIRZEPATIDE","dose":null,"doseu":null,"dosef":"QW","route":"SUBCUTANEOUS","start_dtc":"2024-05-21","end_dtc":"2024-05-21","visit":null},{"seq":"5","trt":"TIRZEPATIDE","dose":"5.0","doseu":null,"dosef":"QW","route":"SUBCUTANEOUS","start_dtc":"2024-05-28","end_dtc":"2024-05-28","visit":"WEEK 4"},{"seq":"6","trt":"TIRZEPATIDE","dose":"5.0","doseu":null,"dosef":"QW","route":"SUBCUTANEOUS","start_dtc":"2024-06-04","end_dtc":"2024-06-04","visit":null},{"seq":"7","trt":"TIRZEPATIDE","dose":"5.0","doseu":null,"dosef":"QW","route":"SUBCUTANEOUS","start_dtc":"2024-06-11","end_dtc":"2024-06-11","visit":null},{"seq":"8","trt":"TIRZEPATIDE","dose":"5.0","doseu":null,"dosef":"QW","route":"SUBCUTANEOUS","start_dtc":"2024-06-18","end_dtc":"2024-06-18","visit":null},{"seq":"9","trt":"TIRZEPATIDE","dose":"7.5","doseu":null,"dosef":"QW","route":"SUBCUTANEOUS","start_dtc":"2024-06-25","end_dtc":"2024-06-25","visit":"WEEK 8"},{"seq":"10","trt":"TIRZEPATIDE","dose":"7.5","doseu":null,"dosef":"QW","route":"SUBCUTANEOUS","start_dtc":"2024-07-02","end_dtc":"2024-07-02","visit":null},{"seq":"11","trt":"TIRZEPATIDE","dose":"7.5","doseu":null,"dosef":"QW","route":"SUBCUTANEOUS","start_dtc":"2024-07-09","end_dtc":"2024-07-09","visit":null},{"seq":"12","trt":"TIRZEPATIDE","dose":"7.5","doseu":null,"dosef":"QW","route":"SUBCUTANEOUS","start_dtc":"2024-07-16","end_dtc":"2024-07-16","visit":null},{"seq":"13","trt":"TIRZEPATIDE","dose":"10.0","doseu":null,"dosef":"QW","route":"SUBCUTANEOUS","start_dtc":"2024-07-23","end_dtc":"2024-07-23","visit":"WEEK 12"},{"seq":"14","trt":"TIRZEPATIDE","dose":"10.0","doseu":null,"dosef":"QW","route":"SUBCUTANEOUS","start_dtc":"2024-07-30","end_dtc":"2024-07-30","visit":null},{"seq":"15","trt":"TIRZEPATIDE","dose":"10.0","doseu":null,"dosef":"QW","route":"SUBCUTANEOUS","start_dtc":"2024-08-06","end_dtc":"2024-08-06","visit":null},{"seq":"16","trt":"TIRZEPATIDE","dose":"10.0","doseu":null,"dosef":"QW","route":"SUBCUTANEOUS","start_dtc":"2024-08-13","end_dtc":"2024-08-13","visit":null},{"seq":"17","trt":"TIRZEPATIDE","dose":"10.0","doseu":null,"dosef":"QW","route":"SUBCUTANEOUS","start_dtc":"2024-08-20","end_dtc":"2024-08-20","visit":"WEEK 16"},{"seq":"18","trt":"TIRZEPATIDE","dose":null,"doseu":null,"dosef":"QW","route":"SUBCUTANEOUS","start_dtc":"2024-08-27","end_dtc":"2024-08-27","visit":null},{"seq":"19","trt":"TIRZEPATIDE","dose":"10.0","doseu":null,"dosef":"QW","route":"SUBCUTANEOUS","start_dtc":"2024-09-03","end_dtc":"2024-09-03","visit":null},{"seq":"20","trt":"TIRZEPATIDE","dose":"10.0","doseu":null,"dosef":"QW","route":"SUBCUTANEOUS","start_dtc":"2024-09-10","end_dtc":"2024-09-10","visit":null},{"seq":"21","trt":"TIRZEPATIDE","dose":"10.0","doseu":null,"dosef":"QW","route":"SUBCUTANEOUS","start_dtc":"2024-09-17","end_dtc":"2024-09-17","visit":"WEEK 20"},{"seq":"22","trt":"TIRZEPATIDE","dose":"10.0","doseu":null,"dosef":"QW","route":"SUBCUTANEOUS","start_dtc":"2024-09-24","end_dtc":"2024-09-24","visit":null}]},"section_7_adverse_events":{"summary":{"total_aes":12,"serious_aes":6,"fatal_aes":0,"by_severity":{"MODERATE":5,"SEVERE":6,"MILD":1},"by_soc":{"Metabolism and nutrition disorders":1,"Gastrointestinal disorders":10,"General disorders and administration site conditions":1}},"events":[{"seq":"1","term":"DECREASED APPETITE","decod":"Decreased appetite","llt":"Decreased appetite","hlt":"Appetite disorders","hlgt":"Eating disorders and disturbances","soc":"Metabolism and nutrition disorders","bodsys":"Metabolism and nutrition disorders","severity":"MODERATE","serious":"N","causality":"NOT RELATED","action_taken":"DOSE NOT CHANGED","outcome":"RECOVERED/RESOLVED","fatal":"N","hospitalization":"N","life_threatening":"N","onset_dtc":"2024-05-03","end_dtc":"2024-05-30","onset_dy":"4","end_dy":"31","duration":null,"epoch":"TREATMENT","visit":null,"supplemental":{"AETRTEM":"Y"}},{"seq":"2","term":"DIARRHOEA","decod":"Diarrhoea","llt":"Diarrhoea","hlt":"Diarrhoea (excl infective)","hlgt":"Gastrointestinal motility and defaecation conditions","soc":"Gastrointestinal disorders","bodsys":"Gastrointestinal disorders","severity":"SEVERE","serious":"Y","causality":"NOT RELATED","action_taken":"DOSE NOT CHANGED","outcome":"RECOVERED/RESOLVED","fatal":"N","hospitalization":"Y","life_threatening":"N","onset_dtc":"2024-06-10","end_dtc":"2024-07-03","onset_dy":"42","end_dy":"65","duration":null,"epoch":"TREATMENT","visit":null,"supplemental":{"AETRTEM":"Y"}},{"seq":"3","term":"DIARRHOEA","decod":"Diarrhoea","llt":"Diarrhoea","hlt":"Diarrhoea (excl infective)","hlgt":"Gastrointestinal motility and defaecation conditions","soc":"Gastrointestinal disorders","bodsys":"Gastrointestinal disorders","severity":"SEVERE","serious":"Y","causality":"NOT RELATED","action_taken":"DOSE NOT CHANGED","outcome":"RECOVERED/RESOLVED","fatal":"N","hospitalization":"Y","life_threatening":"N","onset_dtc":"2024-06-30","end_dtc":"2024-07-21","onset_dy":"62","end_dy":"83","duration":null,"epoch":"TREATMENT","visit":null,"supplemental":{"AETRTEM":"Y"}},{"seq":"4","term":"CONSTIPATION","decod":"Constipation","llt":"Constipation","hlt":"Gastrointestinal motility and defaecation conditions NEC","hlgt":"Gastrointestinal motility and defaecation conditions","soc":"Gastrointestinal disorders","bodsys":"Gastrointestinal disorders","severity":"MODERATE","serious":"N","causality":"NOT RELATED","action_taken":"DOSE NOT CHANGED","outcome":"RECOVERED/RESOLVED","fatal":"N","hospitalization":"N","life_threatening":"N","onset_dtc":"2024-07-11","end_dtc":"2024-07-16","onset_dy":"73","end_dy":"78","duration":null,"epoch":"TREATMENT","visit":null,"supplemental":{"AETRTEM":"Y"}},{"seq":"5","term":"CONSTIPATION","decod":"Constipation","llt":"Constipation","hlt":"Gastrointestinal motility and defaecation conditions NEC","hlgt":"Gastrointestinal motility and defaecation conditions","soc":"Gastrointestinal disorders","bodsys":"Gastrointestinal disorders","severity":"MILD","serious":"N","causality":"POSSIBLY RELATED","action_taken":"DOSE NOT CHANGED","outcome":"RECOVERED/RESOLVED","fatal":"N","hospitalization":"N","life_threatening":"N","onset_dtc":"2024-07-16","end_dtc":"2024-07-17","onset_dy":"78","end_dy":"79","duration":null,"epoch":"TREATMENT","visit":null,"supplemental":{"AETRTEM":"Y"}},{"seq":"6","term":"CONSTIPATION","decod":"Constipation","llt":"Constipation","hlt":"Gastrointestinal motility and defaecation conditions NEC","hlgt":"Gastrointestinal motility and defaecation conditions","soc":"Gastrointestinal disorders","bodsys":"Gastrointestinal disorders","severity":"SEVERE","serious":"Y","causality":"NOT RELATED","action_taken":"DOSE NOT CHANGED","outcome":"RECOVERED/RESOLVED","fatal":"N","hospitalization":"Y","life_threatening":"N","onset_dtc":"2024-07-21","end_dtc":"2024-07-24","onset_dy":"83","end_dy":"86","duration":null,"epoch":"TREATMENT","visit":null,"supplemental":{"AETRTEM":"Y"}},{"seq":"7","term":"DIARRHOEA","decod":"Diarrhoea","llt":"Diarrhoea","hlt":"Diarrhoea (excl infective)","hlgt":"Gastrointestinal motility and defaecation conditions","soc":"Gastrointestinal disorders","bodsys":"Gastrointestinal disorders","severity":"SEVERE","serious":"Y","causality":"NOT RELATED","action_taken":"DOSE NOT CHANGED","outcome":"RECOVERING/RESOLVING","fatal":"N","hospitalization":"Y","life_threatening":"N","onset_dtc":"2024-08-15","end_dtc":"2024-08-20","onset_dy":"108","end_dy":"113","duration":null,"epoch":"TREATMENT","visit":null,"supplemental":{"AETRTEM":"Y"}},{"seq":"8","term":"VOMITING","decod":"Vomiting","llt":"Vomiting","hlt":"Nausea and vomiting symptoms","hlgt":"Gastrointestinal signs and symptoms","soc":"Gastrointestinal disorders","bodsys":"Gastrointestinal disorders","severity":"MODERATE","serious":"N","causality":"UNLIKELY RELATED","action_taken":"DOSE NOT CHANGED","outcome":"RECOVERED/RESOLVED","fatal":"N","hospitalization":"N","life_threatening":"N","onset_dtc":"2024-08-20","end_dtc":"2024-08-23","onset_dy":"113","end_dy":"116","duration":null,"epoch":"TREATMENT","visit":null,"supplemental":{"AETRTEM":"Y"}},{"seq":"9","term":"NAUSEA","decod":"Nausea","llt":"Nausea","hlt":"Nausea and vomiting symptoms","hlgt":"Gastrointestinal signs and symptoms","soc":"Gastrointestinal disorders","bodsys":"Gastrointestinal disorders","severity":"SEVERE","serious":"Y","causality":"POSSIBLY RELATED","action_taken":"DOSE REDUCED","outcome":"RECOVERED/RESOLVED","fatal":"N","hospitalization":"N","life_threatening":"N","onset_dtc":"2024-09-03","end_dtc":"2024-09-15","onset_dy":"127","end_dy":"139","duration":null,"epoch":"TREATMENT","visit":null,"supplemental":{"AETRTEM":"Y"}},{"seq":"10","term":"ABDOMINAL PAIN","decod":"Abdominal pain","llt":"Abdominal pain","hlt":"Gastrointestinal and abdominal pains (excl oral and throat)","hlgt":"Gastrointestinal signs and symptoms","soc":"Gastrointestinal disorders","bodsys":"Gastrointestinal disorders","severity":"MODERATE","serious":"N","causality":"NOT RELATED","action_taken":"DOSE NOT CHANGED","outcome":"RECOVERED/RESOLVED","fatal":"N","hospitalization":"N","life_threatening":"N","onset_dtc":"2024-09-07","end_dtc":"2024-09-20","onset_dy":"131","end_dy":"144","duration":null,"epoch":"TREATMENT","visit":null,"supplemental":{"AETRTEM":"Y"}},{"seq":"11","term":"ABDOMINAL PAIN","decod":"Abdominal pain","llt":"Abdominal pain","hlt":"Gastrointestinal and abdominal pains (excl oral and throat)","hlgt":"Gastrointestinal signs and symptoms","soc":"Gastrointestinal disorders","bodsys":"Gastrointestinal disorders","severity":"MODERATE","serious":"N","causality":"NOT RELATED","action_taken":"DOSE NOT CHANGED","outcome":"RECOVERED/RESOLVED","fatal":"N","hospitalization":"N","life_threatening":"N","onset_dtc":"2024-09-13","end_dtc":"2024-09-24","onset_dy":"137","end_dy":"148","duration":null,"epoch":"TREATMENT","visit":null,"supplemental":{"AETRTEM":"Y"}},{"seq":"12","term":"FATIGUE","decod":"Fatigue","llt":"Fatigue","hlt":"Asthenic conditions","hlgt":"General system disorders NEC","soc":"General disorders and administration site conditions","bodsys":"General disorders and administration site conditions","severity":"SEVERE","serious":"Y","causality":"POSSIBLY RELATED","action_taken":"DRUG WITHDRAWN","outcome":"RECOVERING/RESOLVING","fatal":"N","hospitalization":"Y","life_threatening":"N","onset_dtc":"2024-09-24","end_dtc":"2024-09-24","onset_dy":"148","end_dy":"148","duration":null,"epoch":"TREATMENT","visit":null,"supplemental":{"AETRTEM":"Y"}}]},"section_8_laboratory_results":{"summary":{"total_records":49,"abnormal_count":17,"abnormal_pct":34.7},"shift_summary":[{"testcd":"ALT","baseline_value":26.94,"baseline_nrind":"NORMAL","worst_post_baseline_value":28.12,"worst_post_baseline_nrind":"NORMAL","worst_visit":"WEEK 8"},{"testcd":"AST","baseline_value":19.2,"baseline_nrind":"NORMAL","worst_post_baseline_value":20.38,"worst_post_baseline_nrind":"NORMAL","worst_visit":"WEEK 12"},{"testcd":"CREAT","baseline_value":57.71,"baseline_nrind":"NORMAL","worst_post_baseline_value":57.01,"worst_post_baseline_nrind":"NORMAL","worst_visit":"BASELINE"},{"testcd":"GLUC","baseline_value":8.49,"baseline_nrind":"HIGH","worst_post_baseline_value":8.5,"worst_post_baseline_nrind":"HIGH","worst_visit":"WEEK 20"},{"testcd":"HGB","baseline_value":153.95,"baseline_nrind":"NORMAL","worst_post_baseline_value":154.57,"worst_post_baseline_nrind":"NORMAL","worst_visit":"BASELINE"},{"testcd":"PLAT","baseline_value":131.41,"baseline_nrind":"LOW","worst_post_baseline_value":146.16,"worst_post_baseline_nrind":"LOW","worst_visit":"WEEK 12"},{"testcd":"WBC","baseline_value":5.28,"baseline_nrind":"NORMAL","worst_post_baseline_value":5.42,"worst_post_baseline_nrind":"NORMAL","worst_visit":"WEEK 16"}],"results":[{"seq":"1","testcd":"ALT","test":"Alanine Aminotransferase","cat":"CHEMISTRY","orres":"26.94","orresu":"U/L","stresc":"26.94","stresn":"26.94","stresu":"U/L","stnrlo":"7","stnrhi":"56","nrind":"NORMAL","fast":null,"dtc":"2024-03-09","dy":"-52","visit":"SCREENING","visitnum":"1.0","epoch":"SCREENING","spec":null,"method":null},{"seq":"2","testcd":"AST","test":"Aspartate Aminotransferase","cat":"CHEMISTRY","orres":"19.2","orresu":"U/L","stresc":"19.2","stresn":"19.2","stresu":"U/L","stnrlo":"10","stnrhi":"40","nrind":"NORMAL","fast":null,"dtc":"2024-03-09","dy":"-52","visit":"SCREENING","visitnum":"1.0","epoch":"SCREENING","spec":null,"method":null},{"seq":"3","testcd":"CREAT","test":"Creatinine","cat":"CHEMISTRY","orres":"57.71","orresu":"umol/L","stresc":"57.71","stresn":"57.71","stresu":"umol/L","stnrlo":"44","stnrhi":"80","nrind":"NORMAL","fast":null,"dtc":"2024-03-09","dy":"-52","visit":"SCREENING","visitnum":"1.0","epoch":"SCREENING","spec":null,"method":null},{"seq":"4","testcd":"GLUC","test":"Glucose","cat":"CHEMISTRY","orres":"8.49","orresu":"mmol/L","stresc":"8.49","stresn":"8.49","stresu":"mmol/L","stnrlo":"3.9","stnrhi":"5.6","nrind":"HIGH","fast":null,"dtc":"2024-03-09","dy":"-52","visit":"SCREENING","visitnum":"1.0","epoch":"SCREENING","spec":null,"method":null},{"seq":"5","testcd":"HGB","test":"Hemoglobin","cat":"HEMATOLOGY","orres":"153.95","orresu":"g/L","stresc":"153.95","stresn":"153.95","stresu":"g/L","stnrlo":"120","stnrhi":"155","nrind":"NORMAL","fast":null,"dtc":"2024-03-09","dy":"-52","visit":"SCREENING","visitnum":"1.0","epoch":"SCREENING","spec":null,"method":null},{"seq":"6","testcd":"PLAT","test":"Platelets","cat":"HEMATOLOGY","orres":"131.41","orresu":"10^9/L","stresc":"131.41","stresn":"131.41","stresu":"10^9/L","stnrlo":"150","stnrhi":"400","nrind":"LOW","fast":null,"dtc":"2024-03-09","dy":"-52","visit":"SCREENING","visitnum":"1.0","epoch":"SCREENING","spec":null,"method":null},{"seq":"7","testcd":"WBC","test":"Leukocytes","cat":"HEMATOLOGY","orres":"5.28","orresu":"10^9/L","stresc":"5.28","stresn":"5.28","stresu":"10^9/L","stnrlo":"4.0","stnrhi":"11.0","nrind":"NORMAL","fast":null,"dtc":"2024-03-09","dy":"-52","visit":"SCREENING","visitnum":"1.0","epoch":"SCREENING","spec":null,"method":null},{"seq":"8","testcd":"ALT","test":"Alanine Aminotransferase","cat":"CHEMISTRY","orres":"25.91","orresu":"U/L","stresc":"25.91","stresn":"25.91","stresu":"U/L","stnrlo":"7","stnrhi":"56","nrind":"NORMAL","fast":null,"dtc":"2024-04-30","dy":"1","visit":"BASELINE","visitnum":"2.0","epoch":"TREATMENT","spec":null,"method":null},{"seq":"9","testcd":"AST","test":"Aspartate Aminotransferase","cat":"CHEMISTRY","orres":"18.43","orresu":"U/L","stresc":"18.43","stresn":"18.43","stresu":"U/L","stnrlo":"10","stnrhi":"40","nrind":"NORMAL","fast":null,"dtc":"2024-04-30","dy":"1","visit":"BASELINE","visitnum":"2.0","epoch":"TREATMENT","spec":null,"method":null},{"seq":"10","testcd":"CREAT","test":"Creatinine","cat":"CHEMISTRY","orres":"57.01","orresu":"umol/L","stresc":"57.01","stresn":"57.01","stresu":"umol/L","stnrlo":"44","stnrhi":"80","nrind":"NORMAL","fast":null,"dtc":"2024-04-30","dy":"1","visit":"BASELINE","visitnum":"2.0","epoch":"TREATMENT","spec":null,"method":null},{"seq":"11","testcd":"GLUC","test":"Glucose","cat":"CHEMISTRY","orres":"8.43","orresu":"mmol/L","stresc":"8.43","stresn":"8.43","stresu":"mmol/L","stnrlo":"3.9","stnrhi":"5.6","nrind":"HIGH","fast":null,"dtc":"2024-04-30","dy":"1","visit":"BASELINE","visitnum":"2.0","epoch":"TREATMENT","spec":null,"method":null},{"seq":"12","testcd":"HGB","test":"Hemoglobin","cat":"HEMATOLOGY","orres":"154.57","orresu":"g/L","stresc":"154.57","stresn":"154.57","stresu":"g/L","stnrlo":"120","stnrhi":"155","nrind":"NORMAL","fast":null,"dtc":"2024-04-30","dy":"1","visit":"BASELINE","visitnum":"2.0","epoch":"TREATMENT","spec":null,"method":null},{"seq":"13","testcd":"PLAT","test":"Platelets","cat":"HEMATOLOGY","orres":"118.28","orresu":"10^9/L","stresc":"118.28","stresn":"118.28","stresu":"10^9/L","stnrlo":"150","stnrhi":"400","nrind":"LOW","fast":null,"dtc":"2024-04-30","dy":"1","visit":"BASELINE","visitnum":"2.0","epoch":"TREATMENT","spec":null,"method":null},{"seq":"14","testcd":"WBC","test":"Leukocytes","cat":"HEMATOLOGY","orres":"5.4","orresu":"10^9/L","stresc":"5.4","stresn":"5.4","stresu":"10^9/L","stnrlo":"4.0","stnrhi":"11.0","nrind":"NORMAL","fast":null,"dtc":"2024-04-30","dy":"1","visit":"BASELINE","visitnum":"2.0","epoch":"TREATMENT","spec":null,"method":null},{"seq":"15","testcd":"ALT","test":"Alanine Aminotransferase","cat":"CHEMISTRY","orres":"25.98","orresu":"U/L","stresc":"25.98","stresn":"25.98","stresu":"U/L","stnrlo":"7","stnrhi":"56","nrind":"NORMAL","fast":null,"dtc":"2024-05-31","dy":"32","visit":"WEEK 4","visitnum":"3.0","epoch":"TREATMENT","spec":null,"method":null},{"seq":"16","testcd":"AST","test":"Aspartate Aminotransferase","cat":"CHEMISTRY","orres":"19.97","orresu":"U/L","stresc":"19.97","stresn":"19.97","stresu":"U/L","stnrlo":"10","stnrhi":"40","nrind":"NORMAL","fast":null,"dtc":"2024-05-31","dy":"32","visit":"WEEK 4","visitnum":"3.0","epoch":"TREATMENT","spec":null,"method":null},{"seq":"17","testcd":"CREAT","test":"Creatinine","cat":"CHEMISTRY","orres":"55.74","orresu":"umol/L","stresc":"55.74","stresn":"55.74","stresu":"umol/L","stnrlo":"44","stnrhi":"80","nrind":"NORMAL","fast":null,"dtc":"2024-05-31","dy":"32","visit":"WEEK 4","visitnum":"3.0","epoch":"TREATMENT","spec":null,"method":null},{"seq":"18","testcd":"GLUC","test":"Glucose","cat":"CHEMISTRY","orres":"8.24","orresu":"mmol/L","stresc":"8.24","stresn":"8.24","stresu":"mmol/L","stnrlo":"3.9","stnrhi":"5.6","nrind":"HIGH","fast":null,"dtc":"2024-05-31","dy":"32","visit":"WEEK 4","visitnum":"3.0","epoch":"TREATMENT","spec":null,"method":null},{"seq":"19","testcd":"HGB","test":"Hemoglobin","cat":"HEMATOLOGY","orres":null,"orresu":null,"stresc":null,"stresn":null,"stresu":null,"stnrlo":null,"stnrhi":null,"nrind":null,"fast":null,"dtc":"2024-05-31","dy":"32","visit":"WEEK 4","visitnum":"3.0","epoch":"TREATMENT","spec":null,"method":null},{"seq":"20","testcd":"PLAT","test":"Platelets","cat":"HEMATOLOGY","orres":"129.38","orresu":"10^9/L","stresc":"129.38","stresn":"129.38","stresu":"10^9/L","stnrlo":"150","stnrhi":"400","nrind":"LOW","fast":null,"dtc":"2024-05-31","dy":"32","visit":"WEEK 4","visitnum":"3.0","epoch":"TREATMENT","spec":null,"method":null},{"seq":"21","testcd":"WBC","test":"Leukocytes","cat":"HEMATOLOGY","orres":"5.31","orresu":"10^9/L","stresc":"5.31","stresn":"5.31","stresu":"10^9/L","stnrlo":"4.0","stnrhi":"11.0","nrind":"NORMAL","fast":null,"dtc":"2024-05-31","dy":"32","visit":"WEEK 4","visitnum":"3.0","epoch":"TREATMENT","spec":null,"method":null},{"seq":"22","testcd":"ALT","test":"Alanine Aminotransferase","cat":"CHEMISTRY","orres":"28.12","orresu":"U/L","stresc":"28.12","stresn":"28.12","stresu":"U/L","stnrlo":"7","stnrhi":"56","nrind":"NORMAL","fast":null,"dtc":"2024-06-25","dy":"57","visit":"WEEK 8","visitnum":"4.0","epoch":"TREATMENT","spec":null,"method":null},{"seq":"23","testcd":"AST","test":"Aspartate Aminotransferase","cat":"CHEMISTRY","orres":"20.03","orresu":"U/L","stresc":"20.03","stresn":"20.03","stresu":"U/L","stnrlo":"10","stnrhi":"40","nrind":"NORMAL","fast":null,"dtc":"2024-06-25","dy":"57","visit":"WEEK 8","visitnum":"4.0","epoch":"TREATMENT","spec":null,"method":null},{"seq":"24","testcd":"CREAT","test":"Creatinine","cat":"CHEMISTRY","orres":"54.77","orresu":"umol/L","stresc":"54.77","stresn":"54.77","stresu":"umol/L","stnrlo":"44","stnrhi":"80","nrind":"NORMAL","fast":null,"dtc":"2024-06-25","dy":"57","visit":"WEEK 8","visitnum":"4.0","epoch":"TREATMENT","spec":null,"method":null},{"seq":"25","testcd":"GLUC","test":"Glucose","cat":"CHEMISTRY","orres":"8.45","orresu":"mmol/L","stresc":"8.45","stresn":"8.45","stresu":"mmol/L","stnrlo":"3.9","stnrhi":"5.6","nrind":"HIGH","fast":null,"dtc":"2024-06-25","dy":"57","visit":"WEEK 8","visitnum":"4.0","epoch":"TREATMENT","spec":null,"method":null},{"seq":"26","testcd":"HGB","test":"Hemoglobin","cat":"HEMATOLOGY","orres":"157.28","orresu":"g/L","stresc":"157.28","stresn":"157.28","stresu":"g/L","stnrlo":"120","stnrhi":"155","nrind":"HIGH","fast":null,"dtc":"2024-06-25","dy":"57","visit":"WEEK 8","visitnum":"4.0","epoch":"TREATMENT","spec":null,"method":null},{"seq":"27","testcd":"PLAT","test":"Platelets","cat":"HEMATOLOGY","orres":"138.42","orresu":"10^9/L","stresc":"138.42","stresn":"138.42","stresu":"10^9/L","stnrlo":"150","stnrhi":"400","nrind":"LOW","fast":null,"dtc":"2024-06-25","dy":"57","visit":"WEEK 8","visitnum":"4.0","epoch":"TREATMENT","spec":null,"method":null},{"seq":"28","testcd":"WBC","test":"Leukocytes","cat":"HEMATOLOGY","orres":"5.2","orresu":"10^9/L","stresc":"5.2","stresn":"5.2","stresu":"10^9/L","stnrlo":"4.0","stnrhi":"11.0","nrind":"NORMAL","fast":null,"dtc":"2024-06-25","dy":"57","visit":"WEEK 8","visitnum":"4.0","epoch":"TREATMENT","spec":null,"method":null},{"seq":"29","testcd":"ALT","test":"Alanine Aminotransferase","cat":"CHEMISTRY","orres":"24.7","orresu":"U/L","stresc":"24.7","stresn":"24.7","stresu":"U/L","stnrlo":"7","stnrhi":"56","nrind":"NORMAL","fast":null,"dtc":"2024-07-26","dy":"88","visit":"WEEK 12","visitnum":"5.0","epoch":"TREATMENT","spec":null,"method":null},{"seq":"30","testcd":"AST","test":"Aspartate Aminotransferase","cat":"CHEMISTRY","orres":"20.38","orresu":"U/L","stresc":"20.38","stresn":"20.38","stresu":"U/L","stnrlo":"10","stnrhi":"40","nrind":"NORMAL","fast":null,"dtc":"2024-07-26","dy":"88","visit":"WEEK 12","visitnum":"5.0","epoch":"TREATMENT","spec":null,"method":null},{"seq":"31","testcd":"CREAT","test":"Creatinine","cat":"CHEMISTRY","orres":"49.44","orresu":"umol/L","stresc":"49.44","stresn":"49.44","stresu":"umol/L","stnrlo":"44","stnrhi":"80","nrind":"NORMAL","fast":null,"dtc":"2024-07-26","dy":"88","visit":"WEEK 12","visitnum":"5.0","epoch":"TREATMENT","spec":null,"method":null},{"seq":"32","testcd":"GLUC","test":"Glucose","cat":"CHEMISTRY","orres":"8.41","orresu":"mmol/L","stresc":"8.41","stresn":"8.41","stresu":"mmol/L","stnrlo":"3.9","stnrhi":"5.6","nrind":"HIGH","fast":null,"dtc":"2024-07-26","dy":"88","visit":"WEEK 12","visitnum":"5.0","epoch":"TREATMENT","spec":null,"method":null},{"seq":"33","testcd":"HGB","test":"Hemoglobin","cat":"HEMATOLOGY","orres":"155.86","orresu":"g/L","stresc":"155.86","stresn":"155.86","stresu":"g/L","stnrlo":"120","stnrhi":"155","nrind":"HIGH","fast":null,"dtc":"2024-07-26","dy":"88","visit":"WEEK 12","visitnum":"5.0","epoch":"TREATMENT","spec":null,"method":null},{"seq":"34","testcd":"PLAT","test":"Platelets","cat":"HEMATOLOGY","orres":"146.16","orresu":"10^9/L","stresc":"146.16","stresn":"146.16","stresu":"10^9/L","stnrlo":"150","stnrhi":"400","nrind":"LOW","fast":null,"dtc":"2024-07-26","dy":"88","visit":"WEEK 12","visitnum":"5.0","epoch":"TREATMENT","spec":null,"method":null},{"seq":"35","testcd":"WBC","test":"Leukocytes","cat":"HEMATOLOGY","orres":"5.13","orresu":"10^9/L","stresc":"5.13","stresn":"5.13","stresu":"10^9/L","stnrlo":"4.0","stnrhi":"11.0","nrind":"NORMAL","fast":null,"dtc":"2024-07-26","dy":"88","visit":"WEEK 12","visitnum":"5.0","epoch":"TREATMENT","spec":null,"method":null},{"seq":"36","testcd":"ALT","test":"Alanine Aminotransferase","cat":"CHEMISTRY","orres":"26.07","orresu":"U/L","stresc":"26.07","stresn":"26.07","stresu":"U/L","stnrlo":"7","stnrhi":"56","nrind":"NORMAL","fast":null,"dtc":"2024-08-21","dy":"114","visit":"WEEK 16","visitnum":"6.0","epoch":"TREATMENT","spec":null,"method":null},{"seq":"37","testcd":"AST","test":"Aspartate Aminotransferase","cat":"CHEMISTRY","orres":"19.63","orresu":"U/L","stresc":"19.63","stresn":"19.63","stresu":"U/L","stnrlo":"10","stnrhi":"40","nrind":"NORMAL","fast":null,"dtc":"2024-08-21","dy":"114","visit":"WEEK 16","visitnum":"6.0","epoch":"TREATMENT","spec":null,"method":null},{"seq":"38","testcd":"CREAT","test":"Creatinine","cat":"CHEMISTRY","orres":"49.89","orresu":"umol/L","stresc":"49.89","stresn":"49.89","stresu":"umol/L","stnrlo":"44","stnrhi":"80","nrind":"NORMAL","fast":null,"dtc":"2024-08-21","dy":"114","visit":"WEEK 16","visitnum":"6.0","epoch":"TREATMENT","spec":null,"method":null},{"seq":"39","testcd":"GLUC","test":"Glucose","cat":"CHEMISTRY","orres":"8.36","orresu":"mmol/L","stresc":"8.36","stresn":"8.36","stresu":"mmol/L","stnrlo":"3.9","stnrhi":"5.6","nrind":"HIGH","fast":null,"dtc":"2024-08-21","dy":"114","visit":"WEEK 16","visitnum":"6.0","epoch":"TREATMENT","spec":null,"method":null},{"seq":"40","testcd":"HGB","test":"Hemoglobin","cat":"HEMATOLOGY","orres":"155.25","orresu":"g/L","stresc":"155.25","stresn":"155.25","stresu":"g/L","stnrlo":"120","stnrhi":"155","nrind":"HIGH","fast":null,"dtc":"2024-08-21","dy":"114","visit":"WEEK 16","visitnum":"6.0","epoch":"TREATMENT","spec":null,"method":null},{"seq":"41","testcd":"PLAT","test":"Platelets","cat":"HEMATOLOGY","orres":"142.89","orresu":"10^9/L","stresc":"142.89","stresn":"142.89","stresu":"10^9/L","stnrlo":"150","stnrhi":"400","nrind":"LOW","fast":null,"dtc":"2024-08-21","dy":"114","visit":"WEEK 16","visitnum":"6.0","epoch":"TREATMENT","spec":null,"method":null},{"seq":"42","testcd":"WBC","test":"Leukocytes","cat":"HEMATOLOGY","orres":"5.42","orresu":"10^9/L","stresc":"5.42","stresn":"5.42","stresu":"10^9/L","stnrlo":"4.0","stnrhi":"11.0","nrind":"NORMAL","fast":null,"dtc":"2024-08-21","dy":"114","visit":"WEEK 16","visitnum":"6.0","epoch":"TREATMENT","spec":null,"method":null},{"seq":"43","testcd":"ALT","test":"Alanine Aminotransferase","cat":"CHEMISTRY","orres":"25.54","orresu":"U/L","stresc":"25.54","stresn":"25.54","stresu":"U/L","stnrlo":"7","stnrhi":"56","nrind":"NORMAL","fast":null,"dtc":"2024-09-19","dy":"143","visit":"WEEK 20","visitnum":"7.0","epoch":"TREATMENT","spec":null,"method":null},{"seq":"44","testcd":"AST","test":"Aspartate Aminotransferase","cat":"CHEMISTRY","orres":"19.87","orresu":"U/L","stresc":"19.87","stresn":"19.87","stresu":"U/L","stnrlo":"10","stnrhi":"40","nrind":"NORMAL","fast":null,"dtc":"2024-09-19","dy":"143","visit":"WEEK 20","visitnum":"7.0","epoch":"TREATMENT","spec":null,"method":null},{"seq":"45","testcd":"CREAT","test":"Creatinine","cat":"CHEMISTRY","orres":"49.99","orresu":"umol/L","stresc":"49.99","stresn":"49.99","stresu":"umol/L","stnrlo":"44","stnrhi":"80","nrind":"NORMAL","fast":null,"dtc":"2024-09-19","dy":"143","visit":"WEEK 20","visitnum":"7.0","epoch":"TREATMENT","spec":null,"method":null},{"seq":"46","testcd":"GLUC","test":"Glucose","cat":"CHEMISTRY","orres":"8.5","orresu":"mmol/L","stresc":"8.5","stresn":"8.5","stresu":"mmol/L","stnrlo":"3.9","stnrhi":"5.6","nrind":"HIGH","fast":null,"dtc":"2024-09-19","dy":"143","visit":"WEEK 20","visitnum":"7.0","epoch":"TREATMENT","spec":null,"method":null},{"seq":"47","testcd":"HGB","test":"Hemoglobin","cat":"HEMATOLOGY","orres":"154.79","orresu":"g/L","stresc":"154.79","stresn":"154.79","stresu":"g/L","stnrlo":"120","stnrhi":"155","nrind":"NORMAL","fast":null,"dtc":"2024-09-19","dy":"143","visit":"WEEK 20","visitnum":"7.0","epoch":"TREATMENT","spec":null,"method":null},{"seq":"48","testcd":"PLAT","test":"Platelets","cat":"HEMATOLOGY","orres":"126.56","orresu":"10^9/L","stresc":"126.56","stresn":"126.56","stresu":"10^9/L","stnrlo":"150","stnrhi":"400","nrind":"LOW","fast":null,"dtc":"2024-09-19","dy":"143","visit":"WEEK 20","visitnum":"7.0","epoch":"TREATMENT","spec":null,"method":null},{"seq":"49","testcd":"WBC","test":"Leukocytes","cat":"HEMATOLOGY","orres":"5.35","orresu":"10^9/L","stresc":"5.35","stresn":"5.35","stresu":"10^9/L","stnrlo":"4.0","stnrhi":"11.0","nrind":"NORMAL","fast":null,"dtc":"2024-09-19","dy":"143","visit":"WEEK 20","visitnum":"7.0","epoch":"TREATMENT","spec":null,"method":null}]},"section_9_vital_signs":{"summary":{"total_records":48},"trends":{"BMI":[{"visit":"SCREENING","visitnum":"1.0","dtc":"2024-03-09","value":"23.5","unit":"kg/m2"},{"visit":"BASELINE","visitnum":"2.0","dtc":"2024-04-30","value":"22.3","unit":"kg/m2"},{"visit":"WEEK 8","visitnum":"4.0","dtc":"2024-06-25","value":"22.4","unit":"kg/m2"},{"visit":"WEEK 12","visitnum":"5.0","dtc":"2024-07-26","value":"23.4","unit":"kg/m2"},{"visit":"WEEK 16","visitnum":"6.0","dtc":"2024-08-21","value":"23.8","unit":"kg/m2"},{"visit":"WEEK 20","visitnum":"7.0","dtc":"2024-09-19","value":"23.6","unit":"kg/m2"}],"DIABP":[{"visit":"SCREENING","visitnum":"1.0","dtc":"2024-03-09","value":"71.4","unit":"mmHg"},{"visit":"BASELINE","visitnum":"2.0","dtc":"2024-04-30","value":"73.6","unit":"mmHg"},{"visit":"WEEK 8","visitnum":"4.0","dtc":"2024-06-25","value":"74.1","unit":"mmHg"},{"visit":"WEEK 12","visitnum":"5.0","dtc":"2024-07-26","value":"73.9","unit":"mmHg"},{"visit":"WEEK 16","visitnum":"6.0","dtc":"2024-08-21","value":"75.2","unit":"mmHg"},{"visit":"WEEK 20","visitnum":"7.0","dtc":"2024-09-19","value":"69.4","unit":"mmHg"}],"HEIGHT":[{"visit":"SCREENING","visitnum":"1.0","dtc":"2024-03-09","value":"152.9","unit":"cm"},{"visit":"BASELINE","visitnum":"2.0","dtc":"2024-04-30","value":"153.1","unit":"cm"},{"visit":"WEEK 8","visitnum":"4.0","dtc":"2024-06-25","value":"152.3","unit":"cm"},{"visit":"WEEK 12","visitnum":"5.0","dtc":"2024-07-26","value":"152.2","unit":"cm"},{"visit":"WEEK 16","visitnum":"6.0","dtc":"2024-08-21","value":"152.4","unit":"cm"},{"visit":"WEEK 20","visitnum":"7.0","dtc":"2024-09-19","value":"152.8","unit":"cm"}],"PULSE":[{"visit":"SCREENING","visitnum":"1.0","dtc":"2024-03-09","value":"75.7","unit":"beats/min"},{"visit":"BASELINE","visitnum":"2.0","dtc":"2024-04-30","value":"75.7","unit":"beats/min"},{"visit":"WEEK 8","visitnum":"4.0","dtc":"2024-06-25","value":"81.0","unit":"beats/min"},{"visit":"WEEK 12","visitnum":"5.0","dtc":"2024-07-26","value":"77.2","unit":"beats/min"},{"visit":"WEEK 16","visitnum":"6.0","dtc":"2024-08-21","value":"75.6","unit":"beats/min"},{"visit":"WEEK 20","visitnum":"7.0","dtc":"2024-09-19","value":"73.1","unit":"beats/min"}],"RESP":[{"visit":"SCREENING","visitnum":"1.0","dtc":"2024-03-09","value":"14.1","unit":"breaths/min"},{"visit":"BASELINE","visitnum":"2.0","dtc":"2024-04-30","value":"14.6","unit":"breaths/min"},{"visit":"WEEK 8","visitnum":"4.0","dtc":"2024-06-25","value":"14.6","unit":"breaths/min"},{"visit":"WEEK 12","visitnum":"5.0","dtc":"2024-07-26","value":"13.5","unit":"breaths/min"},{"visit":"WEEK 16","visitnum":"6.0","dtc":"2024-08-21","value":"15.8","unit":"breaths/min"},{"visit":"WEEK 20","visitnum":"7.0","dtc":"2024-09-19","value":"14.8","unit":"breaths/min"}],"SYSBP":[{"visit":"SCREENING","visitnum":"1.0","dtc":"2024-03-09","value":"141.5","unit":"mmHg"},{"visit":"BASELINE","visitnum":"2.0","dtc":"2024-04-30","value":"144.1","unit":"mmHg"},{"visit":"WEEK 8","visitnum":"4.0","dtc":"2024-06-25","value":"145.5","unit":"mmHg"},{"visit":"WEEK 12","visitnum":"5.0","dtc":"2024-07-26","value":"146.3","unit":"mmHg"},{"visit":"WEEK 16","visitnum":"6.0","dtc":"2024-08-21","value":"147.8","unit":"mmHg"},{"visit":"WEEK 20","visitnum":"7.0","dtc":"2024-09-19","value":"142.4","unit":"mmHg"}],"TEMP":[{"visit":"SCREENING","visitnum":"1.0","dtc":"2024-03-09","value":"37.5","unit":"C"},{"visit":"BASELINE","visitnum":"2.0","dtc":"2024-04-30","value":"37.6","unit":"C"},{"visit":"WEEK 8","visitnum":"4.0","dtc":"2024-06-25","value":"37.7","unit":"C"},{"visit":"WEEK 12","visitnum":"5.0","dtc":"2024-07-26","value":"37.8","unit":"C"},{"visit":"WEEK 16","visitnum":"6.0","dtc":"2024-08-21","value":"37.6","unit":"C"},{"visit":"WEEK 20","visitnum":"7.0","dtc":"2024-09-19","value":"37.6","unit":"C"}],"WEIGHT":[{"visit":"SCREENING","visitnum":"1.0","dtc":"2024-03-09","value":"55.0","unit":"kg"},{"visit":"BASELINE","visitnum":"2.0","dtc":"2024-04-30","value":"52.3","unit":"kg"},{"visit":"WEEK 8","visitnum":"4.0","dtc":"2024-06-25","value":"52.0","unit":"kg"},{"visit":"WEEK 12","visitnum":"5.0","dtc":"2024-07-26","value":"54.3","unit":"kg"},{"visit":"WEEK 16","visitnum":"6.0","dtc":"2024-08-21","value":"55.3","unit":"kg"},{"visit":"WEEK 20","visitnum":"7.0","dtc":"2024-09-19","value":"55.2","unit":"kg"}]},"results":[{"seq":"1","testcd":"BMI","test":"BMI","cat":null,"orres":null,"orresu":null,"stresc":"23.5","stresn":"23.5","stresu":"kg/m2","stnrlo":null,"stnrhi":null,"nrind":null,"pos":null,"loc":null,"dtc":"2024-03-09","dy":"-52","visit":"SCREENING","visitnum":"1.0","epoch":"SCREENING"},{"seq":"2","testcd":"DIABP","test":"Diastolic Blood Pressure","cat":null,"orres":"71.4","orresu":"mmHg","stresc":"71.4","stresn":"71.4","stresu":"mmHg","stnrlo":null,"stnrhi":null,"nrind":null,"pos":null,"loc":null,"dtc":"2024-03-09","dy":"-52","visit":"SCREENING","visitnum":"1.0","epoch":"SCREENING"},{"seq":"3","testcd":"HEIGHT","test":"Height","cat":null,"orres":"152.9","orresu":"cm","stresc":"152.9","stresn":"152.9","stresu":"cm","stnrlo":null,"stnrhi":null,"nrind":null,"pos":null,"loc":null,"dtc":"2024-03-09","dy":"-52","visit":"SCREENING","visitnum":"1.0","epoch":"SCREENING"},{"seq":"4","testcd":"PULSE","test":"Pulse Rate","cat":null,"orres":"75.7","orresu":"beats/min","stresc":"75.7","stresn":"75.7","stresu":"beats/min","stnrlo":null,"stnrhi":null,"nrind":null,"pos":null,"loc":null,"dtc":"2024-03-09","dy":"-52","visit":"SCREENING","visitnum":"1.0","epoch":"SCREENING"},{"seq":"5","testcd":"RESP","test":"Respiratory Rate","cat":null,"orres":"14.1","orresu":"breaths/min","stresc":"14.1","stresn":"14.1","stresu":"breaths/min","stnrlo":null,"stnrhi":null,"nrind":null,"pos":null,"loc":null,"dtc":"2024-03-09","dy":"-52","visit":"SCREENING","visitnum":"1.0","epoch":"SCREENING"},{"seq":"6","testcd":"SYSBP","test":"Systolic Blood Pressure","cat":null,"orres":"141.5","orresu":"mmHg","stresc":"141.5","stresn":"141.5","stresu":"mmHg","stnrlo":null,"stnrhi":null,"nrind":null,"pos":null,"loc":null,"dtc":"2024-03-09","dy":"-52","visit":"SCREENING","visitnum":"1.0","epoch":"SCREENING"},{"seq":"7","testcd":"TEMP","test":"Temperature","cat":null,"orres":"37.5","orresu":"C","stresc":"37.5","stresn":"37.5","stresu":"C","stnrlo":null,"stnrhi":null,"nrind":null,"pos":null,"loc":null,"dtc":"2024-03-09","dy":"-52","visit":"SCREENING","visitnum":"1.0","epoch":"SCREENING"},{"seq":"8","testcd":"WEIGHT","test":"Weight","cat":null,"orres":"55.0","orresu":"kg","stresc":"55.0","stresn":"55.0","stresu":"kg","stnrlo":null,"stnrhi":null,"nrind":null,"pos":null,"loc":null,"dtc":"2024-03-09","dy":"-52","visit":"SCREENING","visitnum":"1.0","epoch":"SCREENING"},{"seq":"9","testcd":"BMI","test":"BMI","cat":null,"orres":null,"orresu":null,"stresc":"22.3","stresn":"22.3","stresu":"kg/m2","stnrlo":null,"stnrhi":null,"nrind":null,"pos":null,"loc":null,"dtc":"2024-04-30","dy":"1","visit":"BASELINE","visitnum":"2.0","epoch":"TREATMENT"},{"seq":"10","testcd":"DIABP","test":"Diastolic Blood Pressure","cat":null,"orres":"73.6","orresu":"mmHg","stresc":"73.6","stresn":"73.6","stresu":"mmHg","stnrlo":null,"stnrhi":null,"nrind":null,"pos":null,"loc":null,"dtc":"2024-04-30","dy":"1","visit":"BASELINE","visitnum":"2.0","epoch":"TREATMENT"},{"seq":"11","testcd":"HEIGHT","test":"Height","cat":null,"orres":"153.1","orresu":"cm","stresc":"153.1","stresn":"153.1","stresu":"cm","stnrlo":null,"stnrhi":null,"nrind":null,"pos":null,"loc":null,"dtc":"2024-04-30","dy":"1","visit":"BASELINE","visitnum":"2.0","epoch":"TREATMENT"},{"seq":"12","testcd":"PULSE","test":"Pulse Rate","cat":null,"orres":"75.7","orresu":"beats/min","stresc":"75.7","stresn":"75.7","stresu":"beats/min","stnrlo":null,"stnrhi":null,"nrind":null,"pos":null,"loc":null,"dtc":"2024-04-30","dy":"1","visit":"BASELINE","visitnum":"2.0","epoch":"TREATMENT"},{"seq":"13","testcd":"RESP","test":"Respiratory Rate","cat":null,"orres":"14.6","orresu":"breaths/min","stresc":"14.6","stresn":"14.6","stresu":"breaths/min","stnrlo":null,"stnrhi":null,"nrind":null,"pos":null,"loc":null,"dtc":"2024-04-30","dy":"1","visit":"BASELINE","visitnum":"2.0","epoch":"TREATMENT"},{"seq":"14","testcd":"SYSBP","test":"Systolic Blood Pressure","cat":null,"orres":"144.1","orresu":"mmHg","stresc":"144.1","stresn":"144.1","stresu":"mmHg","stnrlo":null,"stnrhi":null,"nrind":null,"pos":null,"loc":null,"dtc":"2024-04-30","dy":"1","visit":"BASELINE","visitnum":"2.0","epoch":"TREATMENT"},{"seq":"15","testcd":"TEMP","test":"Temperature","cat":null,"orres":"37.6","orresu":"C","stresc":"37.6","stresn":"37.6","stresu":"C","stnrlo":null,"stnrhi":null,"nrind":null,"pos":null,"loc":null,"dtc":"2024-04-30","dy":"1","visit":"BASELINE","visitnum":"2.0","epoch":"TREATMENT"},{"seq":"16","testcd":"WEIGHT","test":"Weight","cat":null,"orres":"52.3","orresu":"kg","stresc":"52.3","stresn":"52.3","stresu":"kg","stnrlo":null,"stnrhi":null,"nrind":null,"pos":null,"loc":null,"dtc":"2024-04-30","dy":"1","visit":"BASELINE","visitnum":"2.0","epoch":"TREATMENT"},{"seq":"17","testcd":"BMI","test":"BMI","cat":null,"orres":null,"orresu":null,"stresc":"22.4","stresn":"22.4","stresu":"kg/m2","stnrlo":null,"stnrhi":null,"nrind":null,"pos":null,"loc":null,"dtc":"2024-06-25","dy":"57","visit":"WEEK 8","visitnum":"4.0","epoch":"TREATMENT"},{"seq":"18","testcd":"DIABP","test":"Diastolic Blood Pressure","cat":null,"orres":"74.1","orresu":"mmHg","stresc":"74.1","stresn":"74.1","stresu":"mmHg","stnrlo":null,"stnrhi":null,"nrind":null,"pos":null,"loc":null,"dtc":"2024-06-25","dy":"57","visit":"WEEK 8","visitnum":"4.0","epoch":"TREATMENT"},{"seq":"19","testcd":"HEIGHT","test":"Height","cat":null,"orres":"152.3","orresu":"cm","stresc":"152.3","stresn":"152.3","stresu":"cm","stnrlo":null,"stnrhi":null,"nrind":null,"pos":null,"loc":null,"dtc":"2024-06-25","dy":"57","visit":"WEEK 8","visitnum":"4.0","epoch":"TREATMENT"},{"seq":"20","testcd":"PULSE","test":"Pulse Rate","cat":null,"orres":"81.0","orresu":"beats/min","stresc":"81.0","stresn":"81.0","stresu":"beats/min","stnrlo":null,"stnrhi":null,"nrind":null,"pos":null,"loc":null,"dtc":"2024-06-25","dy":"57","visit":"WEEK 8","visitnum":"4.0","epoch":"TREATMENT"},{"seq":"21","testcd":"RESP","test":"Respiratory Rate","cat":null,"orres":"14.6","orresu":"breaths/min","stresc":"14.6","stresn":"14.6","stresu":"breaths/min","stnrlo":null,"stnrhi":null,"nrind":null,"pos":null,"loc":null,"dtc":"2024-06-25","dy":"57","visit":"WEEK 8","visitnum":"4.0","epoch":"TREATMENT"},{"seq":"22","testcd":"SYSBP","test":"Systolic Blood Pressure","cat":null,"orres":"145.5","orresu":"mmHg","stresc":"145.5","stresn":"145.5","stresu":"mmHg","stnrlo":null,"stnrhi":null,"nrind":null,"pos":null,"loc":null,"dtc":"2024-06-25","dy":"57","visit":"WEEK 8","visitnum":"4.0","epoch":"TREATMENT"},{"seq":"23","testcd":"TEMP","test":"Temperature","cat":null,"orres":"37.7","orresu":"C","stresc":"37.7","stresn":"37.7","stresu":"C","stnrlo":null,"stnrhi":null,"nrind":null,"pos":null,"loc":null,"dtc":"2024-06-25","dy":"57","visit":"WEEK 8","visitnum":"4.0","epoch":"TREATMENT"},{"seq":"24","testcd":"WEIGHT","test":"Weight","cat":null,"orres":"52.0","orresu":"kg","stresc":"52.0","stresn":"52.0","stresu":"kg","stnrlo":null,"stnrhi":null,"nrind":null,"pos":null,"loc":null,"dtc":"2024-06-25","dy":"57","visit":"WEEK 8","visitnum":"4.0","epoch":"TREATMENT"},{"seq":"25","testcd":"BMI","test":"BMI","cat":null,"orres":null,"orresu":null,"stresc":"23.4","stresn":"23.4","stresu":"kg/m2","stnrlo":null,"stnrhi":null,"nrind":null,"pos":null,"loc":null,"dtc":"2024-07-26","dy":"88","visit":"WEEK 12","visitnum":"5.0","epoch":"TREATMENT"},{"seq":"26","testcd":"DIABP","test":"Diastolic Blood Pressure","cat":null,"orres":"73.9","orresu":"mmHg","stresc":"73.9","stresn":"73.9","stresu":"mmHg","stnrlo":null,"stnrhi":null,"nrind":null,"pos":null,"loc":null,"dtc":"2024-07-26","dy":"88","visit":"WEEK 12","visitnum":"5.0","epoch":"TREATMENT"},{"seq":"27","testcd":"HEIGHT","test":"Height","cat":null,"orres":"152.2","orresu":"cm","stresc":"152.2","stresn":"152.2","stresu":"cm","stnrlo":null,"stnrhi":null,"nrind":null,"pos":null,"loc":null,"dtc":"2024-07-26","dy":"88","visit":"WEEK 12","visitnum":"5.0","epoch":"TREATMENT"},{"seq":"28","testcd":"PULSE","test":"Pulse Rate","cat":null,"orres":"77.2","orresu":"beats/min","stresc":"77.2","stresn":"77.2","stresu":"beats/min","stnrlo":null,"stnrhi":null,"nrind":null,"pos":null,"loc":null,"dtc":"2024-07-26","dy":"88","visit":"WEEK 12","visitnum":"5.0","epoch":"TREATMENT"},{"seq":"29","testcd":"RESP","test":"Respiratory Rate","cat":null,"orres":"13.5","orresu":"breaths/min","stresc":"13.5","stresn":"13.5","stresu":"breaths/min","stnrlo":null,"stnrhi":null,"nrind":null,"pos":null,"loc":null,"dtc":"2024-07-26","dy":"88","visit":"WEEK 12","visitnum":"5.0","epoch":"TREATMENT"},{"seq":"30","testcd":"SYSBP","test":"Systolic Blood Pressure","cat":null,"orres":"146.3","orresu":"mmHg","stresc":"146.3","stresn":"146.3","stresu":"mmHg","stnrlo":null,"stnrhi":null,"nrind":null,"pos":null,"loc":null,"dtc":"2024-07-26","dy":"88","visit":"WEEK 12","visitnum":"5.0","epoch":"TREATMENT"},{"seq":"31","testcd":"TEMP","test":"Temperature","cat":null,"orres":"37.8","orresu":"C","stresc":"37.8","stresn":"37.8","stresu":"C","stnrlo":null,"stnrhi":null,"nrind":null,"pos":null,"loc":null,"dtc":"2024-07-26","dy":"88","visit":"WEEK 12","visitnum":"5.0","epoch":"TREATMENT"},{"seq":"32","testcd":"WEIGHT","test":"Weight","cat":null,"orres":"54.3","orresu":"kg","stresc":"54.3","stresn":"54.3","stresu":"kg","stnrlo":null,"stnrhi":null,"nrind":null,"pos":null,"loc":null,"dtc":"2024-07-26","dy":"88","visit":"WEEK 12","visitnum":"5.0","epoch":"TREATMENT"},{"seq":"33","testcd":"BMI","test":"BMI","cat":null,"orres":null,"orresu":null,"stresc":"23.8","stresn":"23.8","stresu":"kg/m2","stnrlo":null,"stnrhi":null,"nrind":null,"pos":null,"loc":null,"dtc":"2024-08-21","dy":"114","visit":"WEEK 16","visitnum":"6.0","epoch":"TREATMENT"},{"seq":"34","testcd":"DIABP","test":"Diastolic Blood Pressure","cat":null,"orres":"75.2","orresu":"mmHg","stresc":"75.2","stresn":"75.2","stresu":"mmHg","stnrlo":null,"stnrhi":null,"nrind":null,"pos":null,"loc":null,"dtc":"2024-08-21","dy":"114","visit":"WEEK 16","visitnum":"6.0","epoch":"TREATMENT"},{"seq":"35","testcd":"HEIGHT","test":"Height","cat":null,"orres":"152.4","orresu":"cm","stresc":"152.4","stresn":"152.4","stresu":"cm","stnrlo":null,"stnrhi":null,"nrind":null,"pos":null,"loc":null,"dtc":"2024-08-21","dy":"114","visit":"WEEK 16","visitnum":"6.0","epoch":"TREATMENT"},{"seq":"36","testcd":"PULSE","test":"Pulse Rate","cat":null,"orres":"75.6","orresu":"beats/min","stresc":"75.6","stresn":"75.6","stresu":"beats/min","stnrlo":null,"stnrhi":null,"nrind":null,"pos":null,"loc":null,"dtc":"2024-08-21","dy":"114","visit":"WEEK 16","visitnum":"6.0","epoch":"TREATMENT"},{"seq":"37","testcd":"RESP","test":"Respiratory Rate","cat":null,"orres":"15.8","orresu":"breaths/min","stresc":"15.8","stresn":"15.8","stresu":"breaths/min","stnrlo":null,"stnrhi":null,"nrind":null,"pos":null,"loc":null,"dtc":"2024-08-21","dy":"114","visit":"WEEK 16","visitnum":"6.0","epoch":"TREATMENT"},{"seq":"38","testcd":"SYSBP","test":"Systolic Blood Pressure","cat":null,"orres":"147.8","orresu":"mmHg","stresc":"147.8","stresn":"147.8","stresu":"mmHg","stnrlo":null,"stnrhi":null,"nrind":null,"pos":null,"loc":null,"dtc":"2024-08-21","dy":"114","visit":"WEEK 16","visitnum":"6.0","epoch":"TREATMENT"},{"seq":"39","testcd":"TEMP","test":"Temperature","cat":null,"orres":"37.6","orresu":"C","stresc":"37.6","stresn":"37.6","stresu":"C","stnrlo":null,"stnrhi":null,"nrind":null,"pos":null,"loc":null,"dtc":"2024-08-21","dy":"114","visit":"WEEK 16","visitnum":"6.0","epoch":"TREATMENT"},{"seq":"40","testcd":"WEIGHT","test":"Weight","cat":null,"orres":"55.3","orresu":"kg","stresc":"55.3","stresn":"55.3","stresu":"kg","stnrlo":null,"stnrhi":null,"nrind":null,"pos":null,"loc":null,"dtc":"2024-08-21","dy":"114","visit":"WEEK 16","visitnum":"6.0","epoch":"TREATMENT"},{"seq":"41","testcd":"BMI","test":"BMI","cat":null,"orres":null,"orresu":null,"stresc":"23.6","stresn":"23.6","stresu":"kg/m2","stnrlo":null,"stnrhi":null,"nrind":null,"pos":null,"loc":null,"dtc":"2024-09-19","dy":"143","visit":"WEEK 20","visitnum":"7.0","epoch":"TREATMENT"},{"seq":"42","testcd":"DIABP","test":"Diastolic Blood Pressure","cat":null,"orres":"69.4","orresu":"mmHg","stresc":"69.4","stresn":"69.4","stresu":"mmHg","stnrlo":null,"stnrhi":null,"nrind":null,"pos":null,"loc":null,"dtc":"2024-09-19","dy":"143","visit":"WEEK 20","visitnum":"7.0","epoch":"TREATMENT"},{"seq":"43","testcd":"HEIGHT","test":"Height","cat":null,"orres":"152.8","orresu":"cm","stresc":"152.8","stresn":"152.8","stresu":"cm","stnrlo":null,"stnrhi":null,"nrind":null,"pos":null,"loc":null,"dtc":"2024-09-19","dy":"143","visit":"WEEK 20","visitnum":"7.0","epoch":"TREATMENT"},{"seq":"44","testcd":"PULSE","test":"Pulse Rate","cat":null,"orres":"73.1","orresu":"beats/min","stresc":"73.1","stresn":"73.1","stresu":"beats/min","stnrlo":null,"stnrhi":null,"nrind":null,"pos":null,"loc":null,"dtc":"2024-09-19","dy":"143","visit":"WEEK 20","visitnum":"7.0","epoch":"TREATMENT"},{"seq":"45","testcd":"RESP","test":"Respiratory Rate","cat":null,"orres":"14.8","orresu":"breaths/min","stresc":"14.8","stresn":"14.8","stresu":"breaths/min","stnrlo":null,"stnrhi":null,"nrind":null,"pos":null,"loc":null,"dtc":"2024-09-19","dy":"143","visit":"WEEK 20","visitnum":"7.0","epoch":"TREATMENT"},{"seq":"46","testcd":"SYSBP","test":"Systolic Blood Pressure","cat":null,"orres":"142.4","orresu":"mmHg","stresc":"142.4","stresn":"142.4","stresu":"mmHg","stnrlo":null,"stnrhi":null,"nrind":null,"pos":null,"loc":null,"dtc":"2024-09-19","dy":"143","visit":"WEEK 20","visitnum":"7.0","epoch":"TREATMENT"},{"seq":"47","testcd":"TEMP","test":"Temperature","cat":null,"orres":"37.6","orresu":"C","stresc":"37.6","stresn":"37.6","stresu":"C","stnrlo":null,"stnrhi":null,"nrind":null,"pos":null,"loc":null,"dtc":"2024-09-19","dy":"143","visit":"WEEK 20","visitnum":"7.0","epoch":"TREATMENT"},{"seq":"48","testcd":"WEIGHT","test":"Weight","cat":null,"orres":"55.2","orresu":"kg","stresc":"55.2","stresn":"55.2","stresu":"kg","stnrlo":null,"stnrhi":null,"nrind":null,"pos":null,"loc":null,"dtc":"2024-09-19","dy":"143","visit":"WEEK 20","visitnum":"7.0","epoch":"TREATMENT"}]},"section_10_questionnaires_and_scores":{"questionnaires":[],"findings_about":[]},"section_11_protocol_deviations":{"deviations":[{"seq":"1","term":"Dose modified from 10.0 to 2.5 mg","decod":"DOSE MODIFICATION","cat":"MINOR","scat":"DOSING","start_dtc":"2024-05-07","end_dtc":null,"visit":null},{"seq":"2","term":"Dose modified from 10.0 to 2.5 mg","decod":"DOSE MODIFICATION","cat":"MINOR","scat":"DOSING","start_dtc":"2024-05-14","end_dtc":null,"visit":null},{"seq":"3","term":"Missed TIRZEPATIDE dose on 2024-05-21","decod":"MISSED DOSE","cat":"MINOR","scat":"DOSING","start_dtc":"2024-05-21","end_dtc":null,"visit":null},{"seq":"4","term":"Dose modified from 10.0 to 5.0 mg","decod":"DOSE MODIFICATION","cat":"MINOR","scat":"DOSING","start_dtc":"2024-05-28","end_dtc":null,"visit":null},{"seq":"5","term":"Dose modified from 10.0 to 7.5 mg","decod":"DOSE MODIFICATION","cat":"MINOR","scat":"DOSING","start_dtc":"2024-06-25","end_dtc":null,"visit":null},{"seq":"6","term":"Dose modified from 10.0 to 7.5 mg","decod":"DOSE MODIFICATION","cat":"MINOR","scat":"DOSING","start_dtc":"2024-07-16","end_dtc":null,"visit":null},{"seq":"7","term":"Visit WEEK 16 occurred 1 days late (Day 114 vs planned Day 113)","decod":"VISIT OCCURRED OUTSIDE VISIT WINDOW","cat":"MINOR","scat":"VISIT WINDOW","start_dtc":"2024-08-21","end_dtc":null,"visit":null},{"seq":"8","term":"Missed TIRZEPATIDE dose on 2024-08-27","decod":"MISSED DOSE","cat":"MINOR","scat":"DOSING","start_dtc":"2024-08-27","end_dtc":null,"visit":null}],"total":8},"section_12_disposition":{"completion_status":"INFORMED CONSENT OBTAINED","disposition_records":[{"seq":"1","term":"INFORMED CONSENT OBTAINED","decod":"INFORMED CONSENT OBTAINED","cat":"PROTOCOL MILESTONE","scat":null,"dtc":"2024-04-09","dy":null,"visit":null,"epoch":"SCREENING"},{"seq":"2","term":"RANDOMIZED","decod":"RANDOMIZED","cat":"PROTOCOL MILESTONE","scat":null,"dtc":"2024-04-30","dy":null,"visit":null,"epoch":"TREATMENT"},{"seq":"3","term":"ADVERSE EVENT","decod":"ADVERSE EVENT","cat":"DISPOSITION EVENT","scat":null,"dtc":"2024-09-24","dy":null,"visit":null,"epoch":"TREATMENT"}],"death":null},"section_13_hospitalizations":{"items":[{"seq":"1","term":"Diarrhoea","decod":"Diarrhoea","cat":"EMERGENCY ROOM VISIT","start_dtc":"2024-06-10","end_dtc":"2024-06-16","epoch":"TREATMENT"},{"seq":"2","term":"Diarrhoea","decod":"Diarrhoea","cat":"EMERGENCY ROOM VISIT","start_dtc":"2024-06-30","end_dtc":"2024-07-11","epoch":"TREATMENT"},{"seq":"3","term":"Constipation","decod":"Constipation","cat":"EMERGENCY ROOM VISIT","start_dtc":"2024-07-21","end_dtc":"2024-07-29","epoch":"TREATMENT"},{"seq":"4","term":"Diarrhoea","decod":"Diarrhoea","cat":"HOSPITALIZATION","start_dtc":"2024-08-15","end_dtc":"2024-08-19","epoch":"TREATMENT"},{"seq":"5","term":"Fatigue","decod":"Fatigue","cat":"HOSPITALIZATION","start_dtc":"2024-09-24","end_dtc":"2024-09-24","epoch":"TREATMENT"}],"total":5},"section_14_substance_use":{"items":[{"seq":"1","substance":"BEER/WINE/SPIRITS","decod":"ETHANOL","cat":"ALCOHOL","scat":null,"usage":"Y","dose":null,"dosu":null,"freq":null,"start_dtc":"1999-04-16","end_dtc":"2020-04-10"},{"seq":"2","substance":"COFFEE","decod":"COFFEE","cat":"CAFFEINE","scat":null,"usage":"N","dose":null,"dosu":null,"freq":null,"start_dtc":null,"end_dtc":null},{"seq":"3","substance":"CIGARETTES","decod":"CIGARETTES","cat":"TOBACCO","scat":null,"usage":"Y","dose":null,"dosu":null,"freq":null,"start_dtc":"2018-04-11","end_dtc":"2019-04-11"}],"total":3},"section_15_subject_status":{"items":[{"seq":"1","testcd":"SURVSTAT","test":"Survival Status","orres":"ALIVE","stresc":"ALIVE","dtc":"2024-09-24","visit":null,"epoch":"FOLLOW-UP"}],"total":1}}