{"subject_id":"I8F-JE-GPGO-SURPASS-JPN_TOKYO01-0008","study_id":"I8F-JE-GPGO-SURPASS","generated_at":"2026-07-07T06:16:06.920033+00:00","sdtmig_version":"3.4","flags":{"has_serious_ae":true,"has_fatal_ae":false,"has_protocol_deviation":true,"n_protocol_deviations":9,"n_adverse_events":5,"n_concomitant_meds":4,"max_ae_severity":"SEVERE","screen_failure":false,"discontinued_early":true,"discontinuation_reason":"ADVERSE EVENT","death":false,"exposure_days":133},"timeline":[{"dtc":"2005-03-23","dy":"-6959","event":"CM START: ORLISTAT","domain":"CM","category":"concomitant_med"},{"dtc":"2024-02-27","dy":"-44","event":"VISIT: SCREENING","domain":"SV","category":"visit"},{"dtc":"2024-03-18","dy":"-24","event":"INFORMED CONSENT OBTAINED","domain":"DS","category":"milestone"},{"dtc":"2024-04-11","dy":"1","event":"RANDOMIZED","domain":"DS","category":"milestone"},{"dtc":"2024-04-11","dy":"1","event":"DEVIATION: MISSED DOSE","domain":"DV","category":"deviation"},{"dtc":"2024-04-11","dy":"1","event":"VISIT: BASELINE","domain":"SV","category":"visit"},{"dtc":"2024-04-18","dy":"8","event":"FIRST DOSE: TIRZEPATIDE","domain":"EX","category":"exposure"},{"dtc":"2024-04-18","dy":"8","event":"DEVIATION: DOSE MODIFICATION","domain":"DV","category":"deviation"},{"dtc":"2024-04-29","dy":"19","event":"AE: Nausea (MODERATE)","domain":"AE","category":"adverse_event"},{"dtc":"2024-04-29","dy":"19","event":"CM START: ONDANSETRON","domain":"CM","category":"concomitant_med"},{"dtc":"2024-05-12","dy":"32","event":"VISIT: WEEK 4","domain":"SV","category":"visit"},{"dtc":"2024-05-16","dy":"36","event":"DEVIATION: DOSE MODIFICATION","domain":"DV","category":"deviation"},{"dtc":"2024-05-23","dy":"43","event":"AE: Cholelithiasis (MODERATE)","domain":"AE","category":"adverse_event"},{"dtc":"2024-05-23","dy":"43","event":"DEVIATION: DOSE MODIFICATION","domain":"DV","category":"deviation"},{"dtc":"2024-05-23","dy":"43","event":"CM START: IBUPROFEN","domain":"CM","category":"concomitant_med"},{"dtc":"2024-05-31","dy":"51","event":"AE: Vomiting (MILD)","domain":"AE","category":"adverse_event"},{"dtc":"2024-06-08","dy":"59","event":"VISIT: WEEK 8","domain":"SV","category":"visit"},{"dtc":"2024-07-04","dy":"85","event":"DEVIATION: DOSE MODIFICATION","domain":"DV","category":"deviation"},{"dtc":"2024-07-06","dy":"87","event":"VISIT: WEEK 12","domain":"SV","category":"visit"},{"dtc":"2024-07-09","dy":"90","event":"AE: Dyspepsia (MILD)","domain":"AE","category":"adverse_event"},{"dtc":"2024-07-09","dy":"90","event":"CM START: FAMOTIDINE","domain":"CM","category":"concomitant_med"},{"dtc":"2024-07-18","dy":"99","event":"DEVIATION: DOSE MODIFICATION","domain":"DV","category":"deviation"},{"dtc":"2024-08-01","dy":"113","event":"DEVIATION: DOSE MODIFICATION","domain":"DV","category":"deviation"},{"dtc":"2024-08-03","dy":"115","event":"VISIT: WEEK 16","domain":"SV","category":"visit"},{"dtc":"2024-08-15","dy":"127","event":"DEVIATION: MISSED DOSE","domain":"DV","category":"deviation"},{"dtc":"2024-08-22","dy":"134","event":"DEVIATION: DOSE MODIFICATION","domain":"DV","category":"deviation"},{"dtc":"2024-08-29","dy":"141","event":"LAST DOSE: TIRZEPATIDE","domain":"EX","category":"exposure"},{"dtc":"2024-08-31","dy":"143","event":"VISIT: WEEK 20","domain":"SV","category":"visit"},{"dtc":"2024-09-01","dy":"144","event":"ADVERSE EVENT","domain":"DS","category":"milestone"},{"dtc":"2024-09-01","dy":"144","event":"AE: Dyspepsia (SEVERE) [SERIOUS]","domain":"AE","category":"adverse_event"}],"section_1_demographics":{"usubjid":"I8F-JE-GPGO-SURPASS-JPN_TOKYO01-0008","subjid":"0008","siteid":"JPN_TOKYO01","age":"59","ageu":"YEARS","sex":"F","race":"ASIAN","ethnicity":"NOT HISPANIC OR LATINO","country":"JPN","arm":"Tirzepatide 15 mg QW SC (target)","armcd":"TIRZ_15","actarm":"Tirzepatide 15 mg QW SC (target)","actarmcd":"TIRZ_15","randomization_date":null,"informed_consent_date":"2024-03-18","reference_start_date":"2024-04-11","reference_end_date":"2024-09-01","screen_failure":false,"death_flag":null,"death_date":null,"subject_characteristics":[{"testcd":"ALCUSE","test":"Alcohol Use","orres":"CURRENT DRINKER","stresc":"CURRENT DRINKER","visit":null,"dtc":"2024-03-18"},{"testcd":"BMI","test":"Body Mass Index","orres":"31.6","stresc":"31.6","visit":null,"dtc":"2024-03-18"},{"testcd":"DURDIS","test":"Duration of Disease","orres":"231 months","stresc":"231","visit":null,"dtc":"2024-03-18"},{"testcd":"TOBUSE","test":"Tobacco Use","orres":"NEVER SMOKED","stresc":"NEVER SMOKED","visit":null,"dtc":"2024-03-18"}]},"section_2_medical_history":{"items":[{"seq":"1","term":"HYPERLIPIDEMIA","decod":"HYPERLIPIDEMIA","cat":"METABOLIC","scat":null,"presp":null,"occur":null,"status":null,"onset_dtc":"2012-03-21","end_dtc":"2022-11-13","visit":null},{"seq":"2","term":"HYPERTENSION","decod":"HYPERTENSION","cat":"CARDIOVASCULAR","scat":null,"presp":null,"occur":null,"status":null,"onset_dtc":"2005-03-23","end_dtc":"2009-10-18","visit":null},{"seq":"3","term":"OBESITY","decod":"OBESITY","cat":"METABOLIC","scat":null,"presp":null,"occur":null,"status":null,"onset_dtc":"2005-03","end_dtc":null,"visit":null}]},"section_3_inclusion_exclusion":{"criteria":[]},"section_4_trial_participation":{"visits":[{"visitnum":"1.0","visit":"SCREENING","start_dtc":"2024-02-27","end_dtc":"2024-02-27","updes":null},{"visitnum":"2.0","visit":"BASELINE","start_dtc":"2024-04-11","end_dtc":"2024-04-11","updes":null},{"visitnum":"3.0","visit":"WEEK 4","start_dtc":"2024-05-12","end_dtc":"2024-05-12","updes":null},{"visitnum":"4.0","visit":"WEEK 8","start_dtc":"2024-06-08","end_dtc":"2024-06-08","updes":null},{"visitnum":"5.0","visit":"WEEK 12","start_dtc":"2024-07-06","end_dtc":"2024-07-06","updes":null},{"visitnum":"6.0","visit":"WEEK 16","start_dtc":"2024-08-03","end_dtc":"2024-08-03","updes":null},{"visitnum":"7.0","visit":"WEEK 20","start_dtc":"2024-08-31","end_dtc":"2024-08-31","updes":null}],"epochs":[{"seq":"1","etcd":"SCRN","element":"Screening","start_dtc":"2024-03-14","end_dtc":"2024-04-11","updes":null},{"seq":"2","etcd":"TRT","element":"Treatment","start_dtc":"2024-04-11","end_dtc":"2024-09-01","updes":null}],"visit_count":7},"section_5_concomitant_medications":{"medications":[{"seq":"1","trt":"ORLISTAT","decod":"ORLISTAT","cat":"PRIOR","dose":"120.0","doseu":null,"dosef":"TID","route":"ORAL","indication":"OBESITY","start_dtc":"2005-03-23","end_dtc":"2024-09-01","ongoing":null,"visit":null},{"seq":"2","trt":"ONDANSETRON","decod":"ONDANSETRON","cat":"CONCOMITANT","dose":"4","doseu":null,"dosef":"PRN","route":"ORAL","indication":"NAUSEA","start_dtc":"2024-04-29","end_dtc":"2024-05-04","ongoing":null,"visit":null},{"seq":"3","trt":"IBUPROFEN","decod":"IBUPROFEN","cat":"CONCOMITANT","dose":"400","doseu":null,"dosef":"PRN","route":"ORAL","indication":"CHOLELITHIASIS","start_dtc":"2024-05-23","end_dtc":"2024-06-01","ongoing":null,"visit":null},{"seq":"4","trt":"FAMOTIDINE","decod":"FAMOTIDINE","cat":"CONCOMITANT","dose":"20.0","doseu":null,"dosef":"BID","route":"ORAL","indication":"DYSPEPSIA","start_dtc":"2024-07-09","end_dtc":"2024-07-14","ongoing":null,"visit":null}]},"section_6_exposure":{"exposure_as_administered":[{"seq":"1","trt":"TIRZEPATIDE","dose":"2.5","doseu":null,"dosef":"QW","route":"SUBCUTANEOUS","lot":null,"start_dtc":"2024-04-18","end_dtc":"2024-04-18","start_dy":"8","end_dy":"8","epoch":"TREATMENT","visit":null},{"seq":"2","trt":"TIRZEPATIDE","dose":"2.5","doseu":null,"dosef":"QW","route":"SUBCUTANEOUS","lot":null,"start_dtc":"2024-04-25","end_dtc":"2024-04-25","start_dy":"15","end_dy":"15","epoch":"TREATMENT","visit":null},{"seq":"3","trt":"TIRZEPATIDE","dose":"2.5","doseu":null,"dosef":"QW","route":"SUBCUTANEOUS","lot":null,"start_dtc":"2024-05-02","end_dtc":"2024-05-02","start_dy":"22","end_dy":"22","epoch":"TREATMENT","visit":null},{"seq":"4","trt":"TIRZEPATIDE","dose":"5.0","doseu":null,"dosef":"QW","route":"SUBCUTANEOUS","lot":null,"start_dtc":"2024-05-09","end_dtc":"2024-05-09","start_dy":"29","end_dy":"29","epoch":"TREATMENT","visit":null},{"seq":"5","trt":"TIRZEPATIDE","dose":"5.0","doseu":null,"dosef":"QW","route":"SUBCUTANEOUS","lot":null,"start_dtc":"2024-05-16","end_dtc":"2024-05-16","start_dy":"36","end_dy":"36","epoch":"TREATMENT","visit":null},{"seq":"6","trt":"TIRZEPATIDE","dose":"5.0","doseu":null,"dosef":"QW","route":"SUBCUTANEOUS","lot":null,"start_dtc":"2024-05-23","end_dtc":"2024-05-23","start_dy":"43","end_dy":"43","epoch":"TREATMENT","visit":null},{"seq":"7","trt":"TIRZEPATIDE","dose":"5.0","doseu":null,"dosef":"QW","route":"SUBCUTANEOUS","lot":null,"start_dtc":"2024-05-30","end_dtc":"2024-05-30","start_dy":"50","end_dy":"50","epoch":"TREATMENT","visit":null},{"seq":"8","trt":"TIRZEPATIDE","dose":"7.5","doseu":null,"dosef":"QW","route":"SUBCUTANEOUS","lot":null,"start_dtc":"2024-06-06","end_dtc":"2024-06-06","start_dy":"57","end_dy":"57","epoch":"TREATMENT","visit":null},{"seq":"9","trt":"TIRZEPATIDE","dose":"7.5","doseu":null,"dosef":"QW","route":"SUBCUTANEOUS","lot":null,"start_dtc":"2024-06-13","end_dtc":"2024-06-13","start_dy":"64","end_dy":"64","epoch":"TREATMENT","visit":null},{"seq":"10","trt":"TIRZEPATIDE","dose":"7.5","doseu":null,"dosef":"QW","route":"SUBCUTANEOUS","lot":null,"start_dtc":"2024-06-20","end_dtc":"2024-06-20","start_dy":"71","end_dy":"71","epoch":"TREATMENT","visit":null},{"seq":"11","trt":"TIRZEPATIDE","dose":"7.5","doseu":null,"dosef":"QW","route":"SUBCUTANEOUS","lot":null,"start_dtc":"2024-06-27","end_dtc":"2024-06-27","start_dy":"78","end_dy":"78","epoch":"TREATMENT","visit":null},{"seq":"12","trt":"TIRZEPATIDE","dose":"10.0","doseu":null,"dosef":"QW","route":"SUBCUTANEOUS","lot":null,"start_dtc":"2024-07-04","end_dtc":"2024-07-04","start_dy":"85","end_dy":"85","epoch":"TREATMENT","visit":null},{"seq":"13","trt":"TIRZEPATIDE","dose":"10.0","doseu":null,"dosef":"QW","route":"SUBCUTANEOUS","lot":null,"start_dtc":"2024-07-11","end_dtc":"2024-07-11","start_dy":"92","end_dy":"92","epoch":"TREATMENT","visit":null},{"seq":"14","trt":"TIRZEPATIDE","dose":"10.0","doseu":null,"dosef":"QW","route":"SUBCUTANEOUS","lot":null,"start_dtc":"2024-07-18","end_dtc":"2024-07-18","start_dy":"99","end_dy":"99","epoch":"TREATMENT","visit":null},{"seq":"15","trt":"TIRZEPATIDE","dose":"10.0","doseu":null,"dosef":"QW","route":"SUBCUTANEOUS","lot":null,"start_dtc":"2024-07-25","end_dtc":"2024-07-25","start_dy":"106","end_dy":"106","epoch":"TREATMENT","visit":null},{"seq":"16","trt":"TIRZEPATIDE","dose":"12.5","doseu":null,"dosef":"QW","route":"SUBCUTANEOUS","lot":null,"start_dtc":"2024-08-01","end_dtc":"2024-08-01","start_dy":"113","end_dy":"113","epoch":"TREATMENT","visit":null},{"seq":"17","trt":"TIRZEPATIDE","dose":"12.5","doseu":null,"dosef":"QW","route":"SUBCUTANEOUS","lot":null,"start_dtc":"2024-08-08","end_dtc":"2024-08-08","start_dy":"120","end_dy":"120","epoch":"TREATMENT","visit":null},{"seq":"18","trt":"TIRZEPATIDE","dose":"12.5","doseu":null,"dosef":"QW","route":"SUBCUTANEOUS","lot":null,"start_dtc":"2024-08-22","end_dtc":"2024-08-22","start_dy":"134","end_dy":"134","epoch":"TREATMENT","visit":null},{"seq":"19","trt":"TIRZEPATIDE","dose":"15.0","doseu":null,"dosef":"QW","route":"SUBCUTANEOUS","lot":null,"start_dtc":"2024-08-29","end_dtc":"2024-08-29","start_dy":"141","end_dy":"141","epoch":"TREATMENT","visit":null}],"exposure_as_collected":[{"seq":"1","trt":"TIRZEPATIDE","dose":null,"doseu":null,"dosef":"QW","route":"SUBCUTANEOUS","start_dtc":"2024-04-11","end_dtc":"2024-04-11","visit":"BASELINE"},{"seq":"2","trt":"TIRZEPATIDE","dose":"2.5","doseu":null,"dosef":"QW","route":"SUBCUTANEOUS","start_dtc":"2024-04-18","end_dtc":"2024-04-18","visit":null},{"seq":"3","trt":"TIRZEPATIDE","dose":"2.5","doseu":null,"dosef":"QW","route":"SUBCUTANEOUS","start_dtc":"2024-04-25","end_dtc":"2024-04-25","visit":null},{"seq":"4","trt":"TIRZEPATIDE","dose":"2.5","doseu":null,"dosef":"QW","route":"SUBCUTANEOUS","start_dtc":"2024-05-02","end_dtc":"2024-05-02","visit":null},{"seq":"5","trt":"TIRZEPATIDE","dose":"5.0","doseu":null,"dosef":"QW","route":"SUBCUTANEOUS","start_dtc":"2024-05-09","end_dtc":"2024-05-09","visit":"WEEK 4"},{"seq":"6","trt":"TIRZEPATIDE","dose":"5.0","doseu":null,"dosef":"QW","route":"SUBCUTANEOUS","start_dtc":"2024-05-16","end_dtc":"2024-05-16","visit":null},{"seq":"7","trt":"TIRZEPATIDE","dose":"5.0","doseu":null,"dosef":"QW","route":"SUBCUTANEOUS","start_dtc":"2024-05-23","end_dtc":"2024-05-23","visit":null},{"seq":"8","trt":"TIRZEPATIDE","dose":"5.0","doseu":null,"dosef":"QW","route":"SUBCUTANEOUS","start_dtc":"2024-05-30","end_dtc":"2024-05-30","visit":null},{"seq":"9","trt":"TIRZEPATIDE","dose":"7.5","doseu":null,"dosef":"QW","route":"SUBCUTANEOUS","start_dtc":"2024-06-06","end_dtc":"2024-06-06","visit":"WEEK 8"},{"seq":"10","trt":"TIRZEPATIDE","dose":"7.5","doseu":null,"dosef":"QW","route":"SUBCUTANEOUS","start_dtc":"2024-06-13","end_dtc":"2024-06-13","visit":null},{"seq":"11","trt":"TIRZEPATIDE","dose":"7.5","doseu":null,"dosef":"QW","route":"SUBCUTANEOUS","start_dtc":"2024-06-20","end_dtc":"2024-06-20","visit":null},{"seq":"12","trt":"TIRZEPATIDE","dose":"7.5","doseu":null,"dosef":"QW","route":"SUBCUTANEOUS","start_dtc":"2024-06-27","end_dtc":"2024-06-27","visit":null},{"seq":"13","trt":"TIRZEPATIDE","dose":"10.0","doseu":null,"dosef":"QW","route":"SUBCUTANEOUS","start_dtc":"2024-07-04","end_dtc":"2024-07-04","visit":"WEEK 12"},{"seq":"14","trt":"TIRZEPATIDE","dose":"10.0","doseu":null,"dosef":"QW","route":"SUBCUTANEOUS","start_dtc":"2024-07-11","end_dtc":"2024-07-11","visit":null},{"seq":"15","trt":"TIRZEPATIDE","dose":"10.0","doseu":null,"dosef":"QW","route":"SUBCUTANEOUS","start_dtc":"2024-07-18","end_dtc":"2024-07-18","visit":null},{"seq":"16","trt":"TIRZEPATIDE","dose":"10.0","doseu":null,"dosef":"QW","route":"SUBCUTANEOUS","start_dtc":"2024-07-25","end_dtc":"2024-07-25","visit":null},{"seq":"17","trt":"TIRZEPATIDE","dose":"12.5","doseu":null,"dosef":"QW","route":"SUBCUTANEOUS","start_dtc":"2024-08-01","end_dtc":"2024-08-01","visit":"WEEK 16"},{"seq":"18","trt":"TIRZEPATIDE","dose":"12.5","doseu":null,"dosef":"QW","route":"SUBCUTANEOUS","start_dtc":"2024-08-08","end_dtc":"2024-08-08","visit":null},{"seq":"19","trt":"TIRZEPATIDE","dose":null,"doseu":null,"dosef":"QW","route":"SUBCUTANEOUS","start_dtc":"2024-08-15","end_dtc":"2024-08-15","visit":null},{"seq":"20","trt":"TIRZEPATIDE","dose":"12.5","doseu":null,"dosef":"QW","route":"SUBCUTANEOUS","start_dtc":"2024-08-22","end_dtc":"2024-08-22","visit":null},{"seq":"21","trt":"TIRZEPATIDE","dose":"15.0","doseu":null,"dosef":"QW","route":"SUBCUTANEOUS","start_dtc":"2024-08-29","end_dtc":"2024-08-29","visit":"WEEK 20"}]},"section_7_adverse_events":{"summary":{"total_aes":5,"serious_aes":1,"fatal_aes":0,"by_severity":{"MODERATE":2,"MILD":2,"SEVERE":1},"by_soc":{"Gastrointestinal disorders":4,"Hepatobiliary disorders":1}},"events":[{"seq":"1","term":"NAUSEA","decod":"Nausea","llt":"Nausea","hlt":"Nausea and vomiting symptoms","hlgt":"Gastrointestinal signs and symptoms","soc":"Gastrointestinal disorders","bodsys":"Gastrointestinal disorders","severity":"MODERATE","serious":"N","causality":"NOT RELATED","action_taken":"DOSE NOT CHANGED","outcome":"RECOVERED/RESOLVED","fatal":"N","hospitalization":"N","life_threatening":"N","onset_dtc":"2024-04-29","end_dtc":"2024-05-04","onset_dy":"19","end_dy":"24","duration":null,"epoch":"TREATMENT","visit":null,"supplemental":{"AETRTEM":"Y"}},{"seq":"2","term":"CHOLELITHIASIS","decod":"Cholelithiasis","llt":"Cholelithiasis","hlt":"Gallbladder disorders","hlgt":"Hepatobiliary disorders NEC","soc":"Hepatobiliary disorders","bodsys":"Hepatobiliary disorders","severity":"MODERATE","serious":"N","causality":"POSSIBLY RELATED","action_taken":"DOSE REDUCED","outcome":"RECOVERED/RESOLVED","fatal":"N","hospitalization":"N","life_threatening":"N","onset_dtc":"2024-05-23","end_dtc":"2024-06-02","onset_dy":"43","end_dy":"53","duration":null,"epoch":"TREATMENT","visit":null,"supplemental":{"AETRTEM":"Y"}},{"seq":"3","term":"VOMITING","decod":"Vomiting","llt":"Vomiting","hlt":"Nausea and vomiting symptoms","hlgt":"Gastrointestinal signs and symptoms","soc":"Gastrointestinal disorders","bodsys":"Gastrointestinal disorders","severity":"MILD","serious":"N","causality":"RELATED","action_taken":"DOSE NOT CHANGED","outcome":"RECOVERING/RESOLVING","fatal":"N","hospitalization":"N","life_threatening":"N","onset_dtc":"2024-05-31","end_dtc":"2024-06-01","onset_dy":"51","end_dy":"52","duration":null,"epoch":"TREATMENT","visit":null,"supplemental":{"AETRTEM":"Y"}},{"seq":"4","term":"DYSPEPSIA","decod":"Dyspepsia","llt":"Dyspepsia","hlt":"Dyspeptic signs and symptoms","hlgt":"Gastrointestinal signs and symptoms","soc":"Gastrointestinal disorders","bodsys":"Gastrointestinal disorders","severity":"MILD","serious":"N","causality":"NOT RELATED","action_taken":"DOSE NOT CHANGED","outcome":"RECOVERED/RESOLVED","fatal":"N","hospitalization":"N","life_threatening":"N","onset_dtc":"2024-07-09","end_dtc":"2024-07-13","onset_dy":"90","end_dy":"94","duration":null,"epoch":"TREATMENT","visit":null,"supplemental":{"AETRTEM":"Y"}},{"seq":"5","term":"DYSPEPSIA","decod":"Dyspepsia","llt":"Dyspepsia","hlt":"Dyspeptic signs and symptoms","hlgt":"Gastrointestinal signs and symptoms","soc":"Gastrointestinal disorders","bodsys":"Gastrointestinal disorders","severity":"SEVERE","serious":"Y","causality":"NOT RELATED","action_taken":"DOSE NOT CHANGED","outcome":"RECOVERED/RESOLVED","fatal":"N","hospitalization":"Y","life_threatening":"N","onset_dtc":"2024-09-01","end_dtc":"2024-09-01","onset_dy":"144","end_dy":"144","duration":null,"epoch":"TREATMENT","visit":null,"supplemental":{"AETRTEM":"Y"}}]},"section_8_laboratory_results":{"summary":{"total_records":42,"abnormal_count":13,"abnormal_pct":31.0},"shift_summary":[{"testcd":"ALT","baseline_value":35.32,"baseline_nrind":"NORMAL","worst_post_baseline_value":37.16,"worst_post_baseline_nrind":"NORMAL","worst_visit":"WEEK 16"},{"testcd":"AST","baseline_value":17.08,"baseline_nrind":"NORMAL","worst_post_baseline_value":20.15,"worst_post_baseline_nrind":"NORMAL","worst_visit":"WEEK 16"},{"testcd":"CREAT","baseline_value":76.52,"baseline_nrind":"NORMAL","worst_post_baseline_value":81.28,"worst_post_baseline_nrind":"HIGH","worst_visit":"WEEK 20"},{"testcd":"GLUC","baseline_value":9.52,"baseline_nrind":"HIGH","worst_post_baseline_value":9.52,"worst_post_baseline_nrind":"HIGH","worst_visit":"BASELINE"},{"testcd":"HGB","baseline_value":111.9,"baseline_nrind":"LOW","worst_post_baseline_value":110.24,"worst_post_baseline_nrind":"LOW","worst_visit":"WEEK 20"},{"testcd":"PLAT","baseline_value":299.85,"baseline_nrind":"NORMAL","worst_post_baseline_value":306.76,"worst_post_baseline_nrind":"NORMAL","worst_visit":"WEEK 16"},{"testcd":"WBC","baseline_value":6.73,"baseline_nrind":"NORMAL","worst_post_baseline_value":7.17,"worst_post_baseline_nrind":"NORMAL","worst_visit":"WEEK 12"}],"results":[{"seq":"1","testcd":"ALT","test":"Alanine Aminotransferase","cat":"CHEMISTRY","orres":"35.32","orresu":"U/L","stresc":"35.32","stresn":"35.32","stresu":"U/L","stnrlo":"7","stnrhi":"56","nrind":"NORMAL","fast":null,"dtc":"2024-02-27","dy":"-44","visit":"SCREENING","visitnum":"1.0","epoch":"SCREENING","spec":null,"method":null},{"seq":"2","testcd":"AST","test":"Aspartate Aminotransferase","cat":"CHEMISTRY","orres":"17.08","orresu":"U/L","stresc":"17.08","stresn":"17.08","stresu":"U/L","stnrlo":"10","stnrhi":"40","nrind":"NORMAL","fast":null,"dtc":"2024-02-27","dy":"-44","visit":"SCREENING","visitnum":"1.0","epoch":"SCREENING","spec":null,"method":null},{"seq":"3","testcd":"CREAT","test":"Creatinine","cat":"CHEMISTRY","orres":"76.52","orresu":"umol/L","stresc":"76.52","stresn":"76.52","stresu":"umol/L","stnrlo":"44","stnrhi":"80","nrind":"NORMAL","fast":null,"dtc":"2024-02-27","dy":"-44","visit":"SCREENING","visitnum":"1.0","epoch":"SCREENING","spec":null,"method":null},{"seq":"4","testcd":"GLUC","test":"Glucose","cat":"CHEMISTRY","orres":null,"orresu":null,"stresc":null,"stresn":null,"stresu":null,"stnrlo":null,"stnrhi":null,"nrind":null,"fast":null,"dtc":"2024-02-27","dy":"-44","visit":"SCREENING","visitnum":"1.0","epoch":"SCREENING","spec":null,"method":null},{"seq":"5","testcd":"HGB","test":"Hemoglobin","cat":"HEMATOLOGY","orres":"111.9","orresu":"g/L","stresc":"111.9","stresn":"111.9","stresu":"g/L","stnrlo":"120","stnrhi":"155","nrind":"LOW","fast":null,"dtc":"2024-02-27","dy":"-44","visit":"SCREENING","visitnum":"1.0","epoch":"SCREENING","spec":null,"method":null},{"seq":"6","testcd":"PLAT","test":"Platelets","cat":"HEMATOLOGY","orres":"299.85","orresu":"10^9/L","stresc":"299.85","stresn":"299.85","stresu":"10^9/L","stnrlo":"150","stnrhi":"400","nrind":"NORMAL","fast":null,"dtc":"2024-02-27","dy":"-44","visit":"SCREENING","visitnum":"1.0","epoch":"SCREENING","spec":null,"method":null},{"seq":"7","testcd":"WBC","test":"Leukocytes","cat":"HEMATOLOGY","orres":"6.73","orresu":"10^9/L","stresc":"6.73","stresn":"6.73","stresu":"10^9/L","stnrlo":"4.0","stnrhi":"11.0","nrind":"NORMAL","fast":null,"dtc":"2024-02-27","dy":"-44","visit":"SCREENING","visitnum":"1.0","epoch":"SCREENING","spec":null,"method":null},{"seq":"8","testcd":"ALT","test":"Alanine Aminotransferase","cat":"CHEMISTRY","orres":"35.56","orresu":"U/L","stresc":"35.56","stresn":"35.56","stresu":"U/L","stnrlo":"7","stnrhi":"56","nrind":"NORMAL","fast":null,"dtc":"2024-04-11","dy":"1","visit":"BASELINE","visitnum":"2.0","epoch":"TREATMENT","spec":null,"method":null},{"seq":"9","testcd":"AST","test":"Aspartate Aminotransferase","cat":"CHEMISTRY","orres":"15.94","orresu":"U/L","stresc":"15.94","stresn":"15.94","stresu":"U/L","stnrlo":"10","stnrhi":"40","nrind":"NORMAL","fast":null,"dtc":"2024-04-11","dy":"1","visit":"BASELINE","visitnum":"2.0","epoch":"TREATMENT","spec":null,"method":null},{"seq":"10","testcd":"CREAT","test":"Creatinine","cat":"CHEMISTRY","orres":"78.23","orresu":"umol/L","stresc":"78.23","stresn":"78.23","stresu":"umol/L","stnrlo":"44","stnrhi":"80","nrind":"NORMAL","fast":null,"dtc":"2024-04-11","dy":"1","visit":"BASELINE","visitnum":"2.0","epoch":"TREATMENT","spec":null,"method":null},{"seq":"11","testcd":"GLUC","test":"Glucose","cat":"CHEMISTRY","orres":"9.52","orresu":"mmol/L","stresc":"9.52","stresn":"9.52","stresu":"mmol/L","stnrlo":"3.9","stnrhi":"5.6","nrind":"HIGH","fast":null,"dtc":"2024-04-11","dy":"1","visit":"BASELINE","visitnum":"2.0","epoch":"TREATMENT","spec":null,"method":null},{"seq":"12","testcd":"HGB","test":"Hemoglobin","cat":"HEMATOLOGY","orres":"112.12","orresu":"g/L","stresc":"112.12","stresn":"112.12","stresu":"g/L","stnrlo":"120","stnrhi":"155","nrind":"LOW","fast":null,"dtc":"2024-04-11","dy":"1","visit":"BASELINE","visitnum":"2.0","epoch":"TREATMENT","spec":null,"method":null},{"seq":"13","testcd":"PLAT","test":"Platelets","cat":"HEMATOLOGY","orres":"297.2","orresu":"10^9/L","stresc":"297.2","stresn":"297.2","stresu":"10^9/L","stnrlo":"150","stnrhi":"400","nrind":"NORMAL","fast":null,"dtc":"2024-04-11","dy":"1","visit":"BASELINE","visitnum":"2.0","epoch":"TREATMENT","spec":null,"method":null},{"seq":"14","testcd":"WBC","test":"Leukocytes","cat":"HEMATOLOGY","orres":"6.94","orresu":"10^9/L","stresc":"6.94","stresn":"6.94","stresu":"10^9/L","stnrlo":"4.0","stnrhi":"11.0","nrind":"NORMAL","fast":null,"dtc":"2024-04-11","dy":"1","visit":"BASELINE","visitnum":"2.0","epoch":"TREATMENT","spec":null,"method":null},{"seq":"15","testcd":"ALT","test":"Alanine Aminotransferase","cat":"CHEMISTRY","orres":"35.96","orresu":"U/L","stresc":"35.96","stresn":"35.96","stresu":"U/L","stnrlo":"7","stnrhi":"56","nrind":"NORMAL","fast":null,"dtc":"2024-06-08","dy":"59","visit":"WEEK 8","visitnum":"4.0","epoch":"TREATMENT","spec":null,"method":null},{"seq":"16","testcd":"AST","test":"Aspartate Aminotransferase","cat":"CHEMISTRY","orres":"19.42","orresu":"U/L","stresc":"19.42","stresn":"19.42","stresu":"U/L","stnrlo":"10","stnrhi":"40","nrind":"NORMAL","fast":null,"dtc":"2024-06-08","dy":"59","visit":"WEEK 8","visitnum":"4.0","epoch":"TREATMENT","spec":null,"method":null},{"seq":"17","testcd":"CREAT","test":"Creatinine","cat":"CHEMISTRY","orres":"78.94","orresu":"umol/L","stresc":"78.94","stresn":"78.94","stresu":"umol/L","stnrlo":"44","stnrhi":"80","nrind":"NORMAL","fast":null,"dtc":"2024-06-08","dy":"59","visit":"WEEK 8","visitnum":"4.0","epoch":"TREATMENT","spec":null,"method":null},{"seq":"18","testcd":"GLUC","test":"Glucose","cat":"CHEMISTRY","orres":"9.49","orresu":"mmol/L","stresc":"9.49","stresn":"9.49","stresu":"mmol/L","stnrlo":"3.9","stnrhi":"5.6","nrind":"HIGH","fast":null,"dtc":"2024-06-08","dy":"59","visit":"WEEK 8","visitnum":"4.0","epoch":"TREATMENT","spec":null,"method":null},{"seq":"19","testcd":"HGB","test":"Hemoglobin","cat":"HEMATOLOGY","orres":"112.76","orresu":"g/L","stresc":"112.76","stresn":"112.76","stresu":"g/L","stnrlo":"120","stnrhi":"155","nrind":"LOW","fast":null,"dtc":"2024-06-08","dy":"59","visit":"WEEK 8","visitnum":"4.0","epoch":"TREATMENT","spec":null,"method":null},{"seq":"20","testcd":"PLAT","test":"Platelets","cat":"HEMATOLOGY","orres":"298.45","orresu":"10^9/L","stresc":"298.45","stresn":"298.45","stresu":"10^9/L","stnrlo":"150","stnrhi":"400","nrind":"NORMAL","fast":null,"dtc":"2024-06-08","dy":"59","visit":"WEEK 8","visitnum":"4.0","epoch":"TREATMENT","spec":null,"method":null},{"seq":"21","testcd":"WBC","test":"Leukocytes","cat":"HEMATOLOGY","orres":"6.85","orresu":"10^9/L","stresc":"6.85","stresn":"6.85","stresu":"10^9/L","stnrlo":"4.0","stnrhi":"11.0","nrind":"NORMAL","fast":null,"dtc":"2024-06-08","dy":"59","visit":"WEEK 8","visitnum":"4.0","epoch":"TREATMENT","spec":null,"method":null},{"seq":"22","testcd":"ALT","test":"Alanine Aminotransferase","cat":"CHEMISTRY","orres":"33.77","orresu":"U/L","stresc":"33.77","stresn":"33.77","stresu":"U/L","stnrlo":"7","stnrhi":"56","nrind":"NORMAL","fast":null,"dtc":"2024-07-06","dy":"87","visit":"WEEK 12","visitnum":"5.0","epoch":"TREATMENT","spec":null,"method":null},{"seq":"23","testcd":"AST","test":"Aspartate Aminotransferase","cat":"CHEMISTRY","orres":"19.32","orresu":"U/L","stresc":"19.32","stresn":"19.32","stresu":"U/L","stnrlo":"10","stnrhi":"40","nrind":"NORMAL","fast":null,"dtc":"2024-07-06","dy":"87","visit":"WEEK 12","visitnum":"5.0","epoch":"TREATMENT","spec":null,"method":null},{"seq":"24","testcd":"CREAT","test":"Creatinine","cat":"CHEMISTRY","orres":"77.4","orresu":"umol/L","stresc":"77.4","stresn":"77.4","stresu":"umol/L","stnrlo":"44","stnrhi":"80","nrind":"NORMAL","fast":null,"dtc":"2024-07-06","dy":"87","visit":"WEEK 12","visitnum":"5.0","epoch":"TREATMENT","spec":null,"method":null},{"seq":"25","testcd":"GLUC","test":"Glucose","cat":"CHEMISTRY","orres":"9.5","orresu":"mmol/L","stresc":"9.5","stresn":"9.5","stresu":"mmol/L","stnrlo":"3.9","stnrhi":"5.6","nrind":"HIGH","fast":null,"dtc":"2024-07-06","dy":"87","visit":"WEEK 12","visitnum":"5.0","epoch":"TREATMENT","spec":null,"method":null},{"seq":"26","testcd":"HGB","test":"Hemoglobin","cat":"HEMATOLOGY","orres":"112.67","orresu":"g/L","stresc":"112.67","stresn":"112.67","stresu":"g/L","stnrlo":"120","stnrhi":"155","nrind":"LOW","fast":null,"dtc":"2024-07-06","dy":"87","visit":"WEEK 12","visitnum":"5.0","epoch":"TREATMENT","spec":null,"method":null},{"seq":"27","testcd":"PLAT","test":"Platelets","cat":"HEMATOLOGY","orres":"305.2","orresu":"10^9/L","stresc":"305.2","stresn":"305.2","stresu":"10^9/L","stnrlo":"150","stnrhi":"400","nrind":"NORMAL","fast":null,"dtc":"2024-07-06","dy":"87","visit":"WEEK 12","visitnum":"5.0","epoch":"TREATMENT","spec":null,"method":null},{"seq":"28","testcd":"WBC","test":"Leukocytes","cat":"HEMATOLOGY","orres":"7.17","orresu":"10^9/L","stresc":"7.17","stresn":"7.17","stresu":"10^9/L","stnrlo":"4.0","stnrhi":"11.0","nrind":"NORMAL","fast":null,"dtc":"2024-07-06","dy":"87","visit":"WEEK 12","visitnum":"5.0","epoch":"TREATMENT","spec":null,"method":null},{"seq":"29","testcd":"ALT","test":"Alanine Aminotransferase","cat":"CHEMISTRY","orres":"37.16","orresu":"U/L","stresc":"37.16","stresn":"37.16","stresu":"U/L","stnrlo":"7","stnrhi":"56","nrind":"NORMAL","fast":null,"dtc":"2024-08-03","dy":"115","visit":"WEEK 16","visitnum":"6.0","epoch":"TREATMENT","spec":null,"method":null},{"seq":"30","testcd":"AST","test":"Aspartate Aminotransferase","cat":"CHEMISTRY","orres":"20.15","orresu":"U/L","stresc":"20.15","stresn":"20.15","stresu":"U/L","stnrlo":"10","stnrhi":"40","nrind":"NORMAL","fast":null,"dtc":"2024-08-03","dy":"115","visit":"WEEK 16","visitnum":"6.0","epoch":"TREATMENT","spec":null,"method":null},{"seq":"31","testcd":"CREAT","test":"Creatinine","cat":"CHEMISTRY","orres":"81.04","orresu":"umol/L","stresc":"81.04","stresn":"81.04","stresu":"umol/L","stnrlo":"44","stnrhi":"80","nrind":"HIGH","fast":null,"dtc":"2024-08-03","dy":"115","visit":"WEEK 16","visitnum":"6.0","epoch":"TREATMENT","spec":null,"method":null},{"seq":"32","testcd":"GLUC","test":"Glucose","cat":"CHEMISTRY","orres":"9.52","orresu":"mmol/L","stresc":"9.52","stresn":"9.52","stresu":"mmol/L","stnrlo":"3.9","stnrhi":"5.6","nrind":"HIGH","fast":null,"dtc":"2024-08-03","dy":"115","visit":"WEEK 16","visitnum":"6.0","epoch":"TREATMENT","spec":null,"method":null},{"seq":"33","testcd":"HGB","test":"Hemoglobin","cat":"HEMATOLOGY","orres":"110.81","orresu":"g/L","stresc":"110.81","stresn":"110.81","stresu":"g/L","stnrlo":"120","stnrhi":"155","nrind":"LOW","fast":null,"dtc":"2024-08-03","dy":"115","visit":"WEEK 16","visitnum":"6.0","epoch":"TREATMENT","spec":null,"method":null},{"seq":"34","testcd":"PLAT","test":"Platelets","cat":"HEMATOLOGY","orres":"306.76","orresu":"10^9/L","stresc":"306.76","stresn":"306.76","stresu":"10^9/L","stnrlo":"150","stnrhi":"400","nrind":"NORMAL","fast":null,"dtc":"2024-08-03","dy":"115","visit":"WEEK 16","visitnum":"6.0","epoch":"TREATMENT","spec":null,"method":null},{"seq":"35","testcd":"WBC","test":"Leukocytes","cat":"HEMATOLOGY","orres":"6.13","orresu":"10^9/L","stresc":"6.13","stresn":"6.13","stresu":"10^9/L","stnrlo":"4.0","stnrhi":"11.0","nrind":"NORMAL","fast":null,"dtc":"2024-08-03","dy":"115","visit":"WEEK 16","visitnum":"6.0","epoch":"TREATMENT","spec":null,"method":null},{"seq":"36","testcd":"ALT","test":"Alanine Aminotransferase","cat":"CHEMISTRY","orres":"36.81","orresu":"U/L","stresc":"36.81","stresn":"36.81","stresu":"U/L","stnrlo":"7","stnrhi":"56","nrind":"NORMAL","fast":null,"dtc":"2024-08-31","dy":"143","visit":"WEEK 20","visitnum":"7.0","epoch":"TREATMENT","spec":null,"method":null},{"seq":"37","testcd":"AST","test":"Aspartate Aminotransferase","cat":"CHEMISTRY","orres":"20.05","orresu":"U/L","stresc":"20.05","stresn":"20.05","stresu":"U/L","stnrlo":"10","stnrhi":"40","nrind":"NORMAL","fast":null,"dtc":"2024-08-31","dy":"143","visit":"WEEK 20","visitnum":"7.0","epoch":"TREATMENT","spec":null,"method":null},{"seq":"38","testcd":"CREAT","test":"Creatinine","cat":"CHEMISTRY","orres":"81.28","orresu":"umol/L","stresc":"81.28","stresn":"81.28","stresu":"umol/L","stnrlo":"44","stnrhi":"80","nrind":"HIGH","fast":null,"dtc":"2024-08-31","dy":"143","visit":"WEEK 20","visitnum":"7.0","epoch":"TREATMENT","spec":null,"method":null},{"seq":"39","testcd":"GLUC","test":"Glucose","cat":"CHEMISTRY","orres":"9.45","orresu":"mmol/L","stresc":"9.45","stresn":"9.45","stresu":"mmol/L","stnrlo":"3.9","stnrhi":"5.6","nrind":"HIGH","fast":null,"dtc":"2024-08-31","dy":"143","visit":"WEEK 20","visitnum":"7.0","epoch":"TREATMENT","spec":null,"method":null},{"seq":"40","testcd":"HGB","test":"Hemoglobin","cat":"HEMATOLOGY","orres":"110.24","orresu":"g/L","stresc":"110.24","stresn":"110.24","stresu":"g/L","stnrlo":"120","stnrhi":"155","nrind":"LOW","fast":null,"dtc":"2024-08-31","dy":"143","visit":"WEEK 20","visitnum":"7.0","epoch":"TREATMENT","spec":null,"method":null},{"seq":"41","testcd":"PLAT","test":"Platelets","cat":"HEMATOLOGY","orres":"295.4","orresu":"10^9/L","stresc":"295.4","stresn":"295.4","stresu":"10^9/L","stnrlo":"150","stnrhi":"400","nrind":"NORMAL","fast":null,"dtc":"2024-08-31","dy":"143","visit":"WEEK 20","visitnum":"7.0","epoch":"TREATMENT","spec":null,"method":null},{"seq":"42","testcd":"WBC","test":"Leukocytes","cat":"HEMATOLOGY","orres":"6.84","orresu":"10^9/L","stresc":"6.84","stresn":"6.84","stresu":"10^9/L","stnrlo":"4.0","stnrhi":"11.0","nrind":"NORMAL","fast":null,"dtc":"2024-08-31","dy":"143","visit":"WEEK 20","visitnum":"7.0","epoch":"TREATMENT","spec":null,"method":null}]},"section_9_vital_signs":{"summary":{"total_records":32},"trends":{"BMI":[{"visit":"SCREENING","visitnum":"1.0","dtc":"2024-02-27","value":"31.6","unit":"kg/m2"},{"visit":"BASELINE","visitnum":"2.0","dtc":"2024-04-11","value":"31.3","unit":"kg/m2"},{"visit":"WEEK 4","visitnum":"3.0","dtc":"2024-05-12","value":"31.7","unit":"kg/m2"},{"visit":"WEEK 12","visitnum":"5.0","dtc":"2024-07-06","value":"31.1","unit":"kg/m2"}],"DIABP":[{"visit":"SCREENING","visitnum":"1.0","dtc":"2024-02-27","value":"98.1","unit":"mmHg"},{"visit":"BASELINE","visitnum":"2.0","dtc":"2024-04-11","value":"97.7","unit":"mmHg"},{"visit":"WEEK 4","visitnum":"3.0","dtc":"2024-05-12","value":"96.9","unit":"mmHg"},{"visit":"WEEK 12","visitnum":"5.0","dtc":"2024-07-06","value":"98.3","unit":"mmHg"}],"HEIGHT":[{"visit":"SCREENING","visitnum":"1.0","dtc":"2024-02-27","value":"144.4","unit":"cm"},{"visit":"BASELINE","visitnum":"2.0","dtc":"2024-04-11","value":"143.8","unit":"cm"},{"visit":"WEEK 4","visitnum":"3.0","dtc":"2024-05-12","value":"143.9","unit":"cm"},{"visit":"WEEK 12","visitnum":"5.0","dtc":"2024-07-06","value":"143.3","unit":"cm"}],"PULSE":[{"visit":"SCREENING","visitnum":"1.0","dtc":"2024-02-27","value":"60.9","unit":"beats/min"},{"visit":"BASELINE","visitnum":"2.0","dtc":"2024-04-11","value":"59.9","unit":"beats/min"},{"visit":"WEEK 4","visitnum":"3.0","dtc":"2024-05-12","value":"61.7","unit":"beats/min"},{"visit":"WEEK 12","visitnum":"5.0","dtc":"2024-07-06","value":"60.6","unit":"beats/min"}],"RESP":[{"visit":"SCREENING","visitnum":"1.0","dtc":"2024-02-27","value":"18.2","unit":"breaths/min"},{"visit":"BASELINE","visitnum":"2.0","dtc":"2024-04-11","value":"14.8","unit":"breaths/min"},{"visit":"WEEK 4","visitnum":"3.0","dtc":"2024-05-12","value":"15.7","unit":"breaths/min"},{"visit":"WEEK 12","visitnum":"5.0","dtc":"2024-07-06","value":"16.4","unit":"breaths/min"}],"SYSBP":[{"visit":"SCREENING","visitnum":"1.0","dtc":"2024-02-27","value":"133.9","unit":"mmHg"},{"visit":"BASELINE","visitnum":"2.0","dtc":"2024-04-11","value":"134.8","unit":"mmHg"},{"visit":"WEEK 4","visitnum":"3.0","dtc":"2024-05-12","value":"133.0","unit":"mmHg"},{"visit":"WEEK 12","visitnum":"5.0","dtc":"2024-07-06","value":"135.6","unit":"mmHg"}],"TEMP":[{"visit":"SCREENING","visitnum":"1.0","dtc":"2024-02-27","value":"36.5","unit":"C"},{"visit":"BASELINE","visitnum":"2.0","dtc":"2024-04-11","value":"36.4","unit":"C"},{"visit":"WEEK 4","visitnum":"3.0","dtc":"2024-05-12","value":"36.8","unit":"C"},{"visit":"WEEK 12","visitnum":"5.0","dtc":"2024-07-06","value":"36.7","unit":"C"}],"WEIGHT":[{"visit":"SCREENING","visitnum":"1.0","dtc":"2024-02-27","value":"65.8","unit":"kg"},{"visit":"BASELINE","visitnum":"2.0","dtc":"2024-04-11","value":"64.7","unit":"kg"},{"visit":"WEEK 4","visitnum":"3.0","dtc":"2024-05-12","value":"65.7","unit":"kg"},{"visit":"WEEK 12","visitnum":"5.0","dtc":"2024-07-06","value":"63.8","unit":"kg"}]},"results":[{"seq":"1","testcd":"BMI","test":"BMI","cat":null,"orres":null,"orresu":null,"stresc":"31.6","stresn":"31.6","stresu":"kg/m2","stnrlo":null,"stnrhi":null,"nrind":null,"pos":null,"loc":null,"dtc":"2024-02-27","dy":"-44","visit":"SCREENING","visitnum":"1.0","epoch":"SCREENING"},{"seq":"2","testcd":"DIABP","test":"Diastolic Blood Pressure","cat":null,"orres":"98.1","orresu":"mmHg","stresc":"98.1","stresn":"98.1","stresu":"mmHg","stnrlo":null,"stnrhi":null,"nrind":null,"pos":null,"loc":null,"dtc":"2024-02-27","dy":"-44","visit":"SCREENING","visitnum":"1.0","epoch":"SCREENING"},{"seq":"3","testcd":"HEIGHT","test":"Height","cat":null,"orres":"144.4","orresu":"cm","stresc":"144.4","stresn":"144.4","stresu":"cm","stnrlo":null,"stnrhi":null,"nrind":null,"pos":null,"loc":null,"dtc":"2024-02-27","dy":"-44","visit":"SCREENING","visitnum":"1.0","epoch":"SCREENING"},{"seq":"4","testcd":"PULSE","test":"Pulse Rate","cat":null,"orres":"60.9","orresu":"beats/min","stresc":"60.9","stresn":"60.9","stresu":"beats/min","stnrlo":null,"stnrhi":null,"nrind":null,"pos":null,"loc":null,"dtc":"2024-02-27","dy":"-44","visit":"SCREENING","visitnum":"1.0","epoch":"SCREENING"},{"seq":"5","testcd":"RESP","test":"Respiratory Rate","cat":null,"orres":"18.2","orresu":"breaths/min","stresc":"18.2","stresn":"18.2","stresu":"breaths/min","stnrlo":null,"stnrhi":null,"nrind":null,"pos":null,"loc":null,"dtc":"2024-02-27","dy":"-44","visit":"SCREENING","visitnum":"1.0","epoch":"SCREENING"},{"seq":"6","testcd":"SYSBP","test":"Systolic Blood Pressure","cat":null,"orres":"133.9","orresu":"mmHg","stresc":"133.9","stresn":"133.9","stresu":"mmHg","stnrlo":null,"stnrhi":null,"nrind":null,"pos":null,"loc":null,"dtc":"2024-02-27","dy":"-44","visit":"SCREENING","visitnum":"1.0","epoch":"SCREENING"},{"seq":"7","testcd":"TEMP","test":"Temperature","cat":null,"orres":"36.5","orresu":"C","stresc":"36.5","stresn":"36.5","stresu":"C","stnrlo":null,"stnrhi":null,"nrind":null,"pos":null,"loc":null,"dtc":"2024-02-27","dy":"-44","visit":"SCREENING","visitnum":"1.0","epoch":"SCREENING"},{"seq":"8","testcd":"WEIGHT","test":"Weight","cat":null,"orres":"65.8","orresu":"kg","stresc":"65.8","stresn":"65.8","stresu":"kg","stnrlo":null,"stnrhi":null,"nrind":null,"pos":null,"loc":null,"dtc":"2024-02-27","dy":"-44","visit":"SCREENING","visitnum":"1.0","epoch":"SCREENING"},{"seq":"9","testcd":"BMI","test":"BMI","cat":null,"orres":null,"orresu":null,"stresc":"31.3","stresn":"31.3","stresu":"kg/m2","stnrlo":null,"stnrhi":null,"nrind":null,"pos":null,"loc":null,"dtc":"2024-04-11","dy":"1","visit":"BASELINE","visitnum":"2.0","epoch":"TREATMENT"},{"seq":"10","testcd":"DIABP","test":"Diastolic Blood Pressure","cat":null,"orres":"97.7","orresu":"mmHg","stresc":"97.7","stresn":"97.7","stresu":"mmHg","stnrlo":null,"stnrhi":null,"nrind":null,"pos":null,"loc":null,"dtc":"2024-04-11","dy":"1","visit":"BASELINE","visitnum":"2.0","epoch":"TREATMENT"},{"seq":"11","testcd":"HEIGHT","test":"Height","cat":null,"orres":"143.8","orresu":"cm","stresc":"143.8","stresn":"143.8","stresu":"cm","stnrlo":null,"stnrhi":null,"nrind":null,"pos":null,"loc":null,"dtc":"2024-04-11","dy":"1","visit":"BASELINE","visitnum":"2.0","epoch":"TREATMENT"},{"seq":"12","testcd":"PULSE","test":"Pulse Rate","cat":null,"orres":"59.9","orresu":"beats/min","stresc":"59.9","stresn":"59.9","stresu":"beats/min","stnrlo":null,"stnrhi":null,"nrind":null,"pos":null,"loc":null,"dtc":"2024-04-11","dy":"1","visit":"BASELINE","visitnum":"2.0","epoch":"TREATMENT"},{"seq":"13","testcd":"RESP","test":"Respiratory Rate","cat":null,"orres":"14.8","orresu":"breaths/min","stresc":"14.8","stresn":"14.8","stresu":"breaths/min","stnrlo":null,"stnrhi":null,"nrind":null,"pos":null,"loc":null,"dtc":"2024-04-11","dy":"1","visit":"BASELINE","visitnum":"2.0","epoch":"TREATMENT"},{"seq":"14","testcd":"SYSBP","test":"Systolic Blood Pressure","cat":null,"orres":"134.8","orresu":"mmHg","stresc":"134.8","stresn":"134.8","stresu":"mmHg","stnrlo":null,"stnrhi":null,"nrind":null,"pos":null,"loc":null,"dtc":"2024-04-11","dy":"1","visit":"BASELINE","visitnum":"2.0","epoch":"TREATMENT"},{"seq":"15","testcd":"TEMP","test":"Temperature","cat":null,"orres":"36.4","orresu":"C","stresc":"36.4","stresn":"36.4","stresu":"C","stnrlo":null,"stnrhi":null,"nrind":null,"pos":null,"loc":null,"dtc":"2024-04-11","dy":"1","visit":"BASELINE","visitnum":"2.0","epoch":"TREATMENT"},{"seq":"16","testcd":"WEIGHT","test":"Weight","cat":null,"orres":"64.7","orresu":"kg","stresc":"64.7","stresn":"64.7","stresu":"kg","stnrlo":null,"stnrhi":null,"nrind":null,"pos":null,"loc":null,"dtc":"2024-04-11","dy":"1","visit":"BASELINE","visitnum":"2.0","epoch":"TREATMENT"},{"seq":"17","testcd":"BMI","test":"BMI","cat":null,"orres":null,"orresu":null,"stresc":"31.7","stresn":"31.7","stresu":"kg/m2","stnrlo":null,"stnrhi":null,"nrind":null,"pos":null,"loc":null,"dtc":"2024-05-12","dy":"32","visit":"WEEK 4","visitnum":"3.0","epoch":"TREATMENT"},{"seq":"18","testcd":"DIABP","test":"Diastolic Blood Pressure","cat":null,"orres":"96.9","orresu":"mmHg","stresc":"96.9","stresn":"96.9","stresu":"mmHg","stnrlo":null,"stnrhi":null,"nrind":null,"pos":null,"loc":null,"dtc":"2024-05-12","dy":"32","visit":"WEEK 4","visitnum":"3.0","epoch":"TREATMENT"},{"seq":"19","testcd":"HEIGHT","test":"Height","cat":null,"orres":"143.9","orresu":"cm","stresc":"143.9","stresn":"143.9","stresu":"cm","stnrlo":null,"stnrhi":null,"nrind":null,"pos":null,"loc":null,"dtc":"2024-05-12","dy":"32","visit":"WEEK 4","visitnum":"3.0","epoch":"TREATMENT"},{"seq":"20","testcd":"PULSE","test":"Pulse Rate","cat":null,"orres":"61.7","orresu":"beats/min","stresc":"61.7","stresn":"61.7","stresu":"beats/min","stnrlo":null,"stnrhi":null,"nrind":null,"pos":null,"loc":null,"dtc":"2024-05-12","dy":"32","visit":"WEEK 4","visitnum":"3.0","epoch":"TREATMENT"},{"seq":"21","testcd":"RESP","test":"Respiratory Rate","cat":null,"orres":"15.7","orresu":"breaths/min","stresc":"15.7","stresn":"15.7","stresu":"breaths/min","stnrlo":null,"stnrhi":null,"nrind":null,"pos":null,"loc":null,"dtc":"2024-05-12","dy":"32","visit":"WEEK 4","visitnum":"3.0","epoch":"TREATMENT"},{"seq":"22","testcd":"SYSBP","test":"Systolic Blood Pressure","cat":null,"orres":"133.0","orresu":"mmHg","stresc":"133.0","stresn":"133.0","stresu":"mmHg","stnrlo":null,"stnrhi":null,"nrind":null,"pos":null,"loc":null,"dtc":"2024-05-12","dy":"32","visit":"WEEK 4","visitnum":"3.0","epoch":"TREATMENT"},{"seq":"23","testcd":"TEMP","test":"Temperature","cat":null,"orres":"36.8","orresu":"C","stresc":"36.8","stresn":"36.8","stresu":"C","stnrlo":null,"stnrhi":null,"nrind":null,"pos":null,"loc":null,"dtc":"2024-05-12","dy":"32","visit":"WEEK 4","visitnum":"3.0","epoch":"TREATMENT"},{"seq":"24","testcd":"WEIGHT","test":"Weight","cat":null,"orres":"65.7","orresu":"kg","stresc":"65.7","stresn":"65.7","stresu":"kg","stnrlo":null,"stnrhi":null,"nrind":null,"pos":null,"loc":null,"dtc":"2024-05-12","dy":"32","visit":"WEEK 4","visitnum":"3.0","epoch":"TREATMENT"},{"seq":"25","testcd":"BMI","test":"BMI","cat":null,"orres":null,"orresu":null,"stresc":"31.1","stresn":"31.1","stresu":"kg/m2","stnrlo":null,"stnrhi":null,"nrind":null,"pos":null,"loc":null,"dtc":"2024-07-06","dy":"87","visit":"WEEK 12","visitnum":"5.0","epoch":"TREATMENT"},{"seq":"26","testcd":"DIABP","test":"Diastolic Blood Pressure","cat":null,"orres":"98.3","orresu":"mmHg","stresc":"98.3","stresn":"98.3","stresu":"mmHg","stnrlo":null,"stnrhi":null,"nrind":null,"pos":null,"loc":null,"dtc":"2024-07-06","dy":"87","visit":"WEEK 12","visitnum":"5.0","epoch":"TREATMENT"},{"seq":"27","testcd":"HEIGHT","test":"Height","cat":null,"orres":"143.3","orresu":"cm","stresc":"143.3","stresn":"143.3","stresu":"cm","stnrlo":null,"stnrhi":null,"nrind":null,"pos":null,"loc":null,"dtc":"2024-07-06","dy":"87","visit":"WEEK 12","visitnum":"5.0","epoch":"TREATMENT"},{"seq":"28","testcd":"PULSE","test":"Pulse Rate","cat":null,"orres":"60.6","orresu":"beats/min","stresc":"60.6","stresn":"60.6","stresu":"beats/min","stnrlo":null,"stnrhi":null,"nrind":null,"pos":null,"loc":null,"dtc":"2024-07-06","dy":"87","visit":"WEEK 12","visitnum":"5.0","epoch":"TREATMENT"},{"seq":"29","testcd":"RESP","test":"Respiratory Rate","cat":null,"orres":"16.4","orresu":"breaths/min","stresc":"16.4","stresn":"16.4","stresu":"breaths/min","stnrlo":null,"stnrhi":null,"nrind":null,"pos":null,"loc":null,"dtc":"2024-07-06","dy":"87","visit":"WEEK 12","visitnum":"5.0","epoch":"TREATMENT"},{"seq":"30","testcd":"SYSBP","test":"Systolic Blood Pressure","cat":null,"orres":"135.6","orresu":"mmHg","stresc":"135.6","stresn":"135.6","stresu":"mmHg","stnrlo":null,"stnrhi":null,"nrind":null,"pos":null,"loc":null,"dtc":"2024-07-06","dy":"87","visit":"WEEK 12","visitnum":"5.0","epoch":"TREATMENT"},{"seq":"31","testcd":"TEMP","test":"Temperature","cat":null,"orres":"36.7","orresu":"C","stresc":"36.7","stresn":"36.7","stresu":"C","stnrlo":null,"stnrhi":null,"nrind":null,"pos":null,"loc":null,"dtc":"2024-07-06","dy":"87","visit":"WEEK 12","visitnum":"5.0","epoch":"TREATMENT"},{"seq":"32","testcd":"WEIGHT","test":"Weight","cat":null,"orres":"63.8","orresu":"kg","stresc":"63.8","stresn":"63.8","stresu":"kg","stnrlo":null,"stnrhi":null,"nrind":null,"pos":null,"loc":null,"dtc":"2024-07-06","dy":"87","visit":"WEEK 12","visitnum":"5.0","epoch":"TREATMENT"}]},"section_10_questionnaires_and_scores":{"questionnaires":[],"findings_about":[]},"section_11_protocol_deviations":{"deviations":[{"seq":"1","term":"Missed TIRZEPATIDE dose on 2024-04-11","decod":"MISSED DOSE","cat":"MINOR","scat":"DOSING","start_dtc":"2024-04-11","end_dtc":null,"visit":null},{"seq":"2","term":"Dose modified from 15.0 to 2.5 mg","decod":"DOSE MODIFICATION","cat":"MINOR","scat":"DOSING","start_dtc":"2024-04-18","end_dtc":null,"visit":null},{"seq":"3","term":"Dose modified from 15.0 to 5.0 mg","decod":"DOSE MODIFICATION","cat":"MINOR","scat":"DOSING","start_dtc":"2024-05-16","end_dtc":null,"visit":null},{"seq":"4","term":"Dose modified from 15.0 to 5.0 mg","decod":"DOSE MODIFICATION","cat":"MINOR","scat":"DOSING","start_dtc":"2024-05-23","end_dtc":null,"visit":null},{"seq":"5","term":"Dose modified from 15.0 to 10.0 mg","decod":"DOSE MODIFICATION","cat":"MINOR","scat":"DOSING","start_dtc":"2024-07-04","end_dtc":null,"visit":null},{"seq":"6","term":"Dose modified from 15.0 to 10.0 mg","decod":"DOSE MODIFICATION","cat":"MINOR","scat":"DOSING","start_dtc":"2024-07-18","end_dtc":null,"visit":null},{"seq":"7","term":"Dose modified from 15.0 to 12.5 mg","decod":"DOSE MODIFICATION","cat":"MINOR","scat":"DOSING","start_dtc":"2024-08-01","end_dtc":null,"visit":null},{"seq":"8","term":"Missed TIRZEPATIDE dose on 2024-08-15","decod":"MISSED DOSE","cat":"MINOR","scat":"DOSING","start_dtc":"2024-08-15","end_dtc":null,"visit":null},{"seq":"9","term":"Dose modified from 15.0 to 12.5 mg","decod":"DOSE MODIFICATION","cat":"MINOR","scat":"DOSING","start_dtc":"2024-08-22","end_dtc":null,"visit":null}],"total":9},"section_12_disposition":{"completion_status":"INFORMED CONSENT OBTAINED","disposition_records":[{"seq":"1","term":"INFORMED CONSENT OBTAINED","decod":"INFORMED CONSENT OBTAINED","cat":"PROTOCOL MILESTONE","scat":null,"dtc":"2024-03-18","dy":null,"visit":null,"epoch":"SCREENING"},{"seq":"2","term":"RANDOMIZED","decod":"RANDOMIZED","cat":"PROTOCOL MILESTONE","scat":null,"dtc":"2024-04-11","dy":null,"visit":null,"epoch":"TREATMENT"},{"seq":"3","term":"ADVERSE EVENT","decod":"ADVERSE EVENT","cat":"DISPOSITION EVENT","scat":null,"dtc":"2024-09-01","dy":null,"visit":null,"epoch":"TREATMENT"}],"death":null},"section_13_hospitalizations":{"items":[{"seq":"1","term":"Dyspepsia","decod":"Dyspepsia","cat":"HOSPITALIZATION","start_dtc":"2024-09-01","end_dtc":"2024-09-01","epoch":"TREATMENT"}],"total":1},"section_14_substance_use":{"items":[{"seq":"1","substance":"BEER/WINE/SPIRITS","decod":"ETHANOL","cat":"ALCOHOL","scat":null,"usage":"Y","dose":"2.0","dosu":"DRINKS/WEEK","freq":"QW","start_dtc":"2016-03-20","end_dtc":null},{"seq":"2","substance":"COFFEE","decod":"COFFEE","cat":"CAFFEINE","scat":null,"usage":"Y","dose":"1.0","dosu":"CUPS/DAY","freq":"QD","start_dtc":"2007-03-23","end_dtc":null},{"seq":"3","substance":"CIGARETTES","decod":"CIGARETTES","cat":"TOBACCO","scat":null,"usage":"N","dose":null,"dosu":null,"freq":null,"start_dtc":null,"end_dtc":null}],"total":3},"section_15_subject_status":{"items":[{"seq":"1","testcd":"SURVSTAT","test":"Survival Status","orres":"ALIVE","stresc":"ALIVE","dtc":"2024-09-01","visit":null,"epoch":"FOLLOW-UP"}],"total":1}}