{"subject_id":"I8F-JE-GPGO-SURPASS-JPN_HIROSHIMA01-0011","study_id":"I8F-JE-GPGO-SURPASS","generated_at":"2026-07-07T06:16:05.200717+00:00","sdtmig_version":"3.4","flags":{"has_serious_ae":true,"has_fatal_ae":false,"has_protocol_deviation":true,"n_protocol_deviations":8,"n_adverse_events":6,"n_concomitant_meds":5,"max_ae_severity":"SEVERE","screen_failure":false,"discontinued_early":true,"discontinuation_reason":"ADVERSE EVENT","death":false,"exposure_days":112},"timeline":[{"dtc":"2017-04-10","dy":"-2586","event":"CM START: ROSUVASTATIN","domain":"CM","category":"concomitant_med"},{"dtc":"2024-03-23","dy":"-47","event":"VISIT: SCREENING","domain":"SV","category":"visit"},{"dtc":"2024-04-08","dy":"-31","event":"INFORMED CONSENT OBTAINED","domain":"DS","category":"milestone"},{"dtc":"2024-05-09","dy":"1","event":"RANDOMIZED","domain":"DS","category":"milestone"},{"dtc":"2024-05-09","dy":"1","event":"FIRST DOSE: TIRZEPATIDE","domain":"EX","category":"exposure"},{"dtc":"2024-05-09","dy":"1","event":"DEVIATION: DOSE MODIFICATION","domain":"DV","category":"deviation"},{"dtc":"2024-05-09","dy":"1","event":"VISIT: BASELINE","domain":"SV","category":"visit"},{"dtc":"2024-05-14","dy":"6","event":"AE: Hypoglycaemia (MILD)","domain":"AE","category":"adverse_event"},{"dtc":"2024-05-14","dy":"6","event":"CM START: GLUCOSE","domain":"CM","category":"concomitant_med"},{"dtc":"2024-05-23","dy":"15","event":"DEVIATION: DOSE MODIFICATION","domain":"DV","category":"deviation"},{"dtc":"2024-05-25","dy":"17","event":"AE: Diarrhoea (SEVERE) [SERIOUS]","domain":"AE","category":"adverse_event"},{"dtc":"2024-05-25","dy":"17","event":"CM START: LOPERAMIDE","domain":"CM","category":"concomitant_med"},{"dtc":"2024-06-06","dy":"29","event":"DEVIATION: VISIT OCCURRED OUTSIDE VISIT WINDOW","domain":"DV","category":"deviation"},{"dtc":"2024-06-06","dy":"29","event":"DEVIATION: DOSE MODIFICATION","domain":"DV","category":"deviation"},{"dtc":"2024-06-06","dy":"29","event":"VISIT: WEEK 4","domain":"SV","category":"visit"},{"dtc":"2024-06-27","dy":"50","event":"DEVIATION: DOSE MODIFICATION","domain":"DV","category":"deviation"},{"dtc":"2024-07-02","dy":"55","event":"VISIT: WEEK 8","domain":"SV","category":"visit"},{"dtc":"2024-07-16","dy":"69","event":"AE: Dyspepsia (MILD)","domain":"AE","category":"adverse_event"},{"dtc":"2024-07-31","dy":"84","event":"AE: Lipase increased (SEVERE) [SERIOUS]","domain":"AE","category":"adverse_event"},{"dtc":"2024-07-31","dy":"84","event":"CM START: PARACETAMOL","domain":"CM","category":"concomitant_med"},{"dtc":"2024-08-01","dy":"85","event":"DEVIATION: DOSE MODIFICATION","domain":"DV","category":"deviation"},{"dtc":"2024-08-01","dy":"85","event":"VISIT: WEEK 12","domain":"SV","category":"visit"},{"dtc":"2024-08-06","dy":"90","event":"AE: Diarrhoea (SEVERE) [SERIOUS]","domain":"AE","category":"adverse_event"},{"dtc":"2024-08-08","dy":"92","event":"DEVIATION: DOSE MODIFICATION","domain":"DV","category":"deviation"},{"dtc":"2024-08-25","dy":"109","event":"VISIT: WEEK 16","domain":"SV","category":"visit"},{"dtc":"2024-08-29","dy":"113","event":"LAST DOSE: TIRZEPATIDE","domain":"EX","category":"exposure"},{"dtc":"2024-08-29","dy":"113","event":"DEVIATION: DOSE MODIFICATION","domain":"DV","category":"deviation"},{"dtc":"2024-08-31","dy":"115","event":"ADVERSE EVENT","domain":"DS","category":"milestone"},{"dtc":"2024-08-31","dy":"115","event":"AE: Hypoglycaemia (SEVERE) [SERIOUS]","domain":"AE","category":"adverse_event"},{"dtc":"2024-08-31","dy":"115","event":"CM START: GLUCOSE","domain":"CM","category":"concomitant_med"}],"section_1_demographics":{"usubjid":"I8F-JE-GPGO-SURPASS-JPN_HIROSHIMA01-0011","subjid":"0011","siteid":"JPN_HIROSHIMA01","age":"46","ageu":"YEARS","sex":"F","race":"ASIAN","ethnicity":"NOT HISPANIC OR LATINO","country":"JPN","arm":"Tirzepatide 15 mg QW SC (target)","armcd":"TIRZ_15","actarm":"Tirzepatide 15 mg QW SC (target)","actarmcd":"TIRZ_15","randomization_date":null,"informed_consent_date":"2024-04-08","reference_start_date":"2024-05-09","reference_end_date":"2024-08-31","screen_failure":false,"death_flag":null,"death_date":null,"subject_characteristics":[{"testcd":"ALCUSE","test":"Alcohol Use","orres":"NON-DRINKER","stresc":"NON-DRINKER","visit":null,"dtc":"2024-04-08"},{"testcd":"BMI","test":"Body Mass Index","orres":"25.9","stresc":"25.9","visit":null,"dtc":"2024-04-08"},{"testcd":"DURDIS","test":"Duration of Disease","orres":"279 months","stresc":"279","visit":null,"dtc":"2024-04-08"},{"testcd":"TOBPKYR","test":"Tobacco Pack-Years","orres":"39","stresc":"39","visit":null,"dtc":"2024-04-08"},{"testcd":"TOBUSE","test":"Tobacco Use","orres":"FORMER SMOKER","stresc":"FORMER SMOKER","visit":null,"dtc":"2024-04-08"}]},"section_2_medical_history":{"items":[{"seq":"1","term":"CORONARY ARTERY DISEASE","decod":"CORONARY ARTERY DISEASE","cat":"CARDIOVASCULAR","scat":null,"presp":null,"occur":null,"status":null,"onset_dtc":"2001-04-14","end_dtc":"2007-03-16","visit":null},{"seq":"2","term":"DIABETIC NEUROPATHY","decod":"DIABETIC NEUROPATHY","cat":"NEUROLOGICAL","scat":null,"presp":null,"occur":null,"status":null,"onset_dtc":"2019-04-10","end_dtc":"2021-11-12","visit":null},{"seq":"3","term":"HYPERLIPIDEMIA","decod":"HYPERLIPIDEMIA","cat":"METABOLIC","scat":null,"presp":null,"occur":null,"status":null,"onset_dtc":"2017-04-10","end_dtc":null,"visit":null},{"seq":"4","term":"HYPERTENSION","decod":"HYPERTENSION","cat":"CARDIOVASCULAR","scat":null,"presp":null,"occur":null,"status":null,"onset_dtc":"2014-04-11","end_dtc":"2014-05-19","visit":null},{"seq":"5","term":"OBESITY","decod":"OBESITY","cat":"METABOLIC","scat":null,"presp":null,"occur":null,"status":null,"onset_dtc":"2007-04-13","end_dtc":"2010-03-22","visit":null}]},"section_3_inclusion_exclusion":{"criteria":[]},"section_4_trial_participation":{"visits":[{"visitnum":"1.0","visit":"SCREENING","start_dtc":"2024-03-23","end_dtc":"2024-03-23","updes":null},{"visitnum":"2.0","visit":"BASELINE","start_dtc":"2024-05-09","end_dtc":"2024-05-09","updes":null},{"visitnum":"3.0","visit":"WEEK 4","start_dtc":"2024-06-06","end_dtc":"2024-06-06","updes":null},{"visitnum":"4.0","visit":"WEEK 8","start_dtc":"2024-07-02","end_dtc":"2024-07-02","updes":null},{"visitnum":"5.0","visit":"WEEK 12","start_dtc":"2024-08-01","end_dtc":"2024-08-01","updes":null},{"visitnum":"6.0","visit":"WEEK 16","start_dtc":"2024-08-25","end_dtc":"2024-08-25","updes":null}],"epochs":[{"seq":"1","etcd":"SCRN","element":"Screening","start_dtc":"2024-04-11","end_dtc":"2024-05-09","updes":null},{"seq":"2","etcd":"TRT","element":"Treatment","start_dtc":"2024-05-09","end_dtc":"2024-08-31","updes":null}],"visit_count":6},"section_5_concomitant_medications":{"medications":[{"seq":"1","trt":"ROSUVASTATIN","decod":"ROSUVASTATIN","cat":"PRIOR","dose":"10","doseu":null,"dosef":"QD","route":"ORAL","indication":"HYPERLIPIDEMIA","start_dtc":"2017-04-10","end_dtc":"2024-08-31","ongoing":null,"visit":null},{"seq":"2","trt":"GLUCOSE","decod":"GLUCOSE","cat":"CONCOMITANT","dose":"15.0","doseu":null,"dosef":"PRN","route":"ORAL","indication":"HYPOGLYCAEMIA","start_dtc":"2024-05-14","end_dtc":"2024-06-05","ongoing":null,"visit":null},{"seq":"3","trt":"LOPERAMIDE","decod":"LOPERAMIDE","cat":"CONCOMITANT","dose":"2","doseu":null,"dosef":"PRN","route":"ORAL","indication":"DIARRHOEA","start_dtc":"2024-05-25","end_dtc":"2024-06-18","ongoing":null,"visit":null},{"seq":"4","trt":"PARACETAMOL","decod":"PARACETAMOL","cat":"CONCOMITANT","dose":"500","doseu":null,"dosef":"PRN","route":"ORAL","indication":"LIPASE INCREASED","start_dtc":"2024-07-31","end_dtc":"2024-08-05","ongoing":null,"visit":null},{"seq":"5","trt":"GLUCOSE","decod":"GLUCOSE","cat":"CONCOMITANT","dose":"15.0","doseu":null,"dosef":"PRN","route":"ORAL","indication":"HYPOGLYCAEMIA","start_dtc":"2024-08-31","end_dtc":"2024-08-31","ongoing":null,"visit":null}]},"section_6_exposure":{"exposure_as_administered":[{"seq":"1","trt":"TIRZEPATIDE","dose":"2.5","doseu":null,"dosef":"QW","route":"SUBCUTANEOUS","lot":null,"start_dtc":"2024-05-09","end_dtc":"2024-05-09","start_dy":"1","end_dy":"1","epoch":"TREATMENT","visit":null},{"seq":"2","trt":"TIRZEPATIDE","dose":"2.5","doseu":null,"dosef":"QW","route":"SUBCUTANEOUS","lot":null,"start_dtc":"2024-05-16","end_dtc":"2024-05-16","start_dy":"8","end_dy":"8","epoch":"TREATMENT","visit":null},{"seq":"3","trt":"TIRZEPATIDE","dose":"2.5","doseu":null,"dosef":"QW","route":"SUBCUTANEOUS","lot":null,"start_dtc":"2024-05-23","end_dtc":"2024-05-23","start_dy":"15","end_dy":"15","epoch":"TREATMENT","visit":null},{"seq":"4","trt":"TIRZEPATIDE","dose":"2.5","doseu":null,"dosef":"QW","route":"SUBCUTANEOUS","lot":null,"start_dtc":"2024-05-30","end_dtc":"2024-05-30","start_dy":"22","end_dy":"22","epoch":"TREATMENT","visit":null},{"seq":"5","trt":"TIRZEPATIDE","dose":"5.0","doseu":null,"dosef":"QW","route":"SUBCUTANEOUS","lot":null,"start_dtc":"2024-06-06","end_dtc":"2024-06-06","start_dy":"29","end_dy":"29","epoch":"TREATMENT","visit":null},{"seq":"6","trt":"TIRZEPATIDE","dose":"5.0","doseu":null,"dosef":"QW","route":"SUBCUTANEOUS","lot":null,"start_dtc":"2024-06-13","end_dtc":"2024-06-13","start_dy":"36","end_dy":"36","epoch":"TREATMENT","visit":null},{"seq":"7","trt":"TIRZEPATIDE","dose":"5.0","doseu":null,"dosef":"QW","route":"SUBCUTANEOUS","lot":null,"start_dtc":"2024-06-20","end_dtc":"2024-06-20","start_dy":"43","end_dy":"43","epoch":"TREATMENT","visit":null},{"seq":"8","trt":"TIRZEPATIDE","dose":"5.0","doseu":null,"dosef":"QW","route":"SUBCUTANEOUS","lot":null,"start_dtc":"2024-06-27","end_dtc":"2024-06-27","start_dy":"50","end_dy":"50","epoch":"TREATMENT","visit":null},{"seq":"9","trt":"TIRZEPATIDE","dose":"7.5","doseu":null,"dosef":"QW","route":"SUBCUTANEOUS","lot":null,"start_dtc":"2024-07-04","end_dtc":"2024-07-04","start_dy":"57","end_dy":"57","epoch":"TREATMENT","visit":null},{"seq":"10","trt":"TIRZEPATIDE","dose":"7.5","doseu":null,"dosef":"QW","route":"SUBCUTANEOUS","lot":null,"start_dtc":"2024-07-11","end_dtc":"2024-07-11","start_dy":"64","end_dy":"64","epoch":"TREATMENT","visit":null},{"seq":"11","trt":"TIRZEPATIDE","dose":"7.5","doseu":null,"dosef":"QW","route":"SUBCUTANEOUS","lot":null,"start_dtc":"2024-07-18","end_dtc":"2024-07-18","start_dy":"71","end_dy":"71","epoch":"TREATMENT","visit":null},{"seq":"12","trt":"TIRZEPATIDE","dose":"7.5","doseu":null,"dosef":"QW","route":"SUBCUTANEOUS","lot":null,"start_dtc":"2024-07-25","end_dtc":"2024-07-25","start_dy":"78","end_dy":"78","epoch":"TREATMENT","visit":null},{"seq":"13","trt":"TIRZEPATIDE","dose":"10.0","doseu":null,"dosef":"QW","route":"SUBCUTANEOUS","lot":null,"start_dtc":"2024-08-01","end_dtc":"2024-08-01","start_dy":"85","end_dy":"85","epoch":"TREATMENT","visit":null},{"seq":"14","trt":"TIRZEPATIDE","dose":"10.0","doseu":null,"dosef":"QW","route":"SUBCUTANEOUS","lot":null,"start_dtc":"2024-08-08","end_dtc":"2024-08-08","start_dy":"92","end_dy":"92","epoch":"TREATMENT","visit":null},{"seq":"15","trt":"TIRZEPATIDE","dose":"10.0","doseu":null,"dosef":"QW","route":"SUBCUTANEOUS","lot":null,"start_dtc":"2024-08-15","end_dtc":"2024-08-15","start_dy":"99","end_dy":"99","epoch":"TREATMENT","visit":null},{"seq":"16","trt":"TIRZEPATIDE","dose":"10.0","doseu":null,"dosef":"QW","route":"SUBCUTANEOUS","lot":null,"start_dtc":"2024-08-22","end_dtc":"2024-08-22","start_dy":"106","end_dy":"106","epoch":"TREATMENT","visit":null},{"seq":"17","trt":"TIRZEPATIDE","dose":"12.5","doseu":null,"dosef":"QW","route":"SUBCUTANEOUS","lot":null,"start_dtc":"2024-08-29","end_dtc":"2024-08-29","start_dy":"113","end_dy":"113","epoch":"TREATMENT","visit":null}],"exposure_as_collected":[{"seq":"1","trt":"TIRZEPATIDE","dose":"2.5","doseu":null,"dosef":"QW","route":"SUBCUTANEOUS","start_dtc":"2024-05-09","end_dtc":"2024-05-09","visit":"BASELINE"},{"seq":"2","trt":"TIRZEPATIDE","dose":"2.5","doseu":null,"dosef":"QW","route":"SUBCUTANEOUS","start_dtc":"2024-05-16","end_dtc":"2024-05-16","visit":null},{"seq":"3","trt":"TIRZEPATIDE","dose":"2.5","doseu":null,"dosef":"QW","route":"SUBCUTANEOUS","start_dtc":"2024-05-23","end_dtc":"2024-05-23","visit":null},{"seq":"4","trt":"TIRZEPATIDE","dose":"2.5","doseu":null,"dosef":"QW","route":"SUBCUTANEOUS","start_dtc":"2024-05-30","end_dtc":"2024-05-30","visit":null},{"seq":"5","trt":"TIRZEPATIDE","dose":"5.0","doseu":null,"dosef":"QW","route":"SUBCUTANEOUS","start_dtc":"2024-06-06","end_dtc":"2024-06-06","visit":"WEEK 4"},{"seq":"6","trt":"TIRZEPATIDE","dose":"5.0","doseu":null,"dosef":"QW","route":"SUBCUTANEOUS","start_dtc":"2024-06-13","end_dtc":"2024-06-13","visit":null},{"seq":"7","trt":"TIRZEPATIDE","dose":"5.0","doseu":null,"dosef":"QW","route":"SUBCUTANEOUS","start_dtc":"2024-06-20","end_dtc":"2024-06-20","visit":null},{"seq":"8","trt":"TIRZEPATIDE","dose":"5.0","doseu":null,"dosef":"QW","route":"SUBCUTANEOUS","start_dtc":"2024-06-27","end_dtc":"2024-06-27","visit":null},{"seq":"9","trt":"TIRZEPATIDE","dose":"7.5","doseu":null,"dosef":"QW","route":"SUBCUTANEOUS","start_dtc":"2024-07-04","end_dtc":"2024-07-04","visit":"WEEK 8"},{"seq":"10","trt":"TIRZEPATIDE","dose":"7.5","doseu":null,"dosef":"QW","route":"SUBCUTANEOUS","start_dtc":"2024-07-11","end_dtc":"2024-07-11","visit":null},{"seq":"11","trt":"TIRZEPATIDE","dose":"7.5","doseu":null,"dosef":"QW","route":"SUBCUTANEOUS","start_dtc":"2024-07-18","end_dtc":"2024-07-18","visit":null},{"seq":"12","trt":"TIRZEPATIDE","dose":"7.5","doseu":null,"dosef":"QW","route":"SUBCUTANEOUS","start_dtc":"2024-07-25","end_dtc":"2024-07-25","visit":null},{"seq":"13","trt":"TIRZEPATIDE","dose":"10.0","doseu":null,"dosef":"QW","route":"SUBCUTANEOUS","start_dtc":"2024-08-01","end_dtc":"2024-08-01","visit":"WEEK 12"},{"seq":"14","trt":"TIRZEPATIDE","dose":"10.0","doseu":null,"dosef":"QW","route":"SUBCUTANEOUS","start_dtc":"2024-08-08","end_dtc":"2024-08-08","visit":null},{"seq":"15","trt":"TIRZEPATIDE","dose":"10.0","doseu":null,"dosef":"QW","route":"SUBCUTANEOUS","start_dtc":"2024-08-15","end_dtc":"2024-08-15","visit":null},{"seq":"16","trt":"TIRZEPATIDE","dose":"10.0","doseu":null,"dosef":"QW","route":"SUBCUTANEOUS","start_dtc":"2024-08-22","end_dtc":"2024-08-22","visit":null},{"seq":"17","trt":"TIRZEPATIDE","dose":"12.5","doseu":null,"dosef":"QW","route":"SUBCUTANEOUS","start_dtc":"2024-08-29","end_dtc":"2024-08-29","visit":"WEEK 16"}]},"section_7_adverse_events":{"summary":{"total_aes":6,"serious_aes":4,"fatal_aes":0,"by_severity":{"MILD":2,"SEVERE":4},"by_soc":{"Metabolism and nutrition disorders":2,"Gastrointestinal disorders":3,"Investigations":1}},"events":[{"seq":"1","term":"HYPOGLYCAEMIA","decod":"Hypoglycaemia","llt":"Hypoglycaemia","hlt":"Hypoglycaemic conditions NEC","hlgt":"Glucose metabolism disorders (incl diabetes mellitus)","soc":"Metabolism and nutrition disorders","bodsys":"Metabolism and nutrition disorders","severity":"MILD","serious":"N","causality":"UNLIKELY RELATED","action_taken":"DOSE NOT CHANGED","outcome":"RECOVERED/RESOLVED","fatal":"N","hospitalization":"N","life_threatening":"N","onset_dtc":"2024-05-14","end_dtc":"2024-05-27","onset_dy":"6","end_dy":"19","duration":null,"epoch":"TREATMENT","visit":null,"supplemental":{"AETRTEM":"Y"}},{"seq":"2","term":"DIARRHOEA","decod":"Diarrhoea","llt":"Diarrhoea","hlt":"Diarrhoea (excl infective)","hlgt":"Gastrointestinal motility and defaecation conditions","soc":"Gastrointestinal disorders","bodsys":"Gastrointestinal disorders","severity":"SEVERE","serious":"Y","causality":"NOT RELATED","action_taken":"DOSE NOT CHANGED","outcome":"RECOVERED/RESOLVED","fatal":"N","hospitalization":"N","life_threatening":"N","onset_dtc":"2024-05-25","end_dtc":"2024-06-01","onset_dy":"17","end_dy":"24","duration":null,"epoch":"TREATMENT","visit":null,"supplemental":{"AETRTEM":"Y"}},{"seq":"3","term":"DYSPEPSIA","decod":"Dyspepsia","llt":"Dyspepsia","hlt":"Dyspeptic signs and symptoms","hlgt":"Gastrointestinal signs and symptoms","soc":"Gastrointestinal disorders","bodsys":"Gastrointestinal disorders","severity":"MILD","serious":"N","causality":"NOT RELATED","action_taken":"DOSE NOT CHANGED","outcome":"RECOVERED/RESOLVED","fatal":"N","hospitalization":"N","life_threatening":"N","onset_dtc":"2024-07-16","end_dtc":"2024-07-17","onset_dy":"69","end_dy":"70","duration":null,"epoch":"TREATMENT","visit":null,"supplemental":{"AETRTEM":"Y"}},{"seq":"4","term":"LIPASE INCREASED","decod":"Lipase increased","llt":"Lipase increased","hlt":"Pancreatic enzymes","hlgt":"Gastrointestinal investigations","soc":"Investigations","bodsys":"Investigations","severity":"SEVERE","serious":"Y","causality":"NOT RELATED","action_taken":"DOSE NOT CHANGED","outcome":"RECOVERED/RESOLVED","fatal":"N","hospitalization":"Y","life_threatening":"N","onset_dtc":"2024-07-31","end_dtc":"2024-08-30","onset_dy":"84","end_dy":"114","duration":null,"epoch":"TREATMENT","visit":null,"supplemental":{"AETRTEM":"Y"}},{"seq":"5","term":"DIARRHOEA","decod":"Diarrhoea","llt":"Diarrhoea","hlt":"Diarrhoea (excl infective)","hlgt":"Gastrointestinal motility and defaecation conditions","soc":"Gastrointestinal disorders","bodsys":"Gastrointestinal disorders","severity":"SEVERE","serious":"Y","causality":"NOT RELATED","action_taken":"DOSE NOT CHANGED","outcome":"RECOVERED/RESOLVED","fatal":"N","hospitalization":"Y","life_threatening":"N","onset_dtc":"2024-08-06","end_dtc":"2024-08-31","onset_dy":"90","end_dy":"115","duration":null,"epoch":"TREATMENT","visit":null,"supplemental":{"AETRTEM":"Y"}},{"seq":"6","term":"HYPOGLYCAEMIA","decod":"Hypoglycaemia","llt":"Hypoglycaemia","hlt":"Hypoglycaemic conditions NEC","hlgt":"Glucose metabolism disorders (incl diabetes mellitus)","soc":"Metabolism and nutrition disorders","bodsys":"Metabolism and nutrition disorders","severity":"SEVERE","serious":"Y","causality":"NOT RELATED","action_taken":"DOSE NOT CHANGED","outcome":"RECOVERED/RESOLVED","fatal":"N","hospitalization":"Y","life_threatening":"N","onset_dtc":"2024-08-31","end_dtc":"2024-08-31","onset_dy":"115","end_dy":"115","duration":null,"epoch":"TREATMENT","visit":null,"supplemental":{"AETRTEM":"Y"}}]},"section_8_laboratory_results":{"summary":{"total_records":35,"abnormal_count":5,"abnormal_pct":14.3},"shift_summary":[{"testcd":"ALT","baseline_value":19.32,"baseline_nrind":"NORMAL","worst_post_baseline_value":22.45,"worst_post_baseline_nrind":"NORMAL","worst_visit":"WEEK 12"},{"testcd":"AST","baseline_value":34.54,"baseline_nrind":"NORMAL","worst_post_baseline_value":35.1,"worst_post_baseline_nrind":"NORMAL","worst_visit":"WEEK 16"},{"testcd":"CREAT","baseline_value":55.22,"baseline_nrind":"NORMAL","worst_post_baseline_value":54.21,"worst_post_baseline_nrind":"NORMAL","worst_visit":"BASELINE"},{"testcd":"GLUC","baseline_value":8.18,"baseline_nrind":"HIGH","worst_post_baseline_value":8.27,"worst_post_baseline_nrind":"HIGH","worst_visit":"WEEK 16"},{"testcd":"HGB","baseline_value":131.52,"baseline_nrind":"NORMAL","worst_post_baseline_value":130.17,"worst_post_baseline_nrind":"NORMAL","worst_visit":"WEEK 12"},{"testcd":"PLAT","baseline_value":190.02,"baseline_nrind":"NORMAL","worst_post_baseline_value":192.28,"worst_post_baseline_nrind":"NORMAL","worst_visit":"WEEK 16"},{"testcd":"WBC","baseline_value":5.45,"baseline_nrind":"NORMAL","worst_post_baseline_value":5.39,"worst_post_baseline_nrind":"NORMAL","worst_visit":"WEEK 16"}],"results":[{"seq":"1","testcd":"ALT","test":"Alanine Aminotransferase","cat":"CHEMISTRY","orres":"19.32","orresu":"U/L","stresc":"19.32","stresn":"19.32","stresu":"U/L","stnrlo":"7","stnrhi":"56","nrind":"NORMAL","fast":null,"dtc":"2024-03-23","dy":"-47","visit":"SCREENING","visitnum":"1.0","epoch":"SCREENING","spec":null,"method":null},{"seq":"2","testcd":"AST","test":"Aspartate Aminotransferase","cat":"CHEMISTRY","orres":"34.54","orresu":"U/L","stresc":"34.54","stresn":"34.54","stresu":"U/L","stnrlo":"10","stnrhi":"40","nrind":"NORMAL","fast":null,"dtc":"2024-03-23","dy":"-47","visit":"SCREENING","visitnum":"1.0","epoch":"SCREENING","spec":null,"method":null},{"seq":"3","testcd":"CREAT","test":"Creatinine","cat":"CHEMISTRY","orres":"55.22","orresu":"umol/L","stresc":"55.22","stresn":"55.22","stresu":"umol/L","stnrlo":"44","stnrhi":"80","nrind":"NORMAL","fast":null,"dtc":"2024-03-23","dy":"-47","visit":"SCREENING","visitnum":"1.0","epoch":"SCREENING","spec":null,"method":null},{"seq":"4","testcd":"GLUC","test":"Glucose","cat":"CHEMISTRY","orres":"8.18","orresu":"mmol/L","stresc":"8.18","stresn":"8.18","stresu":"mmol/L","stnrlo":"3.9","stnrhi":"5.6","nrind":"HIGH","fast":null,"dtc":"2024-03-23","dy":"-47","visit":"SCREENING","visitnum":"1.0","epoch":"SCREENING","spec":null,"method":null},{"seq":"5","testcd":"HGB","test":"Hemoglobin","cat":"HEMATOLOGY","orres":"131.52","orresu":"g/L","stresc":"131.52","stresn":"131.52","stresu":"g/L","stnrlo":"120","stnrhi":"155","nrind":"NORMAL","fast":null,"dtc":"2024-03-23","dy":"-47","visit":"SCREENING","visitnum":"1.0","epoch":"SCREENING","spec":null,"method":null},{"seq":"6","testcd":"PLAT","test":"Platelets","cat":"HEMATOLOGY","orres":"190.02","orresu":"10^9/L","stresc":"190.02","stresn":"190.02","stresu":"10^9/L","stnrlo":"150","stnrhi":"400","nrind":"NORMAL","fast":null,"dtc":"2024-03-23","dy":"-47","visit":"SCREENING","visitnum":"1.0","epoch":"SCREENING","spec":null,"method":null},{"seq":"7","testcd":"WBC","test":"Leukocytes","cat":"HEMATOLOGY","orres":"5.45","orresu":"10^9/L","stresc":"5.45","stresn":"5.45","stresu":"10^9/L","stnrlo":"4.0","stnrhi":"11.0","nrind":"NORMAL","fast":null,"dtc":"2024-03-23","dy":"-47","visit":"SCREENING","visitnum":"1.0","epoch":"SCREENING","spec":null,"method":null},{"seq":"8","testcd":"ALT","test":"Alanine Aminotransferase","cat":"CHEMISTRY","orres":"18.53","orresu":"U/L","stresc":"18.53","stresn":"18.53","stresu":"U/L","stnrlo":"7","stnrhi":"56","nrind":"NORMAL","fast":null,"dtc":"2024-05-09","dy":"1","visit":"BASELINE","visitnum":"2.0","epoch":"TREATMENT","spec":null,"method":null},{"seq":"9","testcd":"AST","test":"Aspartate Aminotransferase","cat":"CHEMISTRY","orres":"34.31","orresu":"U/L","stresc":"34.31","stresn":"34.31","stresu":"U/L","stnrlo":"10","stnrhi":"40","nrind":"NORMAL","fast":null,"dtc":"2024-05-09","dy":"1","visit":"BASELINE","visitnum":"2.0","epoch":"TREATMENT","spec":null,"method":null},{"seq":"10","testcd":"CREAT","test":"Creatinine","cat":"CHEMISTRY","orres":"54.21","orresu":"umol/L","stresc":"54.21","stresn":"54.21","stresu":"umol/L","stnrlo":"44","stnrhi":"80","nrind":"NORMAL","fast":null,"dtc":"2024-05-09","dy":"1","visit":"BASELINE","visitnum":"2.0","epoch":"TREATMENT","spec":null,"method":null},{"seq":"11","testcd":"GLUC","test":"Glucose","cat":"CHEMISTRY","orres":"8.19","orresu":"mmol/L","stresc":"8.19","stresn":"8.19","stresu":"mmol/L","stnrlo":"3.9","stnrhi":"5.6","nrind":"HIGH","fast":null,"dtc":"2024-05-09","dy":"1","visit":"BASELINE","visitnum":"2.0","epoch":"TREATMENT","spec":null,"method":null},{"seq":"12","testcd":"HGB","test":"Hemoglobin","cat":"HEMATOLOGY","orres":"130.77","orresu":"g/L","stresc":"130.77","stresn":"130.77","stresu":"g/L","stnrlo":"120","stnrhi":"155","nrind":"NORMAL","fast":null,"dtc":"2024-05-09","dy":"1","visit":"BASELINE","visitnum":"2.0","epoch":"TREATMENT","spec":null,"method":null},{"seq":"13","testcd":"PLAT","test":"Platelets","cat":"HEMATOLOGY","orres":"181.62","orresu":"10^9/L","stresc":"181.62","stresn":"181.62","stresu":"10^9/L","stnrlo":"150","stnrhi":"400","nrind":"NORMAL","fast":null,"dtc":"2024-05-09","dy":"1","visit":"BASELINE","visitnum":"2.0","epoch":"TREATMENT","spec":null,"method":null},{"seq":"14","testcd":"WBC","test":"Leukocytes","cat":"HEMATOLOGY","orres":"4.64","orresu":"10^9/L","stresc":"4.64","stresn":"4.64","stresu":"10^9/L","stnrlo":"4.0","stnrhi":"11.0","nrind":"NORMAL","fast":null,"dtc":"2024-05-09","dy":"1","visit":"BASELINE","visitnum":"2.0","epoch":"TREATMENT","spec":null,"method":null},{"seq":"15","testcd":"ALT","test":"Alanine Aminotransferase","cat":"CHEMISTRY","orres":"18.52","orresu":"U/L","stresc":"18.52","stresn":"18.52","stresu":"U/L","stnrlo":"7","stnrhi":"56","nrind":"NORMAL","fast":null,"dtc":"2024-06-06","dy":"29","visit":"WEEK 4","visitnum":"3.0","epoch":"TREATMENT","spec":null,"method":null},{"seq":"16","testcd":"AST","test":"Aspartate Aminotransferase","cat":"CHEMISTRY","orres":"34.02","orresu":"U/L","stresc":"34.02","stresn":"34.02","stresu":"U/L","stnrlo":"10","stnrhi":"40","nrind":"NORMAL","fast":null,"dtc":"2024-06-06","dy":"29","visit":"WEEK 4","visitnum":"3.0","epoch":"TREATMENT","spec":null,"method":null},{"seq":"17","testcd":"CREAT","test":"Creatinine","cat":"CHEMISTRY","orres":"52.89","orresu":"umol/L","stresc":"52.89","stresn":"52.89","stresu":"umol/L","stnrlo":"44","stnrhi":"80","nrind":"NORMAL","fast":null,"dtc":"2024-06-06","dy":"29","visit":"WEEK 4","visitnum":"3.0","epoch":"TREATMENT","spec":null,"method":null},{"seq":"18","testcd":"GLUC","test":"Glucose","cat":"CHEMISTRY","orres":"7.91","orresu":"mmol/L","stresc":"7.91","stresn":"7.91","stresu":"mmol/L","stnrlo":"3.9","stnrhi":"5.6","nrind":"HIGH","fast":null,"dtc":"2024-06-06","dy":"29","visit":"WEEK 4","visitnum":"3.0","epoch":"TREATMENT","spec":null,"method":null},{"seq":"19","testcd":"HGB","test":"Hemoglobin","cat":"HEMATOLOGY","orres":"131.11","orresu":"g/L","stresc":"131.11","stresn":"131.11","stresu":"g/L","stnrlo":"120","stnrhi":"155","nrind":"NORMAL","fast":null,"dtc":"2024-06-06","dy":"29","visit":"WEEK 4","visitnum":"3.0","epoch":"TREATMENT","spec":null,"method":null},{"seq":"20","testcd":"PLAT","test":"Platelets","cat":"HEMATOLOGY","orres":"189.54","orresu":"10^9/L","stresc":"189.54","stresn":"189.54","stresu":"10^9/L","stnrlo":"150","stnrhi":"400","nrind":"NORMAL","fast":null,"dtc":"2024-06-06","dy":"29","visit":"WEEK 4","visitnum":"3.0","epoch":"TREATMENT","spec":null,"method":null},{"seq":"21","testcd":"WBC","test":"Leukocytes","cat":"HEMATOLOGY","orres":"4.59","orresu":"10^9/L","stresc":"4.59","stresn":"4.59","stresu":"10^9/L","stnrlo":"4.0","stnrhi":"11.0","nrind":"NORMAL","fast":null,"dtc":"2024-06-06","dy":"29","visit":"WEEK 4","visitnum":"3.0","epoch":"TREATMENT","spec":null,"method":null},{"seq":"22","testcd":"ALT","test":"Alanine Aminotransferase","cat":"CHEMISTRY","orres":"22.45","orresu":"U/L","stresc":"22.45","stresn":"22.45","stresu":"U/L","stnrlo":"7","stnrhi":"56","nrind":"NORMAL","fast":null,"dtc":"2024-08-01","dy":"85","visit":"WEEK 12","visitnum":"5.0","epoch":"TREATMENT","spec":null,"method":null},{"seq":"23","testcd":"AST","test":"Aspartate Aminotransferase","cat":"CHEMISTRY","orres":"33.25","orresu":"U/L","stresc":"33.25","stresn":"33.25","stresu":"U/L","stnrlo":"10","stnrhi":"40","nrind":"NORMAL","fast":null,"dtc":"2024-08-01","dy":"85","visit":"WEEK 12","visitnum":"5.0","epoch":"TREATMENT","spec":null,"method":null},{"seq":"24","testcd":"CREAT","test":"Creatinine","cat":"CHEMISTRY","orres":"52.01","orresu":"umol/L","stresc":"52.01","stresn":"52.01","stresu":"umol/L","stnrlo":"44","stnrhi":"80","nrind":"NORMAL","fast":null,"dtc":"2024-08-01","dy":"85","visit":"WEEK 12","visitnum":"5.0","epoch":"TREATMENT","spec":null,"method":null},{"seq":"25","testcd":"GLUC","test":"Glucose","cat":"CHEMISTRY","orres":"8.25","orresu":"mmol/L","stresc":"8.25","stresn":"8.25","stresu":"mmol/L","stnrlo":"3.9","stnrhi":"5.6","nrind":"HIGH","fast":null,"dtc":"2024-08-01","dy":"85","visit":"WEEK 12","visitnum":"5.0","epoch":"TREATMENT","spec":null,"method":null},{"seq":"26","testcd":"HGB","test":"Hemoglobin","cat":"HEMATOLOGY","orres":"130.17","orresu":"g/L","stresc":"130.17","stresn":"130.17","stresu":"g/L","stnrlo":"120","stnrhi":"155","nrind":"NORMAL","fast":null,"dtc":"2024-08-01","dy":"85","visit":"WEEK 12","visitnum":"5.0","epoch":"TREATMENT","spec":null,"method":null},{"seq":"27","testcd":"PLAT","test":"Platelets","cat":"HEMATOLOGY","orres":"181.27","orresu":"10^9/L","stresc":"181.27","stresn":"181.27","stresu":"10^9/L","stnrlo":"150","stnrhi":"400","nrind":"NORMAL","fast":null,"dtc":"2024-08-01","dy":"85","visit":"WEEK 12","visitnum":"5.0","epoch":"TREATMENT","spec":null,"method":null},{"seq":"28","testcd":"WBC","test":"Leukocytes","cat":"HEMATOLOGY","orres":"4.75","orresu":"10^9/L","stresc":"4.75","stresn":"4.75","stresu":"10^9/L","stnrlo":"4.0","stnrhi":"11.0","nrind":"NORMAL","fast":null,"dtc":"2024-08-01","dy":"85","visit":"WEEK 12","visitnum":"5.0","epoch":"TREATMENT","spec":null,"method":null},{"seq":"29","testcd":"ALT","test":"Alanine Aminotransferase","cat":"CHEMISTRY","orres":"22.0","orresu":"U/L","stresc":"22.0","stresn":"22.0","stresu":"U/L","stnrlo":"7","stnrhi":"56","nrind":"NORMAL","fast":null,"dtc":"2024-08-25","dy":"109","visit":"WEEK 16","visitnum":"6.0","epoch":"TREATMENT","spec":null,"method":null},{"seq":"30","testcd":"AST","test":"Aspartate Aminotransferase","cat":"CHEMISTRY","orres":"35.1","orresu":"U/L","stresc":"35.1","stresn":"35.1","stresu":"U/L","stnrlo":"10","stnrhi":"40","nrind":"NORMAL","fast":null,"dtc":"2024-08-25","dy":"109","visit":"WEEK 16","visitnum":"6.0","epoch":"TREATMENT","spec":null,"method":null},{"seq":"31","testcd":"CREAT","test":"Creatinine","cat":"CHEMISTRY","orres":"50.43","orresu":"umol/L","stresc":"50.43","stresn":"50.43","stresu":"umol/L","stnrlo":"44","stnrhi":"80","nrind":"NORMAL","fast":null,"dtc":"2024-08-25","dy":"109","visit":"WEEK 16","visitnum":"6.0","epoch":"TREATMENT","spec":null,"method":null},{"seq":"32","testcd":"GLUC","test":"Glucose","cat":"CHEMISTRY","orres":"8.27","orresu":"mmol/L","stresc":"8.27","stresn":"8.27","stresu":"mmol/L","stnrlo":"3.9","stnrhi":"5.6","nrind":"HIGH","fast":null,"dtc":"2024-08-25","dy":"109","visit":"WEEK 16","visitnum":"6.0","epoch":"TREATMENT","spec":null,"method":null},{"seq":"33","testcd":"HGB","test":"Hemoglobin","cat":"HEMATOLOGY","orres":null,"orresu":null,"stresc":null,"stresn":null,"stresu":null,"stnrlo":null,"stnrhi":null,"nrind":null,"fast":null,"dtc":"2024-08-25","dy":"109","visit":"WEEK 16","visitnum":"6.0","epoch":"TREATMENT","spec":null,"method":null},{"seq":"34","testcd":"PLAT","test":"Platelets","cat":"HEMATOLOGY","orres":"192.28","orresu":"10^9/L","stresc":"192.28","stresn":"192.28","stresu":"10^9/L","stnrlo":"150","stnrhi":"400","nrind":"NORMAL","fast":null,"dtc":"2024-08-25","dy":"109","visit":"WEEK 16","visitnum":"6.0","epoch":"TREATMENT","spec":null,"method":null},{"seq":"35","testcd":"WBC","test":"Leukocytes","cat":"HEMATOLOGY","orres":"5.39","orresu":"10^9/L","stresc":"5.39","stresn":"5.39","stresu":"10^9/L","stnrlo":"4.0","stnrhi":"11.0","nrind":"NORMAL","fast":null,"dtc":"2024-08-25","dy":"109","visit":"WEEK 16","visitnum":"6.0","epoch":"TREATMENT","spec":null,"method":null}]},"section_9_vital_signs":{"summary":{"total_records":40},"trends":{"BMI":[{"visit":"SCREENING","visitnum":"1.0","dtc":"2024-03-23","value":"25.9","unit":"kg/m2"},{"visit":"BASELINE","visitnum":"2.0","dtc":"2024-05-09","value":"25.4","unit":"kg/m2"},{"visit":"WEEK 4","visitnum":"3.0","dtc":"2024-06-06","value":"25.4","unit":"kg/m2"},{"visit":"WEEK 8","visitnum":"4.0","dtc":"2024-07-02","value":"26.7","unit":"kg/m2"},{"visit":"WEEK 16","visitnum":"6.0","dtc":"2024-08-25","value":"25.8","unit":"kg/m2"}],"DIABP":[{"visit":"SCREENING","visitnum":"1.0","dtc":"2024-03-23","value":"86.7","unit":"mmHg"},{"visit":"BASELINE","visitnum":"2.0","dtc":"2024-05-09","value":"86.2","unit":"mmHg"},{"visit":"WEEK 4","visitnum":"3.0","dtc":"2024-06-06","value":"85.3","unit":"mmHg"},{"visit":"WEEK 8","visitnum":"4.0","dtc":"2024-07-02","value":"86.3","unit":"mmHg"},{"visit":"WEEK 16","visitnum":"6.0","dtc":"2024-08-25","value":"85.3","unit":"mmHg"}],"HEIGHT":[{"visit":"SCREENING","visitnum":"1.0","dtc":"2024-03-23","value":"146.7","unit":"cm"},{"visit":"BASELINE","visitnum":"2.0","dtc":"2024-05-09","value":"146.9","unit":"cm"},{"visit":"WEEK 4","visitnum":"3.0","dtc":"2024-06-06","value":"147.2","unit":"cm"},{"visit":"WEEK 8","visitnum":"4.0","dtc":"2024-07-02","value":"147.5","unit":"cm"},{"visit":"WEEK 16","visitnum":"6.0","dtc":"2024-08-25","value":"147.8","unit":"cm"}],"PULSE":[{"visit":"SCREENING","visitnum":"1.0","dtc":"2024-03-23","value":"81.6","unit":"beats/min"},{"visit":"BASELINE","visitnum":"2.0","dtc":"2024-05-09","value":"80.6","unit":"beats/min"},{"visit":"WEEK 4","visitnum":"3.0","dtc":"2024-06-06","value":"81.0","unit":"beats/min"},{"visit":"WEEK 8","visitnum":"4.0","dtc":"2024-07-02","value":"79.0","unit":"beats/min"},{"visit":"WEEK 16","visitnum":"6.0","dtc":"2024-08-25","value":"88.3","unit":"beats/min"}],"RESP":[{"visit":"SCREENING","visitnum":"1.0","dtc":"2024-03-23","value":"16.2","unit":"breaths/min"},{"visit":"BASELINE","visitnum":"2.0","dtc":"2024-05-09","value":"16.8","unit":"breaths/min"},{"visit":"WEEK 4","visitnum":"3.0","dtc":"2024-06-06","value":"15.3","unit":"breaths/min"},{"visit":"WEEK 8","visitnum":"4.0","dtc":"2024-07-02","value":"14.6","unit":"breaths/min"},{"visit":"WEEK 16","visitnum":"6.0","dtc":"2024-08-25","value":"16.8","unit":"breaths/min"}],"SYSBP":[{"visit":"SCREENING","visitnum":"1.0","dtc":"2024-03-23","value":"153.6","unit":"mmHg"},{"visit":"BASELINE","visitnum":"2.0","dtc":"2024-05-09","value":"153.7","unit":"mmHg"},{"visit":"WEEK 4","visitnum":"3.0","dtc":"2024-06-06","value":"154.1","unit":"mmHg"},{"visit":"WEEK 8","visitnum":"4.0","dtc":"2024-07-02","value":"156.8","unit":"mmHg"},{"visit":"WEEK 16","visitnum":"6.0","dtc":"2024-08-25","value":"154.9","unit":"mmHg"}],"TEMP":[{"visit":"SCREENING","visitnum":"1.0","dtc":"2024-03-23","value":"36.6","unit":"C"},{"visit":"BASELINE","visitnum":"2.0","dtc":"2024-05-09","value":"36.4","unit":"C"},{"visit":"WEEK 4","visitnum":"3.0","dtc":"2024-06-06","value":"36.5","unit":"C"},{"visit":"WEEK 8","visitnum":"4.0","dtc":"2024-07-02","value":"36.5","unit":"C"},{"visit":"WEEK 16","visitnum":"6.0","dtc":"2024-08-25","value":"36.5","unit":"C"}],"WEIGHT":[{"visit":"SCREENING","visitnum":"1.0","dtc":"2024-03-23","value":"55.8","unit":"kg"},{"visit":"BASELINE","visitnum":"2.0","dtc":"2024-05-09","value":"54.9","unit":"kg"},{"visit":"WEEK 4","visitnum":"3.0","dtc":"2024-06-06","value":"55.1","unit":"kg"},{"visit":"WEEK 8","visitnum":"4.0","dtc":"2024-07-02","value":"58.0","unit":"kg"},{"visit":"WEEK 16","visitnum":"6.0","dtc":"2024-08-25","value":"56.3","unit":"kg"}]},"results":[{"seq":"1","testcd":"BMI","test":"BMI","cat":null,"orres":null,"orresu":null,"stresc":"25.9","stresn":"25.9","stresu":"kg/m2","stnrlo":null,"stnrhi":null,"nrind":null,"pos":null,"loc":null,"dtc":"2024-03-23","dy":"-47","visit":"SCREENING","visitnum":"1.0","epoch":"SCREENING"},{"seq":"2","testcd":"DIABP","test":"Diastolic Blood Pressure","cat":null,"orres":"86.7","orresu":"mmHg","stresc":"86.7","stresn":"86.7","stresu":"mmHg","stnrlo":null,"stnrhi":null,"nrind":null,"pos":null,"loc":null,"dtc":"2024-03-23","dy":"-47","visit":"SCREENING","visitnum":"1.0","epoch":"SCREENING"},{"seq":"3","testcd":"HEIGHT","test":"Height","cat":null,"orres":"146.7","orresu":"cm","stresc":"146.7","stresn":"146.7","stresu":"cm","stnrlo":null,"stnrhi":null,"nrind":null,"pos":null,"loc":null,"dtc":"2024-03-23","dy":"-47","visit":"SCREENING","visitnum":"1.0","epoch":"SCREENING"},{"seq":"4","testcd":"PULSE","test":"Pulse Rate","cat":null,"orres":"81.6","orresu":"beats/min","stresc":"81.6","stresn":"81.6","stresu":"beats/min","stnrlo":null,"stnrhi":null,"nrind":null,"pos":null,"loc":null,"dtc":"2024-03-23","dy":"-47","visit":"SCREENING","visitnum":"1.0","epoch":"SCREENING"},{"seq":"5","testcd":"RESP","test":"Respiratory Rate","cat":null,"orres":"16.2","orresu":"breaths/min","stresc":"16.2","stresn":"16.2","stresu":"breaths/min","stnrlo":null,"stnrhi":null,"nrind":null,"pos":null,"loc":null,"dtc":"2024-03-23","dy":"-47","visit":"SCREENING","visitnum":"1.0","epoch":"SCREENING"},{"seq":"6","testcd":"SYSBP","test":"Systolic Blood Pressure","cat":null,"orres":"153.6","orresu":"mmHg","stresc":"153.6","stresn":"153.6","stresu":"mmHg","stnrlo":null,"stnrhi":null,"nrind":null,"pos":null,"loc":null,"dtc":"2024-03-23","dy":"-47","visit":"SCREENING","visitnum":"1.0","epoch":"SCREENING"},{"seq":"7","testcd":"TEMP","test":"Temperature","cat":null,"orres":"36.6","orresu":"C","stresc":"36.6","stresn":"36.6","stresu":"C","stnrlo":null,"stnrhi":null,"nrind":null,"pos":null,"loc":null,"dtc":"2024-03-23","dy":"-47","visit":"SCREENING","visitnum":"1.0","epoch":"SCREENING"},{"seq":"8","testcd":"WEIGHT","test":"Weight","cat":null,"orres":"55.8","orresu":"kg","stresc":"55.8","stresn":"55.8","stresu":"kg","stnrlo":null,"stnrhi":null,"nrind":null,"pos":null,"loc":null,"dtc":"2024-03-23","dy":"-47","visit":"SCREENING","visitnum":"1.0","epoch":"SCREENING"},{"seq":"9","testcd":"BMI","test":"BMI","cat":null,"orres":null,"orresu":null,"stresc":"25.4","stresn":"25.4","stresu":"kg/m2","stnrlo":null,"stnrhi":null,"nrind":null,"pos":null,"loc":null,"dtc":"2024-05-09","dy":"1","visit":"BASELINE","visitnum":"2.0","epoch":"TREATMENT"},{"seq":"10","testcd":"DIABP","test":"Diastolic Blood Pressure","cat":null,"orres":"86.2","orresu":"mmHg","stresc":"86.2","stresn":"86.2","stresu":"mmHg","stnrlo":null,"stnrhi":null,"nrind":null,"pos":null,"loc":null,"dtc":"2024-05-09","dy":"1","visit":"BASELINE","visitnum":"2.0","epoch":"TREATMENT"},{"seq":"11","testcd":"HEIGHT","test":"Height","cat":null,"orres":"146.9","orresu":"cm","stresc":"146.9","stresn":"146.9","stresu":"cm","stnrlo":null,"stnrhi":null,"nrind":null,"pos":null,"loc":null,"dtc":"2024-05-09","dy":"1","visit":"BASELINE","visitnum":"2.0","epoch":"TREATMENT"},{"seq":"12","testcd":"PULSE","test":"Pulse Rate","cat":null,"orres":"80.6","orresu":"beats/min","stresc":"80.6","stresn":"80.6","stresu":"beats/min","stnrlo":null,"stnrhi":null,"nrind":null,"pos":null,"loc":null,"dtc":"2024-05-09","dy":"1","visit":"BASELINE","visitnum":"2.0","epoch":"TREATMENT"},{"seq":"13","testcd":"RESP","test":"Respiratory Rate","cat":null,"orres":"16.8","orresu":"breaths/min","stresc":"16.8","stresn":"16.8","stresu":"breaths/min","stnrlo":null,"stnrhi":null,"nrind":null,"pos":null,"loc":null,"dtc":"2024-05-09","dy":"1","visit":"BASELINE","visitnum":"2.0","epoch":"TREATMENT"},{"seq":"14","testcd":"SYSBP","test":"Systolic Blood Pressure","cat":null,"orres":"153.7","orresu":"mmHg","stresc":"153.7","stresn":"153.7","stresu":"mmHg","stnrlo":null,"stnrhi":null,"nrind":null,"pos":null,"loc":null,"dtc":"2024-05-09","dy":"1","visit":"BASELINE","visitnum":"2.0","epoch":"TREATMENT"},{"seq":"15","testcd":"TEMP","test":"Temperature","cat":null,"orres":"36.4","orresu":"C","stresc":"36.4","stresn":"36.4","stresu":"C","stnrlo":null,"stnrhi":null,"nrind":null,"pos":null,"loc":null,"dtc":"2024-05-09","dy":"1","visit":"BASELINE","visitnum":"2.0","epoch":"TREATMENT"},{"seq":"16","testcd":"WEIGHT","test":"Weight","cat":null,"orres":"54.9","orresu":"kg","stresc":"54.9","stresn":"54.9","stresu":"kg","stnrlo":null,"stnrhi":null,"nrind":null,"pos":null,"loc":null,"dtc":"2024-05-09","dy":"1","visit":"BASELINE","visitnum":"2.0","epoch":"TREATMENT"},{"seq":"17","testcd":"BMI","test":"BMI","cat":null,"orres":null,"orresu":null,"stresc":"25.4","stresn":"25.4","stresu":"kg/m2","stnrlo":null,"stnrhi":null,"nrind":null,"pos":null,"loc":null,"dtc":"2024-06-06","dy":"29","visit":"WEEK 4","visitnum":"3.0","epoch":"TREATMENT"},{"seq":"18","testcd":"DIABP","test":"Diastolic Blood Pressure","cat":null,"orres":"85.3","orresu":"mmHg","stresc":"85.3","stresn":"85.3","stresu":"mmHg","stnrlo":null,"stnrhi":null,"nrind":null,"pos":null,"loc":null,"dtc":"2024-06-06","dy":"29","visit":"WEEK 4","visitnum":"3.0","epoch":"TREATMENT"},{"seq":"19","testcd":"HEIGHT","test":"Height","cat":null,"orres":"147.2","orresu":"cm","stresc":"147.2","stresn":"147.2","stresu":"cm","stnrlo":null,"stnrhi":null,"nrind":null,"pos":null,"loc":null,"dtc":"2024-06-06","dy":"29","visit":"WEEK 4","visitnum":"3.0","epoch":"TREATMENT"},{"seq":"20","testcd":"PULSE","test":"Pulse Rate","cat":null,"orres":"81.0","orresu":"beats/min","stresc":"81.0","stresn":"81.0","stresu":"beats/min","stnrlo":null,"stnrhi":null,"nrind":null,"pos":null,"loc":null,"dtc":"2024-06-06","dy":"29","visit":"WEEK 4","visitnum":"3.0","epoch":"TREATMENT"},{"seq":"21","testcd":"RESP","test":"Respiratory Rate","cat":null,"orres":"15.3","orresu":"breaths/min","stresc":"15.3","stresn":"15.3","stresu":"breaths/min","stnrlo":null,"stnrhi":null,"nrind":null,"pos":null,"loc":null,"dtc":"2024-06-06","dy":"29","visit":"WEEK 4","visitnum":"3.0","epoch":"TREATMENT"},{"seq":"22","testcd":"SYSBP","test":"Systolic Blood Pressure","cat":null,"orres":"154.1","orresu":"mmHg","stresc":"154.1","stresn":"154.1","stresu":"mmHg","stnrlo":null,"stnrhi":null,"nrind":null,"pos":null,"loc":null,"dtc":"2024-06-06","dy":"29","visit":"WEEK 4","visitnum":"3.0","epoch":"TREATMENT"},{"seq":"23","testcd":"TEMP","test":"Temperature","cat":null,"orres":"36.5","orresu":"C","stresc":"36.5","stresn":"36.5","stresu":"C","stnrlo":null,"stnrhi":null,"nrind":null,"pos":null,"loc":null,"dtc":"2024-06-06","dy":"29","visit":"WEEK 4","visitnum":"3.0","epoch":"TREATMENT"},{"seq":"24","testcd":"WEIGHT","test":"Weight","cat":null,"orres":"55.1","orresu":"kg","stresc":"55.1","stresn":"55.1","stresu":"kg","stnrlo":null,"stnrhi":null,"nrind":null,"pos":null,"loc":null,"dtc":"2024-06-06","dy":"29","visit":"WEEK 4","visitnum":"3.0","epoch":"TREATMENT"},{"seq":"25","testcd":"BMI","test":"BMI","cat":null,"orres":null,"orresu":null,"stresc":"26.7","stresn":"26.7","stresu":"kg/m2","stnrlo":null,"stnrhi":null,"nrind":null,"pos":null,"loc":null,"dtc":"2024-07-02","dy":"55","visit":"WEEK 8","visitnum":"4.0","epoch":"TREATMENT"},{"seq":"26","testcd":"DIABP","test":"Diastolic Blood Pressure","cat":null,"orres":"86.3","orresu":"mmHg","stresc":"86.3","stresn":"86.3","stresu":"mmHg","stnrlo":null,"stnrhi":null,"nrind":null,"pos":null,"loc":null,"dtc":"2024-07-02","dy":"55","visit":"WEEK 8","visitnum":"4.0","epoch":"TREATMENT"},{"seq":"27","testcd":"HEIGHT","test":"Height","cat":null,"orres":"147.5","orresu":"cm","stresc":"147.5","stresn":"147.5","stresu":"cm","stnrlo":null,"stnrhi":null,"nrind":null,"pos":null,"loc":null,"dtc":"2024-07-02","dy":"55","visit":"WEEK 8","visitnum":"4.0","epoch":"TREATMENT"},{"seq":"28","testcd":"PULSE","test":"Pulse Rate","cat":null,"orres":"79.0","orresu":"beats/min","stresc":"79.0","stresn":"79.0","stresu":"beats/min","stnrlo":null,"stnrhi":null,"nrind":null,"pos":null,"loc":null,"dtc":"2024-07-02","dy":"55","visit":"WEEK 8","visitnum":"4.0","epoch":"TREATMENT"},{"seq":"29","testcd":"RESP","test":"Respiratory Rate","cat":null,"orres":"14.6","orresu":"breaths/min","stresc":"14.6","stresn":"14.6","stresu":"breaths/min","stnrlo":null,"stnrhi":null,"nrind":null,"pos":null,"loc":null,"dtc":"2024-07-02","dy":"55","visit":"WEEK 8","visitnum":"4.0","epoch":"TREATMENT"},{"seq":"30","testcd":"SYSBP","test":"Systolic Blood Pressure","cat":null,"orres":"156.8","orresu":"mmHg","stresc":"156.8","stresn":"156.8","stresu":"mmHg","stnrlo":null,"stnrhi":null,"nrind":null,"pos":null,"loc":null,"dtc":"2024-07-02","dy":"55","visit":"WEEK 8","visitnum":"4.0","epoch":"TREATMENT"},{"seq":"31","testcd":"TEMP","test":"Temperature","cat":null,"orres":"36.5","orresu":"C","stresc":"36.5","stresn":"36.5","stresu":"C","stnrlo":null,"stnrhi":null,"nrind":null,"pos":null,"loc":null,"dtc":"2024-07-02","dy":"55","visit":"WEEK 8","visitnum":"4.0","epoch":"TREATMENT"},{"seq":"32","testcd":"WEIGHT","test":"Weight","cat":null,"orres":"58.0","orresu":"kg","stresc":"58.0","stresn":"58.0","stresu":"kg","stnrlo":null,"stnrhi":null,"nrind":null,"pos":null,"loc":null,"dtc":"2024-07-02","dy":"55","visit":"WEEK 8","visitnum":"4.0","epoch":"TREATMENT"},{"seq":"33","testcd":"BMI","test":"BMI","cat":null,"orres":null,"orresu":null,"stresc":"25.8","stresn":"25.8","stresu":"kg/m2","stnrlo":null,"stnrhi":null,"nrind":null,"pos":null,"loc":null,"dtc":"2024-08-25","dy":"109","visit":"WEEK 16","visitnum":"6.0","epoch":"TREATMENT"},{"seq":"34","testcd":"DIABP","test":"Diastolic Blood Pressure","cat":null,"orres":"85.3","orresu":"mmHg","stresc":"85.3","stresn":"85.3","stresu":"mmHg","stnrlo":null,"stnrhi":null,"nrind":null,"pos":null,"loc":null,"dtc":"2024-08-25","dy":"109","visit":"WEEK 16","visitnum":"6.0","epoch":"TREATMENT"},{"seq":"35","testcd":"HEIGHT","test":"Height","cat":null,"orres":"147.8","orresu":"cm","stresc":"147.8","stresn":"147.8","stresu":"cm","stnrlo":null,"stnrhi":null,"nrind":null,"pos":null,"loc":null,"dtc":"2024-08-25","dy":"109","visit":"WEEK 16","visitnum":"6.0","epoch":"TREATMENT"},{"seq":"36","testcd":"PULSE","test":"Pulse Rate","cat":null,"orres":"88.3","orresu":"beats/min","stresc":"88.3","stresn":"88.3","stresu":"beats/min","stnrlo":null,"stnrhi":null,"nrind":null,"pos":null,"loc":null,"dtc":"2024-08-25","dy":"109","visit":"WEEK 16","visitnum":"6.0","epoch":"TREATMENT"},{"seq":"37","testcd":"RESP","test":"Respiratory Rate","cat":null,"orres":"16.8","orresu":"breaths/min","stresc":"16.8","stresn":"16.8","stresu":"breaths/min","stnrlo":null,"stnrhi":null,"nrind":null,"pos":null,"loc":null,"dtc":"2024-08-25","dy":"109","visit":"WEEK 16","visitnum":"6.0","epoch":"TREATMENT"},{"seq":"38","testcd":"SYSBP","test":"Systolic Blood Pressure","cat":null,"orres":"154.9","orresu":"mmHg","stresc":"154.9","stresn":"154.9","stresu":"mmHg","stnrlo":null,"stnrhi":null,"nrind":null,"pos":null,"loc":null,"dtc":"2024-08-25","dy":"109","visit":"WEEK 16","visitnum":"6.0","epoch":"TREATMENT"},{"seq":"39","testcd":"TEMP","test":"Temperature","cat":null,"orres":"36.5","orresu":"C","stresc":"36.5","stresn":"36.5","stresu":"C","stnrlo":null,"stnrhi":null,"nrind":null,"pos":null,"loc":null,"dtc":"2024-08-25","dy":"109","visit":"WEEK 16","visitnum":"6.0","epoch":"TREATMENT"},{"seq":"40","testcd":"WEIGHT","test":"Weight","cat":null,"orres":"56.3","orresu":"kg","stresc":"56.3","stresn":"56.3","stresu":"kg","stnrlo":null,"stnrhi":null,"nrind":null,"pos":null,"loc":null,"dtc":"2024-08-25","dy":"109","visit":"WEEK 16","visitnum":"6.0","epoch":"TREATMENT"}]},"section_10_questionnaires_and_scores":{"questionnaires":[],"findings_about":[]},"section_11_protocol_deviations":{"deviations":[{"seq":"1","term":"Dose modified from 15.0 to 2.5 mg","decod":"DOSE MODIFICATION","cat":"MINOR","scat":"DOSING","start_dtc":"2024-05-09","end_dtc":null,"visit":null},{"seq":"2","term":"Dose modified from 15.0 to 2.5 mg","decod":"DOSE MODIFICATION","cat":"MINOR","scat":"DOSING","start_dtc":"2024-05-23","end_dtc":null,"visit":null},{"seq":"3","term":"Visit WEEK 4 occurred 0 days late (Day 29 vs planned Day 29)","decod":"VISIT OCCURRED OUTSIDE VISIT WINDOW","cat":"MINOR","scat":"VISIT WINDOW","start_dtc":"2024-06-06","end_dtc":null,"visit":null},{"seq":"4","term":"Dose modified from 15.0 to 5.0 mg","decod":"DOSE MODIFICATION","cat":"MINOR","scat":"DOSING","start_dtc":"2024-06-06","end_dtc":null,"visit":null},{"seq":"5","term":"Dose modified from 15.0 to 5.0 mg","decod":"DOSE MODIFICATION","cat":"MINOR","scat":"DOSING","start_dtc":"2024-06-27","end_dtc":null,"visit":null},{"seq":"6","term":"Dose modified from 15.0 to 10.0 mg","decod":"DOSE MODIFICATION","cat":"MINOR","scat":"DOSING","start_dtc":"2024-08-01","end_dtc":null,"visit":null},{"seq":"7","term":"Dose modified from 15.0 to 10.0 mg","decod":"DOSE MODIFICATION","cat":"MINOR","scat":"DOSING","start_dtc":"2024-08-08","end_dtc":null,"visit":null},{"seq":"8","term":"Dose modified from 15.0 to 12.5 mg","decod":"DOSE MODIFICATION","cat":"MINOR","scat":"DOSING","start_dtc":"2024-08-29","end_dtc":null,"visit":null}],"total":8},"section_12_disposition":{"completion_status":"INFORMED CONSENT OBTAINED","disposition_records":[{"seq":"1","term":"INFORMED CONSENT OBTAINED","decod":"INFORMED CONSENT OBTAINED","cat":"PROTOCOL MILESTONE","scat":null,"dtc":"2024-04-08","dy":null,"visit":null,"epoch":"SCREENING"},{"seq":"2","term":"RANDOMIZED","decod":"RANDOMIZED","cat":"PROTOCOL MILESTONE","scat":null,"dtc":"2024-05-09","dy":null,"visit":null,"epoch":"TREATMENT"},{"seq":"3","term":"ADVERSE EVENT","decod":"ADVERSE EVENT","cat":"DISPOSITION EVENT","scat":null,"dtc":"2024-08-31","dy":null,"visit":null,"epoch":"TREATMENT"}],"death":null},"section_13_hospitalizations":{"items":[{"seq":"1","term":"Lipase increased","decod":"Lipase increased","cat":"EMERGENCY ROOM VISIT","start_dtc":"2024-07-31","end_dtc":"2024-08-09","epoch":"TREATMENT"},{"seq":"2","term":"Diarrhoea","decod":"Diarrhoea","cat":"EMERGENCY ROOM VISIT","start_dtc":"2024-08-06","end_dtc":"2024-08-14","epoch":"TREATMENT"},{"seq":"3","term":"Hypoglycaemia","decod":"Hypoglycaemia","cat":"HOSPITALIZATION","start_dtc":"2024-08-31","end_dtc":"2024-08-31","epoch":"TREATMENT"}],"total":3},"section_14_substance_use":{"items":[{"seq":"1","substance":"BEER/WINE/SPIRITS","decod":"ETHANOL","cat":"ALCOHOL","scat":null,"usage":"N","dose":null,"dosu":null,"freq":null,"start_dtc":null,"end_dtc":null},{"seq":"2","substance":"COFFEE","decod":"COFFEE","cat":"CAFFEINE","scat":null,"usage":"Y","dose":"4.0","dosu":"CUPS/DAY","freq":"QD","start_dtc":"2002-04-14","end_dtc":null},{"seq":"3","substance":"CIGARETTES","decod":"CIGARETTES","cat":"TOBACCO","scat":null,"usage":"Y","dose":null,"dosu":null,"freq":null,"start_dtc":"2019-04-10","end_dtc":"2021-04-09"}],"total":3},"section_15_subject_status":{"items":[{"seq":"1","testcd":"SURVSTAT","test":"Survival Status","orres":"ALIVE","stresc":"ALIVE","dtc":"2024-08-31","visit":null,"epoch":"FOLLOW-UP"}],"total":1}}