{"subject_id":"I8F-JE-GPGO-SURPASS-JPN_HIROSHIMA01-0019","study_id":"I8F-JE-GPGO-SURPASS","generated_at":"2026-07-07T06:16:05.316481+00:00","sdtmig_version":"3.4","flags":{"has_serious_ae":true,"has_fatal_ae":false,"has_protocol_deviation":true,"n_protocol_deviations":18,"n_adverse_events":17,"n_concomitant_meds":9,"max_ae_severity":"SEVERE","screen_failure":false,"discontinued_early":false,"discontinuation_reason":null,"death":false,"exposure_days":357},"timeline":[{"dtc":"2019-04-15","dy":"-1858","event":"CM START: ROSUVASTATIN","domain":"CM","category":"concomitant_med"},{"dtc":"2024-04-13","dy":"-33","event":"INFORMED CONSENT OBTAINED","domain":"DS","category":"milestone"},{"dtc":"2024-04-13","dy":"-33","event":"VISIT: SCREENING","domain":"SV","category":"visit"},{"dtc":"2024-05-16","dy":"1","event":"RANDOMIZED","domain":"DS","category":"milestone"},{"dtc":"2024-05-16","dy":"1","event":"FIRST DOSE: TIRZEPATIDE","domain":"EX","category":"exposure"},{"dtc":"2024-05-16","dy":"1","event":"VISIT: BASELINE","domain":"SV","category":"visit"},{"dtc":"2024-05-23","dy":"8","event":"DEVIATION: DOSE MODIFICATION","domain":"DV","category":"deviation"},{"dtc":"2024-05-24","dy":"9","event":"AE: Diarrhoea (MODERATE)","domain":"AE","category":"adverse_event"},{"dtc":"2024-05-30","dy":"15","event":"DEVIATION: MISSED DOSE","domain":"DV","category":"deviation"},{"dtc":"2024-06-06","dy":"22","event":"DEVIATION: DOSE MODIFICATION","domain":"DV","category":"deviation"},{"dtc":"2024-06-16","dy":"32","event":"VISIT: WEEK 4","domain":"SV","category":"visit"},{"dtc":"2024-06-20","dy":"36","event":"DEVIATION: DOSE MODIFICATION","domain":"DV","category":"deviation"},{"dtc":"2024-06-22","dy":"38","event":"AE: Nausea (MILD)","domain":"AE","category":"adverse_event"},{"dtc":"2024-06-27","dy":"43","event":"DEVIATION: MISSED DOSE","domain":"DV","category":"deviation"},{"dtc":"2024-07-13","dy":"59","event":"VISIT: WEEK 8","domain":"SV","category":"visit"},{"dtc":"2024-07-18","dy":"64","event":"AE: Injection site reaction (MODERATE)","domain":"AE","category":"adverse_event"},{"dtc":"2024-07-18","dy":"64","event":"CM START: HYDROCORTISONE CREAM","domain":"CM","category":"concomitant_med"},{"dtc":"2024-07-20","dy":"66","event":"AE: Dyspepsia (MODERATE)","domain":"AE","category":"adverse_event"},{"dtc":"2024-07-20","dy":"66","event":"CM START: FAMOTIDINE","domain":"CM","category":"concomitant_med"},{"dtc":"2024-07-25","dy":"71","event":"DEVIATION: DOSE MODIFICATION","domain":"DV","category":"deviation"},{"dtc":"2024-08-01","dy":"78","event":"DEVIATION: MISSED DOSE","domain":"DV","category":"deviation"},{"dtc":"2024-08-08","dy":"85","event":"DEVIATION: DOSE MODIFICATION","domain":"DV","category":"deviation"},{"dtc":"2024-08-10","dy":"87","event":"VISIT: WEEK 12","domain":"SV","category":"visit"},{"dtc":"2024-08-22","dy":"99","event":"DEVIATION: MISSED DOSE","domain":"DV","category":"deviation"},{"dtc":"2024-08-28","dy":"105","event":"AE: Diarrhoea (MILD)","domain":"AE","category":"adverse_event"},{"dtc":"2024-08-28","dy":"105","event":"CM START: LOPERAMIDE","domain":"CM","category":"concomitant_med"},{"dtc":"2024-09-07","dy":"115","event":"VISIT: WEEK 16","domain":"SV","category":"visit"},{"dtc":"2024-09-15","dy":"123","event":"AE: Vomiting (MILD)","domain":"AE","category":"adverse_event"},{"dtc":"2024-09-16","dy":"124","event":"AE: Decreased appetite (MILD)","domain":"AE","category":"adverse_event"},{"dtc":"2024-09-16","dy":"124","event":"CM START: MEGESTROL","domain":"CM","category":"concomitant_med"},{"dtc":"2024-10-03","dy":"141","event":"DEVIATION: MISSED DOSE","domain":"DV","category":"deviation"},{"dtc":"2024-10-05","dy":"143","event":"VISIT: WEEK 20","domain":"SV","category":"visit"},{"dtc":"2024-11-04","dy":"173","event":"DEVIATION: MISSED ASSESSMENT","domain":"DV","category":"deviation"},{"dtc":"2024-11-04","dy":"173","event":"VISIT: WEEK 24","domain":"SV","category":"visit"},{"dtc":"2024-11-05","dy":"174","event":"AE: Diarrhoea (MILD)","domain":"AE","category":"adverse_event"},{"dtc":"2024-11-15","dy":"184","event":"AE: Injection site reaction (MILD)","domain":"AE","category":"adverse_event"},{"dtc":"2024-11-15","dy":"184","event":"CM START: HYDROCORTISONE CREAM","domain":"CM","category":"concomitant_med"},{"dtc":"2024-11-21","dy":"190","event":"AE: Nausea (SEVERE) [SERIOUS]","domain":"AE","category":"adverse_event"},{"dtc":"2024-11-21","dy":"190","event":"CM START: METOCLOPRAMIDE","domain":"CM","category":"concomitant_med"},{"dtc":"2024-12-02","dy":"201","event":"AE: Decreased appetite (MILD)","domain":"AE","category":"adverse_event"},{"dtc":"2024-12-19","dy":"218","event":"DEVIATION: MISSED DOSE","domain":"DV","category":"deviation"},{"dtc":"2024-12-26","dy":"225","event":"VISIT: WEEK 32","domain":"SV","category":"visit"},{"dtc":"2025-01-02","dy":"232","event":"AE: Diarrhoea (MODERATE)","domain":"AE","category":"adverse_event"},{"dtc":"2025-01-02","dy":"232","event":"DEVIATION: MISSED DOSE","domain":"DV","category":"deviation"},{"dtc":"2025-01-09","dy":"239","event":"DEVIATION: MISSED DOSE","domain":"DV","category":"deviation"},{"dtc":"2025-02-13","dy":"274","event":"DEVIATION: VISIT OCCURRED OUTSIDE VISIT WINDOW","domain":"DV","category":"deviation"},{"dtc":"2025-02-13","dy":"274","event":"VISIT: WEEK 40","domain":"SV","category":"visit"},{"dtc":"2025-02-18","dy":"279","event":"AE: Constipation (SEVERE) [SERIOUS]","domain":"AE","category":"adverse_event"},{"dtc":"2025-02-18","dy":"279","event":"CM START: POLYETHYLENE GLYCOL","domain":"CM","category":"concomitant_med"},{"dtc":"2025-03-06","dy":"295","event":"DEVIATION: MISSED DOSE","domain":"DV","category":"deviation"},{"dtc":"2025-03-07","dy":"296","event":"AE: Hypoglycaemia (MILD)","domain":"AE","category":"adverse_event"},{"dtc":"2025-03-16","dy":"305","event":"AE: Flatulence (MILD)","domain":"AE","category":"adverse_event"},{"dtc":"2025-03-20","dy":"309","event":"DEVIATION: MISSED DOSE","domain":"DV","category":"deviation"},{"dtc":"2025-03-30","dy":"319","event":"AE: Lipase increased (MILD)","domain":"AE","category":"adverse_event"},{"dtc":"2025-03-30","dy":"319","event":"CM START: PARACETAMOL","domain":"CM","category":"concomitant_med"},{"dtc":"2025-05-06","dy":"356","event":"AE: Fatigue (MILD)","domain":"AE","category":"adverse_event"},{"dtc":"2025-05-08","dy":"358","event":"LAST DOSE: TIRZEPATIDE","domain":"EX","category":"exposure"},{"dtc":"2025-05-15","dy":"365","event":"VISIT: WEEK 52 EOT","domain":"SV","category":"visit"},{"dtc":"2025-06-06","dy":"387","event":"DEVIATION: VISIT OCCURRED OUTSIDE VISIT WINDOW","domain":"DV","category":"deviation"},{"dtc":"2025-06-06","dy":"387","event":"VISIT: WEEK 56 SAFETY FU","domain":"SV","category":"visit"},{"dtc":"2025-07-09","dy":"420","event":"COMPLETED","domain":"DS","category":"milestone"}],"section_1_demographics":{"usubjid":"I8F-JE-GPGO-SURPASS-JPN_HIROSHIMA01-0019","subjid":"0019","siteid":"JPN_HIROSHIMA01","age":"52","ageu":"YEARS","sex":"M","race":"ASIAN","ethnicity":"NOT HISPANIC OR LATINO","country":"JPN","arm":"Tirzepatide 15 mg QW SC (target)","armcd":"TIRZ_15","actarm":"Tirzepatide 15 mg QW SC (target)","actarmcd":"TIRZ_15","randomization_date":null,"informed_consent_date":"2024-04-13","reference_start_date":"2024-05-16","reference_end_date":"2025-07-09","screen_failure":false,"death_flag":null,"death_date":null,"subject_characteristics":[{"testcd":"ALCUSE","test":"Alcohol Use","orres":"CURRENT DRINKER","stresc":"CURRENT DRINKER","visit":null,"dtc":"2024-04-13"},{"testcd":"BMI","test":"Body Mass Index","orres":"25.8","stresc":"25.8","visit":null,"dtc":"2024-04-13"},{"testcd":"DURDIS","test":"Duration of Disease","orres":"60 months","stresc":"60","visit":null,"dtc":"2024-04-13"},{"testcd":"TOBUSE","test":"Tobacco Use","orres":"NEVER SMOKED","stresc":"NEVER SMOKED","visit":null,"dtc":"2024-04-13"}]},"section_2_medical_history":{"items":[{"seq":"1","term":"HYPERLIPIDEMIA","decod":"HYPERLIPIDEMIA","cat":"METABOLIC","scat":null,"presp":null,"occur":null,"status":null,"onset_dtc":"2019-04-15","end_dtc":null,"visit":null},{"seq":"2","term":"HYPERTENSION","decod":"HYPERTENSION","cat":"CARDIOVASCULAR","scat":null,"presp":null,"occur":null,"status":null,"onset_dtc":"2021-04-14","end_dtc":"2022-03-28","visit":null}]},"section_3_inclusion_exclusion":{"criteria":[]},"section_4_trial_participation":{"visits":[{"visitnum":"1.0","visit":"SCREENING","start_dtc":"2024-04-13","end_dtc":"2024-04-13","updes":null},{"visitnum":"2.0","visit":"BASELINE","start_dtc":"2024-05-16","end_dtc":"2024-05-16","updes":null},{"visitnum":"3.0","visit":"WEEK 4","start_dtc":"2024-06-16","end_dtc":"2024-06-16","updes":null},{"visitnum":"4.0","visit":"WEEK 8","start_dtc":"2024-07-13","end_dtc":"2024-07-13","updes":null},{"visitnum":"5.0","visit":"WEEK 12","start_dtc":"2024-08-10","end_dtc":"2024-08-10","updes":null},{"visitnum":"6.0","visit":"WEEK 16","start_dtc":"2024-09-07","end_dtc":"2024-09-07","updes":null},{"visitnum":"7.0","visit":"WEEK 20","start_dtc":"2024-10-05","end_dtc":"2024-10-05","updes":null},{"visitnum":"8.0","visit":"WEEK 24","start_dtc":"2024-11-04","end_dtc":"2024-11-04","updes":null},{"visitnum":"9.0","visit":"WEEK 32","start_dtc":"2024-12-26","end_dtc":"2024-12-26","updes":null},{"visitnum":"10.0","visit":"WEEK 40","start_dtc":"2025-02-13","end_dtc":"2025-02-13","updes":null},{"visitnum":"11.0","visit":"WEEK 52 EOT","start_dtc":"2025-05-15","end_dtc":"2025-05-15","updes":null},{"visitnum":"12.0","visit":"WEEK 56 SAFETY FU","start_dtc":"2025-06-06","end_dtc":"2025-06-06","updes":null}],"epochs":[{"seq":"1","etcd":"SCRN","element":"Screening","start_dtc":"2024-04-18","end_dtc":"2024-05-16","updes":null},{"seq":"2","etcd":"TRT","element":"Treatment","start_dtc":"2024-05-16","end_dtc":"2025-05-15","updes":null},{"seq":"3","etcd":"FU","element":"Safety follow-up","start_dtc":"2025-05-15","end_dtc":"2025-06-11","updes":null}],"visit_count":12},"section_5_concomitant_medications":{"medications":[{"seq":"1","trt":"ROSUVASTATIN","decod":"ROSUVASTATIN","cat":"PRIOR","dose":"10","doseu":null,"dosef":"QD","route":"ORAL","indication":"HYPERLIPIDEMIA","start_dtc":"2019-04-15","end_dtc":"2025-07-09","ongoing":null,"visit":null},{"seq":"2","trt":"HYDROCORTISONE CREAM","decod":"HYDROCORTISONE CREAM","cat":"CONCOMITANT","dose":"1","doseu":null,"dosef":"BID","route":"TOPICAL","indication":"INJECTION SITE REACTION","start_dtc":"2024-07-18","end_dtc":"2024-08-06","ongoing":null,"visit":null},{"seq":"3","trt":"FAMOTIDINE","decod":"FAMOTIDINE","cat":"CONCOMITANT","dose":"20.0","doseu":null,"dosef":"BID","route":"ORAL","indication":"DYSPEPSIA","start_dtc":"2024-07-20","end_dtc":"2024-08-11","ongoing":null,"visit":null},{"seq":"4","trt":"LOPERAMIDE","decod":"LOPERAMIDE","cat":"CONCOMITANT","dose":"2","doseu":null,"dosef":"PRN","route":"ORAL","indication":"DIARRHOEA","start_dtc":"2024-08-28","end_dtc":"2024-09-04","ongoing":null,"visit":null},{"seq":"5","trt":"MEGESTROL","decod":"MEGESTROL","cat":"CONCOMITANT","dose":"400.0","doseu":null,"dosef":"QD","route":"ORAL","indication":"DECREASED APPETITE","start_dtc":"2024-09-16","end_dtc":"2024-10-09","ongoing":null,"visit":null},{"seq":"6","trt":"HYDROCORTISONE CREAM","decod":"HYDROCORTISONE CREAM","cat":"CONCOMITANT","dose":"1","doseu":null,"dosef":"BID","route":"TOPICAL","indication":"INJECTION SITE REACTION","start_dtc":"2024-11-15","end_dtc":"2024-11-28","ongoing":null,"visit":null},{"seq":"7","trt":"METOCLOPRAMIDE","decod":"METOCLOPRAMIDE","cat":"CONCOMITANT","dose":"10","doseu":null,"dosef":"TID","route":"ORAL","indication":"NAUSEA","start_dtc":"2024-11-21","end_dtc":"2024-12-18","ongoing":null,"visit":null},{"seq":"8","trt":"POLYETHYLENE GLYCOL","decod":"POLYETHYLENE GLYCOL","cat":"CONCOMITANT","dose":"17","doseu":null,"dosef":"QD","route":"ORAL","indication":"CONSTIPATION","start_dtc":"2025-02-18","end_dtc":"2025-03-11","ongoing":null,"visit":null},{"seq":"9","trt":"PARACETAMOL","decod":"PARACETAMOL","cat":"CONCOMITANT","dose":"500","doseu":null,"dosef":"PRN","route":"ORAL","indication":"LIPASE INCREASED","start_dtc":"2025-03-30","end_dtc":"2025-04-28","ongoing":null,"visit":null}]},"section_6_exposure":{"exposure_as_administered":[{"seq":"1","trt":"TIRZEPATIDE","dose":"2.5","doseu":null,"dosef":"QW","route":"SUBCUTANEOUS","lot":null,"start_dtc":"2024-05-16","end_dtc":"2024-05-16","start_dy":"1","end_dy":"1","epoch":"TREATMENT","visit":null},{"seq":"2","trt":"TIRZEPATIDE","dose":"2.5","doseu":null,"dosef":"QW","route":"SUBCUTANEOUS","lot":null,"start_dtc":"2024-05-23","end_dtc":"2024-05-23","start_dy":"8","end_dy":"8","epoch":"TREATMENT","visit":null},{"seq":"3","trt":"TIRZEPATIDE","dose":"2.5","doseu":null,"dosef":"QW","route":"SUBCUTANEOUS","lot":null,"start_dtc":"2024-06-06","end_dtc":"2024-06-06","start_dy":"22","end_dy":"22","epoch":"TREATMENT","visit":null},{"seq":"4","trt":"TIRZEPATIDE","dose":"5.0","doseu":null,"dosef":"QW","route":"SUBCUTANEOUS","lot":null,"start_dtc":"2024-06-13","end_dtc":"2024-06-13","start_dy":"29","end_dy":"29","epoch":"TREATMENT","visit":null},{"seq":"5","trt":"TIRZEPATIDE","dose":"5.0","doseu":null,"dosef":"QW","route":"SUBCUTANEOUS","lot":null,"start_dtc":"2024-06-20","end_dtc":"2024-06-20","start_dy":"36","end_dy":"36","epoch":"TREATMENT","visit":null},{"seq":"6","trt":"TIRZEPATIDE","dose":"5.0","doseu":null,"dosef":"QW","route":"SUBCUTANEOUS","lot":null,"start_dtc":"2024-07-04","end_dtc":"2024-07-04","start_dy":"50","end_dy":"50","epoch":"TREATMENT","visit":null},{"seq":"7","trt":"TIRZEPATIDE","dose":"7.5","doseu":null,"dosef":"QW","route":"SUBCUTANEOUS","lot":null,"start_dtc":"2024-07-11","end_dtc":"2024-07-11","start_dy":"57","end_dy":"57","epoch":"TREATMENT","visit":null},{"seq":"8","trt":"TIRZEPATIDE","dose":"7.5","doseu":null,"dosef":"QW","route":"SUBCUTANEOUS","lot":null,"start_dtc":"2024-07-18","end_dtc":"2024-07-18","start_dy":"64","end_dy":"64","epoch":"TREATMENT","visit":null},{"seq":"9","trt":"TIRZEPATIDE","dose":"7.5","doseu":null,"dosef":"QW","route":"SUBCUTANEOUS","lot":null,"start_dtc":"2024-07-25","end_dtc":"2024-07-25","start_dy":"71","end_dy":"71","epoch":"TREATMENT","visit":null},{"seq":"10","trt":"TIRZEPATIDE","dose":"10.0","doseu":null,"dosef":"QW","route":"SUBCUTANEOUS","lot":null,"start_dtc":"2024-08-08","end_dtc":"2024-08-08","start_dy":"85","end_dy":"85","epoch":"TREATMENT","visit":null},{"seq":"11","trt":"TIRZEPATIDE","dose":"10.0","doseu":null,"dosef":"QW","route":"SUBCUTANEOUS","lot":null,"start_dtc":"2024-08-15","end_dtc":"2024-08-15","start_dy":"92","end_dy":"92","epoch":"TREATMENT","visit":null},{"seq":"12","trt":"TIRZEPATIDE","dose":"10.0","doseu":null,"dosef":"QW","route":"SUBCUTANEOUS","lot":null,"start_dtc":"2024-08-29","end_dtc":"2024-08-29","start_dy":"106","end_dy":"106","epoch":"TREATMENT","visit":null},{"seq":"13","trt":"TIRZEPATIDE","dose":"12.5","doseu":null,"dosef":"QW","route":"SUBCUTANEOUS","lot":null,"start_dtc":"2024-09-05","end_dtc":"2024-09-05","start_dy":"113","end_dy":"113","epoch":"TREATMENT","visit":null},{"seq":"14","trt":"TIRZEPATIDE","dose":"12.5","doseu":null,"dosef":"QW","route":"SUBCUTANEOUS","lot":null,"start_dtc":"2024-09-12","end_dtc":"2024-09-12","start_dy":"120","end_dy":"120","epoch":"TREATMENT","visit":null},{"seq":"15","trt":"TIRZEPATIDE","dose":"12.5","doseu":null,"dosef":"QW","route":"SUBCUTANEOUS","lot":null,"start_dtc":"2024-09-19","end_dtc":"2024-09-19","start_dy":"127","end_dy":"127","epoch":"TREATMENT","visit":null},{"seq":"16","trt":"TIRZEPATIDE","dose":"12.5","doseu":null,"dosef":"QW","route":"SUBCUTANEOUS","lot":null,"start_dtc":"2024-09-26","end_dtc":"2024-09-26","start_dy":"134","end_dy":"134","epoch":"TREATMENT","visit":null},{"seq":"17","trt":"TIRZEPATIDE","dose":"15.0","doseu":null,"dosef":"QW","route":"SUBCUTANEOUS","lot":null,"start_dtc":"2024-10-10","end_dtc":"2024-10-10","start_dy":"148","end_dy":"148","epoch":"TREATMENT","visit":null},{"seq":"18","trt":"TIRZEPATIDE","dose":"15.0","doseu":null,"dosef":"QW","route":"SUBCUTANEOUS","lot":null,"start_dtc":"2024-10-17","end_dtc":"2024-10-17","start_dy":"155","end_dy":"155","epoch":"TREATMENT","visit":null},{"seq":"19","trt":"TIRZEPATIDE","dose":"15.0","doseu":null,"dosef":"QW","route":"SUBCUTANEOUS","lot":null,"start_dtc":"2024-10-24","end_dtc":"2024-10-24","start_dy":"162","end_dy":"162","epoch":"TREATMENT","visit":null},{"seq":"20","trt":"TIRZEPATIDE","dose":"15.0","doseu":null,"dosef":"QW","route":"SUBCUTANEOUS","lot":null,"start_dtc":"2024-10-31","end_dtc":"2024-10-31","start_dy":"169","end_dy":"169","epoch":"TREATMENT","visit":null},{"seq":"21","trt":"TIRZEPATIDE","dose":"15.0","doseu":null,"dosef":"QW","route":"SUBCUTANEOUS","lot":null,"start_dtc":"2024-11-07","end_dtc":"2024-11-07","start_dy":"176","end_dy":"176","epoch":"TREATMENT","visit":null},{"seq":"22","trt":"TIRZEPATIDE","dose":"15.0","doseu":null,"dosef":"QW","route":"SUBCUTANEOUS","lot":null,"start_dtc":"2024-11-14","end_dtc":"2024-11-14","start_dy":"183","end_dy":"183","epoch":"TREATMENT","visit":null},{"seq":"23","trt":"TIRZEPATIDE","dose":"15.0","doseu":null,"dosef":"QW","route":"SUBCUTANEOUS","lot":null,"start_dtc":"2024-11-21","end_dtc":"2024-11-21","start_dy":"190","end_dy":"190","epoch":"TREATMENT","visit":null},{"seq":"24","trt":"TIRZEPATIDE","dose":"15.0","doseu":null,"dosef":"QW","route":"SUBCUTANEOUS","lot":null,"start_dtc":"2024-11-28","end_dtc":"2024-11-28","start_dy":"197","end_dy":"197","epoch":"TREATMENT","visit":null},{"seq":"25","trt":"TIRZEPATIDE","dose":"15.0","doseu":null,"dosef":"QW","route":"SUBCUTANEOUS","lot":null,"start_dtc":"2024-12-05","end_dtc":"2024-12-05","start_dy":"204","end_dy":"204","epoch":"TREATMENT","visit":null},{"seq":"26","trt":"TIRZEPATIDE","dose":"15.0","doseu":null,"dosef":"QW","route":"SUBCUTANEOUS","lot":null,"start_dtc":"2024-12-12","end_dtc":"2024-12-12","start_dy":"211","end_dy":"211","epoch":"TREATMENT","visit":null},{"seq":"27","trt":"TIRZEPATIDE","dose":"15.0","doseu":null,"dosef":"QW","route":"SUBCUTANEOUS","lot":null,"start_dtc":"2024-12-26","end_dtc":"2024-12-26","start_dy":"225","end_dy":"225","epoch":"TREATMENT","visit":null},{"seq":"28","trt":"TIRZEPATIDE","dose":"15.0","doseu":null,"dosef":"QW","route":"SUBCUTANEOUS","lot":null,"start_dtc":"2025-01-16","end_dtc":"2025-01-16","start_dy":"246","end_dy":"246","epoch":"TREATMENT","visit":null},{"seq":"29","trt":"TIRZEPATIDE","dose":"15.0","doseu":null,"dosef":"QW","route":"SUBCUTANEOUS","lot":null,"start_dtc":"2025-01-23","end_dtc":"2025-01-23","start_dy":"253","end_dy":"253","epoch":"TREATMENT","visit":null},{"seq":"30","trt":"TIRZEPATIDE","dose":"15.0","doseu":null,"dosef":"QW","route":"SUBCUTANEOUS","lot":null,"start_dtc":"2025-01-30","end_dtc":"2025-01-30","start_dy":"260","end_dy":"260","epoch":"TREATMENT","visit":null},{"seq":"31","trt":"TIRZEPATIDE","dose":"15.0","doseu":null,"dosef":"QW","route":"SUBCUTANEOUS","lot":null,"start_dtc":"2025-02-06","end_dtc":"2025-02-06","start_dy":"267","end_dy":"267","epoch":"TREATMENT","visit":null},{"seq":"32","trt":"TIRZEPATIDE","dose":"15.0","doseu":null,"dosef":"QW","route":"SUBCUTANEOUS","lot":null,"start_dtc":"2025-02-13","end_dtc":"2025-02-13","start_dy":"274","end_dy":"274","epoch":"TREATMENT","visit":null},{"seq":"33","trt":"TIRZEPATIDE","dose":"15.0","doseu":null,"dosef":"QW","route":"SUBCUTANEOUS","lot":null,"start_dtc":"2025-02-20","end_dtc":"2025-02-20","start_dy":"281","end_dy":"281","epoch":"TREATMENT","visit":null},{"seq":"34","trt":"TIRZEPATIDE","dose":"15.0","doseu":null,"dosef":"QW","route":"SUBCUTANEOUS","lot":null,"start_dtc":"2025-02-27","end_dtc":"2025-02-27","start_dy":"288","end_dy":"288","epoch":"TREATMENT","visit":null},{"seq":"35","trt":"TIRZEPATIDE","dose":"15.0","doseu":null,"dosef":"QW","route":"SUBCUTANEOUS","lot":null,"start_dtc":"2025-03-13","end_dtc":"2025-03-13","start_dy":"302","end_dy":"302","epoch":"TREATMENT","visit":null},{"seq":"36","trt":"TIRZEPATIDE","dose":"15.0","doseu":null,"dosef":"QW","route":"SUBCUTANEOUS","lot":null,"start_dtc":"2025-03-27","end_dtc":"2025-03-27","start_dy":"316","end_dy":"316","epoch":"TREATMENT","visit":null},{"seq":"37","trt":"TIRZEPATIDE","dose":"15.0","doseu":null,"dosef":"QW","route":"SUBCUTANEOUS","lot":null,"start_dtc":"2025-04-03","end_dtc":"2025-04-03","start_dy":"323","end_dy":"323","epoch":"TREATMENT","visit":null},{"seq":"38","trt":"TIRZEPATIDE","dose":"15.0","doseu":null,"dosef":"QW","route":"SUBCUTANEOUS","lot":null,"start_dtc":"2025-04-10","end_dtc":"2025-04-10","start_dy":"330","end_dy":"330","epoch":"TREATMENT","visit":null},{"seq":"39","trt":"TIRZEPATIDE","dose":"15.0","doseu":null,"dosef":"QW","route":"SUBCUTANEOUS","lot":null,"start_dtc":"2025-04-17","end_dtc":"2025-04-17","start_dy":"337","end_dy":"337","epoch":"TREATMENT","visit":null},{"seq":"40","trt":"TIRZEPATIDE","dose":"15.0","doseu":null,"dosef":"QW","route":"SUBCUTANEOUS","lot":null,"start_dtc":"2025-04-24","end_dtc":"2025-04-24","start_dy":"344","end_dy":"344","epoch":"TREATMENT","visit":null},{"seq":"41","trt":"TIRZEPATIDE","dose":"15.0","doseu":null,"dosef":"QW","route":"SUBCUTANEOUS","lot":null,"start_dtc":"2025-05-01","end_dtc":"2025-05-01","start_dy":"351","end_dy":"351","epoch":"TREATMENT","visit":null},{"seq":"42","trt":"TIRZEPATIDE","dose":"15.0","doseu":null,"dosef":"QW","route":"SUBCUTANEOUS","lot":null,"start_dtc":"2025-05-08","end_dtc":"2025-05-08","start_dy":"358","end_dy":"358","epoch":"TREATMENT","visit":null}],"exposure_as_collected":[{"seq":"1","trt":"TIRZEPATIDE","dose":"2.5","doseu":null,"dosef":"QW","route":"SUBCUTANEOUS","start_dtc":"2024-05-16","end_dtc":"2024-05-16","visit":"BASELINE"},{"seq":"2","trt":"TIRZEPATIDE","dose":"2.5","doseu":null,"dosef":"QW","route":"SUBCUTANEOUS","start_dtc":"2024-05-23","end_dtc":"2024-05-23","visit":null},{"seq":"3","trt":"TIRZEPATIDE","dose":null,"doseu":null,"dosef":"QW","route":"SUBCUTANEOUS","start_dtc":"2024-05-30","end_dtc":"2024-05-30","visit":null},{"seq":"4","trt":"TIRZEPATIDE","dose":"2.5","doseu":null,"dosef":"QW","route":"SUBCUTANEOUS","start_dtc":"2024-06-06","end_dtc":"2024-06-06","visit":null},{"seq":"5","trt":"TIRZEPATIDE","dose":"5.0","doseu":null,"dosef":"QW","route":"SUBCUTANEOUS","start_dtc":"2024-06-13","end_dtc":"2024-06-13","visit":"WEEK 4"},{"seq":"6","trt":"TIRZEPATIDE","dose":"5.0","doseu":null,"dosef":"QW","route":"SUBCUTANEOUS","start_dtc":"2024-06-20","end_dtc":"2024-06-20","visit":null},{"seq":"7","trt":"TIRZEPATIDE","dose":null,"doseu":null,"dosef":"QW","route":"SUBCUTANEOUS","start_dtc":"2024-06-27","end_dtc":"2024-06-27","visit":null},{"seq":"8","trt":"TIRZEPATIDE","dose":"5.0","doseu":null,"dosef":"QW","route":"SUBCUTANEOUS","start_dtc":"2024-07-04","end_dtc":"2024-07-04","visit":null},{"seq":"9","trt":"TIRZEPATIDE","dose":"7.5","doseu":null,"dosef":"QW","route":"SUBCUTANEOUS","start_dtc":"2024-07-11","end_dtc":"2024-07-11","visit":"WEEK 8"},{"seq":"10","trt":"TIRZEPATIDE","dose":"7.5","doseu":null,"dosef":"QW","route":"SUBCUTANEOUS","start_dtc":"2024-07-18","end_dtc":"2024-07-18","visit":null},{"seq":"11","trt":"TIRZEPATIDE","dose":"7.5","doseu":null,"dosef":"QW","route":"SUBCUTANEOUS","start_dtc":"2024-07-25","end_dtc":"2024-07-25","visit":null},{"seq":"12","trt":"TIRZEPATIDE","dose":null,"doseu":null,"dosef":"QW","route":"SUBCUTANEOUS","start_dtc":"2024-08-01","end_dtc":"2024-08-01","visit":null},{"seq":"13","trt":"TIRZEPATIDE","dose":"10.0","doseu":null,"dosef":"QW","route":"SUBCUTANEOUS","start_dtc":"2024-08-08","end_dtc":"2024-08-08","visit":"WEEK 12"},{"seq":"14","trt":"TIRZEPATIDE","dose":"10.0","doseu":null,"dosef":"QW","route":"SUBCUTANEOUS","start_dtc":"2024-08-15","end_dtc":"2024-08-15","visit":null},{"seq":"15","trt":"TIRZEPATIDE","dose":null,"doseu":null,"dosef":"QW","route":"SUBCUTANEOUS","start_dtc":"2024-08-22","end_dtc":"2024-08-22","visit":null},{"seq":"16","trt":"TIRZEPATIDE","dose":"10.0","doseu":null,"dosef":"QW","route":"SUBCUTANEOUS","start_dtc":"2024-08-29","end_dtc":"2024-08-29","visit":null},{"seq":"17","trt":"TIRZEPATIDE","dose":"12.5","doseu":null,"dosef":"QW","route":"SUBCUTANEOUS","start_dtc":"2024-09-05","end_dtc":"2024-09-05","visit":"WEEK 16"},{"seq":"18","trt":"TIRZEPATIDE","dose":"12.5","doseu":null,"dosef":"QW","route":"SUBCUTANEOUS","start_dtc":"2024-09-12","end_dtc":"2024-09-12","visit":null},{"seq":"19","trt":"TIRZEPATIDE","dose":"12.5","doseu":null,"dosef":"QW","route":"SUBCUTANEOUS","start_dtc":"2024-09-19","end_dtc":"2024-09-19","visit":null},{"seq":"20","trt":"TIRZEPATIDE","dose":"12.5","doseu":null,"dosef":"QW","route":"SUBCUTANEOUS","start_dtc":"2024-09-26","end_dtc":"2024-09-26","visit":null},{"seq":"21","trt":"TIRZEPATIDE","dose":null,"doseu":null,"dosef":"QW","route":"SUBCUTANEOUS","start_dtc":"2024-10-03","end_dtc":"2024-10-03","visit":"WEEK 20"},{"seq":"22","trt":"TIRZEPATIDE","dose":"15.0","doseu":null,"dosef":"QW","route":"SUBCUTANEOUS","start_dtc":"2024-10-10","end_dtc":"2024-10-10","visit":null},{"seq":"23","trt":"TIRZEPATIDE","dose":"15.0","doseu":null,"dosef":"QW","route":"SUBCUTANEOUS","start_dtc":"2024-10-17","end_dtc":"2024-10-17","visit":null},{"seq":"24","trt":"TIRZEPATIDE","dose":"15.0","doseu":null,"dosef":"QW","route":"SUBCUTANEOUS","start_dtc":"2024-10-24","end_dtc":"2024-10-24","visit":null},{"seq":"25","trt":"TIRZEPATIDE","dose":"15.0","doseu":null,"dosef":"QW","route":"SUBCUTANEOUS","start_dtc":"2024-10-31","end_dtc":"2024-10-31","visit":"WEEK 24"},{"seq":"26","trt":"TIRZEPATIDE","dose":"15.0","doseu":null,"dosef":"QW","route":"SUBCUTANEOUS","start_dtc":"2024-11-07","end_dtc":"2024-11-07","visit":null},{"seq":"27","trt":"TIRZEPATIDE","dose":"15.0","doseu":null,"dosef":"QW","route":"SUBCUTANEOUS","start_dtc":"2024-11-14","end_dtc":"2024-11-14","visit":null},{"seq":"28","trt":"TIRZEPATIDE","dose":"15.0","doseu":null,"dosef":"QW","route":"SUBCUTANEOUS","start_dtc":"2024-11-21","end_dtc":"2024-11-21","visit":null},{"seq":"29","trt":"TIRZEPATIDE","dose":"15.0","doseu":null,"dosef":"QW","route":"SUBCUTANEOUS","start_dtc":"2024-11-28","end_dtc":"2024-11-28","visit":null},{"seq":"30","trt":"TIRZEPATIDE","dose":"15.0","doseu":null,"dosef":"QW","route":"SUBCUTANEOUS","start_dtc":"2024-12-05","end_dtc":"2024-12-05","visit":null},{"seq":"31","trt":"TIRZEPATIDE","dose":"15.0","doseu":null,"dosef":"QW","route":"SUBCUTANEOUS","start_dtc":"2024-12-12","end_dtc":"2024-12-12","visit":null},{"seq":"32","trt":"TIRZEPATIDE","dose":null,"doseu":null,"dosef":"QW","route":"SUBCUTANEOUS","start_dtc":"2024-12-19","end_dtc":"2024-12-19","visit":null},{"seq":"33","trt":"TIRZEPATIDE","dose":"15.0","doseu":null,"dosef":"QW","route":"SUBCUTANEOUS","start_dtc":"2024-12-26","end_dtc":"2024-12-26","visit":"WEEK 32"},{"seq":"34","trt":"TIRZEPATIDE","dose":null,"doseu":null,"dosef":"QW","route":"SUBCUTANEOUS","start_dtc":"2025-01-02","end_dtc":"2025-01-02","visit":null},{"seq":"35","trt":"TIRZEPATIDE","dose":null,"doseu":null,"dosef":"QW","route":"SUBCUTANEOUS","start_dtc":"2025-01-09","end_dtc":"2025-01-09","visit":null},{"seq":"36","trt":"TIRZEPATIDE","dose":"15.0","doseu":null,"dosef":"QW","route":"SUBCUTANEOUS","start_dtc":"2025-01-16","end_dtc":"2025-01-16","visit":null},{"seq":"37","trt":"TIRZEPATIDE","dose":"15.0","doseu":null,"dosef":"QW","route":"SUBCUTANEOUS","start_dtc":"2025-01-23","end_dtc":"2025-01-23","visit":null},{"seq":"38","trt":"TIRZEPATIDE","dose":"15.0","doseu":null,"dosef":"QW","route":"SUBCUTANEOUS","start_dtc":"2025-01-30","end_dtc":"2025-01-30","visit":null},{"seq":"39","trt":"TIRZEPATIDE","dose":"15.0","doseu":null,"dosef":"QW","route":"SUBCUTANEOUS","start_dtc":"2025-02-06","end_dtc":"2025-02-06","visit":null},{"seq":"40","trt":"TIRZEPATIDE","dose":"15.0","doseu":null,"dosef":"QW","route":"SUBCUTANEOUS","start_dtc":"2025-02-13","end_dtc":"2025-02-13","visit":null},{"seq":"41","trt":"TIRZEPATIDE","dose":"15.0","doseu":null,"dosef":"QW","route":"SUBCUTANEOUS","start_dtc":"2025-02-20","end_dtc":"2025-02-20","visit":"WEEK 40"},{"seq":"42","trt":"TIRZEPATIDE","dose":"15.0","doseu":null,"dosef":"QW","route":"SUBCUTANEOUS","start_dtc":"2025-02-27","end_dtc":"2025-02-27","visit":null},{"seq":"43","trt":"TIRZEPATIDE","dose":null,"doseu":null,"dosef":"QW","route":"SUBCUTANEOUS","start_dtc":"2025-03-06","end_dtc":"2025-03-06","visit":null},{"seq":"44","trt":"TIRZEPATIDE","dose":"15.0","doseu":null,"dosef":"QW","route":"SUBCUTANEOUS","start_dtc":"2025-03-13","end_dtc":"2025-03-13","visit":null},{"seq":"45","trt":"TIRZEPATIDE","dose":null,"doseu":null,"dosef":"QW","route":"SUBCUTANEOUS","start_dtc":"2025-03-20","end_dtc":"2025-03-20","visit":null},{"seq":"46","trt":"TIRZEPATIDE","dose":"15.0","doseu":null,"dosef":"QW","route":"SUBCUTANEOUS","start_dtc":"2025-03-27","end_dtc":"2025-03-27","visit":null},{"seq":"47","trt":"TIRZEPATIDE","dose":"15.0","doseu":null,"dosef":"QW","route":"SUBCUTANEOUS","start_dtc":"2025-04-03","end_dtc":"2025-04-03","visit":null},{"seq":"48","trt":"TIRZEPATIDE","dose":"15.0","doseu":null,"dosef":"QW","route":"SUBCUTANEOUS","start_dtc":"2025-04-10","end_dtc":"2025-04-10","visit":null},{"seq":"49","trt":"TIRZEPATIDE","dose":"15.0","doseu":null,"dosef":"QW","route":"SUBCUTANEOUS","start_dtc":"2025-04-17","end_dtc":"2025-04-17","visit":null},{"seq":"50","trt":"TIRZEPATIDE","dose":"15.0","doseu":null,"dosef":"QW","route":"SUBCUTANEOUS","start_dtc":"2025-04-24","end_dtc":"2025-04-24","visit":null},{"seq":"51","trt":"TIRZEPATIDE","dose":"15.0","doseu":null,"dosef":"QW","route":"SUBCUTANEOUS","start_dtc":"2025-05-01","end_dtc":"2025-05-01","visit":null},{"seq":"52","trt":"TIRZEPATIDE","dose":"15.0","doseu":null,"dosef":"QW","route":"SUBCUTANEOUS","start_dtc":"2025-05-08","end_dtc":"2025-05-08","visit":null}]},"section_7_adverse_events":{"summary":{"total_aes":17,"serious_aes":2,"fatal_aes":0,"by_severity":{"MODERATE":4,"MILD":11,"SEVERE":2},"by_soc":{"Gastrointestinal disorders":10,"General disorders and administration site conditions":3,"Metabolism and nutrition disorders":3,"Investigations":1}},"events":[{"seq":"1","term":"DIARRHOEA","decod":"Diarrhoea","llt":"Diarrhoea","hlt":"Diarrhoea (excl infective)","hlgt":"Gastrointestinal motility and defaecation conditions","soc":"Gastrointestinal disorders","bodsys":"Gastrointestinal disorders","severity":"MODERATE","serious":"N","causality":"POSSIBLY RELATED","action_taken":"DRUG INTERRUPTED","outcome":"RECOVERED/RESOLVED","fatal":"N","hospitalization":"N","life_threatening":"N","onset_dtc":"2024-05-24","end_dtc":"2024-05-29","onset_dy":"9","end_dy":"14","duration":null,"epoch":"TREATMENT","visit":null,"supplemental":{"AETRTEM":"Y"}},{"seq":"2","term":"NAUSEA","decod":"Nausea","llt":"Nausea","hlt":"Nausea and vomiting symptoms","hlgt":"Gastrointestinal signs and symptoms","soc":"Gastrointestinal disorders","bodsys":"Gastrointestinal disorders","severity":"MILD","serious":"N","causality":"NOT RELATED","action_taken":"DOSE NOT CHANGED","outcome":"RECOVERED/RESOLVED","fatal":"N","hospitalization":"N","life_threatening":"N","onset_dtc":"2024-06-22","end_dtc":"2024-06-25","onset_dy":"38","end_dy":"41","duration":null,"epoch":"TREATMENT","visit":null,"supplemental":{"AETRTEM":"Y"}},{"seq":"3","term":"INJECTION SITE REACTION","decod":"Injection site reaction","llt":"Injection site reaction","hlt":"Injection site reactions","hlgt":"Administration site reactions","soc":"General disorders and administration site conditions","bodsys":"General disorders and administration site conditions","severity":"MODERATE","serious":"N","causality":"NOT RELATED","action_taken":"DOSE NOT CHANGED","outcome":"RECOVERED/RESOLVED","fatal":"N","hospitalization":"N","life_threatening":"N","onset_dtc":"2024-07-18","end_dtc":"2024-08-02","onset_dy":"64","end_dy":"79","duration":null,"epoch":"TREATMENT","visit":null,"supplemental":{"AETRTEM":"Y"}},{"seq":"4","term":"DYSPEPSIA","decod":"Dyspepsia","llt":"Dyspepsia","hlt":"Dyspeptic signs and symptoms","hlgt":"Gastrointestinal signs and symptoms","soc":"Gastrointestinal disorders","bodsys":"Gastrointestinal disorders","severity":"MODERATE","serious":"N","causality":"NOT RELATED","action_taken":"DOSE NOT CHANGED","outcome":"RECOVERED/RESOLVED","fatal":"N","hospitalization":"N","life_threatening":"N","onset_dtc":"2024-07-20","end_dtc":"2024-07-27","onset_dy":"66","end_dy":"73","duration":null,"epoch":"TREATMENT","visit":null,"supplemental":{"AETRTEM":"Y"}},{"seq":"5","term":"DIARRHOEA","decod":"Diarrhoea","llt":"Diarrhoea","hlt":"Diarrhoea (excl infective)","hlgt":"Gastrointestinal motility and defaecation conditions","soc":"Gastrointestinal disorders","bodsys":"Gastrointestinal disorders","severity":"MILD","serious":"N","causality":"NOT RELATED","action_taken":"DOSE NOT CHANGED","outcome":"RECOVERED/RESOLVED","fatal":"N","hospitalization":"N","life_threatening":"N","onset_dtc":"2024-08-28","end_dtc":"2024-08-30","onset_dy":"105","end_dy":"107","duration":null,"epoch":"TREATMENT","visit":null,"supplemental":{"AETRTEM":"Y"}},{"seq":"6","term":"VOMITING","decod":"Vomiting","llt":"Vomiting","hlt":"Nausea and vomiting symptoms","hlgt":"Gastrointestinal signs and symptoms","soc":"Gastrointestinal disorders","bodsys":"Gastrointestinal disorders","severity":"MILD","serious":"N","causality":"UNLIKELY RELATED","action_taken":"DOSE NOT CHANGED","outcome":"RECOVERING/RESOLVING","fatal":"N","hospitalization":"N","life_threatening":"N","onset_dtc":"2024-09-15","end_dtc":"2024-09-17","onset_dy":"123","end_dy":"125","duration":null,"epoch":"TREATMENT","visit":null,"supplemental":{"AETRTEM":"Y"}},{"seq":"7","term":"DECREASED APPETITE","decod":"Decreased appetite","llt":"Decreased appetite","hlt":"Appetite disorders","hlgt":"Eating disorders and disturbances","soc":"Metabolism and nutrition disorders","bodsys":"Metabolism and nutrition disorders","severity":"MILD","serious":"N","causality":"NOT RELATED","action_taken":"DOSE NOT CHANGED","outcome":"RECOVERING/RESOLVING","fatal":"N","hospitalization":"N","life_threatening":"N","onset_dtc":"2024-09-16","end_dtc":"2024-09-26","onset_dy":"124","end_dy":"134","duration":null,"epoch":"TREATMENT","visit":null,"supplemental":{"AETRTEM":"Y"}},{"seq":"8","term":"DIARRHOEA","decod":"Diarrhoea","llt":"Diarrhoea","hlt":"Diarrhoea (excl infective)","hlgt":"Gastrointestinal motility and defaecation conditions","soc":"Gastrointestinal disorders","bodsys":"Gastrointestinal disorders","severity":"MILD","serious":"N","causality":"UNLIKELY RELATED","action_taken":"DOSE NOT CHANGED","outcome":"RECOVERED/RESOLVED","fatal":"N","hospitalization":"N","life_threatening":"N","onset_dtc":"2024-11-05","end_dtc":"2024-11-06","onset_dy":"174","end_dy":"175","duration":null,"epoch":"TREATMENT","visit":null,"supplemental":{"AETRTEM":"Y"}},{"seq":"9","term":"INJECTION SITE REACTION","decod":"Injection site reaction","llt":"Injection site reaction","hlt":"Injection site reactions","hlgt":"Administration site reactions","soc":"General disorders and administration site conditions","bodsys":"General disorders and administration site conditions","severity":"MILD","serious":"N","causality":"RELATED","action_taken":"DOSE NOT CHANGED","outcome":"RECOVERING/RESOLVING","fatal":"N","hospitalization":"N","life_threatening":"N","onset_dtc":"2024-11-15","end_dtc":"2024-11-29","onset_dy":"184","end_dy":"198","duration":null,"epoch":"TREATMENT","visit":null,"supplemental":{"AETRTEM":"Y"}},{"seq":"10","term":"NAUSEA","decod":"Nausea","llt":"Nausea","hlt":"Nausea and vomiting symptoms","hlgt":"Gastrointestinal signs and symptoms","soc":"Gastrointestinal disorders","bodsys":"Gastrointestinal disorders","severity":"SEVERE","serious":"Y","causality":"UNLIKELY RELATED","action_taken":"DOSE NOT CHANGED","outcome":"RECOVERED/RESOLVED","fatal":"N","hospitalization":"Y","life_threatening":"N","onset_dtc":"2024-11-21","end_dtc":"2024-11-29","onset_dy":"190","end_dy":"198","duration":null,"epoch":"TREATMENT","visit":null,"supplemental":{"AETRTEM":"Y"}},{"seq":"11","term":"DECREASED APPETITE","decod":"Decreased appetite","llt":"Decreased appetite","hlt":"Appetite disorders","hlgt":"Eating disorders and disturbances","soc":"Metabolism and nutrition disorders","bodsys":"Metabolism and nutrition disorders","severity":"MILD","serious":"N","causality":"UNLIKELY RELATED","action_taken":"DOSE NOT CHANGED","outcome":"RECOVERED/RESOLVED","fatal":"N","hospitalization":"N","life_threatening":"N","onset_dtc":"2024-12-02","end_dtc":"2024-12-13","onset_dy":"201","end_dy":"212","duration":null,"epoch":"TREATMENT","visit":null,"supplemental":{"AETRTEM":"Y"}},{"seq":"12","term":"DIARRHOEA","decod":"Diarrhoea","llt":"Diarrhoea","hlt":"Diarrhoea (excl infective)","hlgt":"Gastrointestinal motility and defaecation conditions","soc":"Gastrointestinal disorders","bodsys":"Gastrointestinal disorders","severity":"MODERATE","serious":"N","causality":"NOT RELATED","action_taken":"DOSE NOT CHANGED","outcome":"RECOVERED/RESOLVED","fatal":"N","hospitalization":"N","life_threatening":"N","onset_dtc":"2025-01-02","end_dtc":"2025-01-15","onset_dy":"232","end_dy":"245","duration":null,"epoch":"TREATMENT","visit":null,"supplemental":{"AETRTEM":"Y"}},{"seq":"13","term":"CONSTIPATION","decod":"Constipation","llt":"Constipation","hlt":"Gastrointestinal motility and defaecation conditions NEC","hlgt":"Gastrointestinal motility and defaecation conditions","soc":"Gastrointestinal disorders","bodsys":"Gastrointestinal disorders","severity":"SEVERE","serious":"Y","causality":"NOT RELATED","action_taken":"DOSE NOT CHANGED","outcome":"RECOVERING/RESOLVING","fatal":"N","hospitalization":"Y","life_threatening":"N","onset_dtc":"2025-02-18","end_dtc":"2025-03-12","onset_dy":"279","end_dy":"301","duration":null,"epoch":"TREATMENT","visit":null,"supplemental":{"AETRTEM":"Y"}},{"seq":"14","term":"HYPOGLYCAEMIA","decod":"Hypoglycaemia","llt":"Hypoglycaemia","hlt":"Hypoglycaemic conditions NEC","hlgt":"Glucose metabolism disorders (incl diabetes mellitus)","soc":"Metabolism and nutrition disorders","bodsys":"Metabolism and nutrition disorders","severity":"MILD","serious":"N","causality":"NOT RELATED","action_taken":"DOSE NOT CHANGED","outcome":"RECOVERING/RESOLVING","fatal":"N","hospitalization":"N","life_threatening":"N","onset_dtc":"2025-03-07","end_dtc":"2025-03-08","onset_dy":"296","end_dy":"297","duration":null,"epoch":"TREATMENT","visit":null,"supplemental":{"AETRTEM":"Y"}},{"seq":"15","term":"FLATULENCE","decod":"Flatulence","llt":"Flatulence","hlt":"Flatulence, bloating and distension","hlgt":"Gastrointestinal signs and symptoms","soc":"Gastrointestinal disorders","bodsys":"Gastrointestinal disorders","severity":"MILD","serious":"N","causality":"NOT RELATED","action_taken":"DOSE NOT CHANGED","outcome":"RECOVERED/RESOLVED","fatal":"N","hospitalization":"N","life_threatening":"N","onset_dtc":"2025-03-16","end_dtc":"2025-03-19","onset_dy":"305","end_dy":"308","duration":null,"epoch":"TREATMENT","visit":null,"supplemental":{"AETRTEM":"Y"}},{"seq":"16","term":"LIPASE INCREASED","decod":"Lipase increased","llt":"Lipase increased","hlt":"Pancreatic enzymes","hlgt":"Gastrointestinal investigations","soc":"Investigations","bodsys":"Investigations","severity":"MILD","serious":"N","causality":"NOT RELATED","action_taken":"DOSE NOT CHANGED","outcome":"RECOVERED/RESOLVED","fatal":"N","hospitalization":"N","life_threatening":"N","onset_dtc":"2025-03-30","end_dtc":"2025-04-01","onset_dy":"319","end_dy":"321","duration":null,"epoch":"TREATMENT","visit":null,"supplemental":{"AETRTEM":"Y"}},{"seq":"17","term":"FATIGUE","decod":"Fatigue","llt":"Fatigue","hlt":"Asthenic conditions","hlgt":"General system disorders NEC","soc":"General disorders and administration site conditions","bodsys":"General disorders and administration site conditions","severity":"MILD","serious":"N","causality":"NOT RELATED","action_taken":"DOSE NOT CHANGED","outcome":"RECOVERED/RESOLVED","fatal":"N","hospitalization":"N","life_threatening":"N","onset_dtc":"2025-05-06","end_dtc":"2025-05-21","onset_dy":"356","end_dy":"371","duration":null,"epoch":"TREATMENT","visit":null,"supplemental":{"AETRTEM":"Y"}}]},"section_8_laboratory_results":{"summary":{"total_records":77,"abnormal_count":22,"abnormal_pct":28.6},"shift_summary":[{"testcd":"ALT","baseline_value":47.86,"baseline_nrind":"NORMAL","worst_post_baseline_value":51.36,"worst_post_baseline_nrind":"NORMAL","worst_visit":"WEEK 52 EOT"},{"testcd":"AST","baseline_value":16.31,"baseline_nrind":"NORMAL","worst_post_baseline_value":19.73,"worst_post_baseline_nrind":"NORMAL","worst_visit":"WEEK 56 SAFETY FU"},{"testcd":"CREAT","baseline_value":51.78,"baseline_nrind":"LOW","worst_post_baseline_value":55.74,"worst_post_baseline_nrind":"LOW","worst_visit":"WEEK 56 SAFETY FU"},{"testcd":"GLUC","baseline_value":8.75,"baseline_nrind":"HIGH","worst_post_baseline_value":8.76,"worst_post_baseline_nrind":"HIGH","worst_visit":"BASELINE"},{"testcd":"HGB","baseline_value":147.38,"baseline_nrind":"NORMAL","worst_post_baseline_value":145.27,"worst_post_baseline_nrind":"NORMAL","worst_visit":"WEEK 12"},{"testcd":"PLAT","baseline_value":262.33,"baseline_nrind":"NORMAL","worst_post_baseline_value":271.29,"worst_post_baseline_nrind":"NORMAL","worst_visit":"WEEK 8"},{"testcd":"WBC","baseline_value":5.6,"baseline_nrind":"NORMAL","worst_post_baseline_value":5.94,"worst_post_baseline_nrind":"NORMAL","worst_visit":"WEEK 56 SAFETY FU"}],"results":[{"seq":"1","testcd":"ALT","test":"Alanine Aminotransferase","cat":"CHEMISTRY","orres":"47.86","orresu":"U/L","stresc":"47.86","stresn":"47.86","stresu":"U/L","stnrlo":"7","stnrhi":"56","nrind":"NORMAL","fast":null,"dtc":"2024-04-13","dy":"-33","visit":"SCREENING","visitnum":"1.0","epoch":"SCREENING","spec":null,"method":null},{"seq":"2","testcd":"AST","test":"Aspartate Aminotransferase","cat":"CHEMISTRY","orres":"16.31","orresu":"U/L","stresc":"16.31","stresn":"16.31","stresu":"U/L","stnrlo":"10","stnrhi":"40","nrind":"NORMAL","fast":null,"dtc":"2024-04-13","dy":"-33","visit":"SCREENING","visitnum":"1.0","epoch":"SCREENING","spec":null,"method":null},{"seq":"3","testcd":"CREAT","test":"Creatinine","cat":"CHEMISTRY","orres":"51.78","orresu":"umol/L","stresc":"51.78","stresn":"51.78","stresu":"umol/L","stnrlo":"62","stnrhi":"106","nrind":"LOW","fast":null,"dtc":"2024-04-13","dy":"-33","visit":"SCREENING","visitnum":"1.0","epoch":"SCREENING","spec":null,"method":null},{"seq":"4","testcd":"GLUC","test":"Glucose","cat":"CHEMISTRY","orres":"8.75","orresu":"mmol/L","stresc":"8.75","stresn":"8.75","stresu":"mmol/L","stnrlo":"3.9","stnrhi":"5.6","nrind":"HIGH","fast":null,"dtc":"2024-04-13","dy":"-33","visit":"SCREENING","visitnum":"1.0","epoch":"SCREENING","spec":null,"method":null},{"seq":"5","testcd":"HGB","test":"Hemoglobin","cat":"HEMATOLOGY","orres":"147.38","orresu":"g/L","stresc":"147.38","stresn":"147.38","stresu":"g/L","stnrlo":"130","stnrhi":"175","nrind":"NORMAL","fast":null,"dtc":"2024-04-13","dy":"-33","visit":"SCREENING","visitnum":"1.0","epoch":"SCREENING","spec":null,"method":null},{"seq":"6","testcd":"PLAT","test":"Platelets","cat":"HEMATOLOGY","orres":"262.33","orresu":"10^9/L","stresc":"262.33","stresn":"262.33","stresu":"10^9/L","stnrlo":"150","stnrhi":"400","nrind":"NORMAL","fast":null,"dtc":"2024-04-13","dy":"-33","visit":"SCREENING","visitnum":"1.0","epoch":"SCREENING","spec":null,"method":null},{"seq":"7","testcd":"WBC","test":"Leukocytes","cat":"HEMATOLOGY","orres":"5.6","orresu":"10^9/L","stresc":"5.6","stresn":"5.6","stresu":"10^9/L","stnrlo":"4.0","stnrhi":"11.0","nrind":"NORMAL","fast":null,"dtc":"2024-04-13","dy":"-33","visit":"SCREENING","visitnum":"1.0","epoch":"SCREENING","spec":null,"method":null},{"seq":"8","testcd":"ALT","test":"Alanine Aminotransferase","cat":"CHEMISTRY","orres":"47.3","orresu":"U/L","stresc":"47.3","stresn":"47.3","stresu":"U/L","stnrlo":"7","stnrhi":"56","nrind":"NORMAL","fast":null,"dtc":"2024-05-16","dy":"1","visit":"BASELINE","visitnum":"2.0","epoch":"TREATMENT","spec":null,"method":null},{"seq":"9","testcd":"AST","test":"Aspartate Aminotransferase","cat":"CHEMISTRY","orres":"18.13","orresu":"U/L","stresc":"18.13","stresn":"18.13","stresu":"U/L","stnrlo":"10","stnrhi":"40","nrind":"NORMAL","fast":null,"dtc":"2024-05-16","dy":"1","visit":"BASELINE","visitnum":"2.0","epoch":"TREATMENT","spec":null,"method":null},{"seq":"10","testcd":"CREAT","test":"Creatinine","cat":"CHEMISTRY","orres":"53.81","orresu":"umol/L","stresc":"53.81","stresn":"53.81","stresu":"umol/L","stnrlo":"62","stnrhi":"106","nrind":"LOW","fast":null,"dtc":"2024-05-16","dy":"1","visit":"BASELINE","visitnum":"2.0","epoch":"TREATMENT","spec":null,"method":null},{"seq":"11","testcd":"GLUC","test":"Glucose","cat":"CHEMISTRY","orres":"8.76","orresu":"mmol/L","stresc":"8.76","stresn":"8.76","stresu":"mmol/L","stnrlo":"3.9","stnrhi":"5.6","nrind":"HIGH","fast":null,"dtc":"2024-05-16","dy":"1","visit":"BASELINE","visitnum":"2.0","epoch":"TREATMENT","spec":null,"method":null},{"seq":"12","testcd":"HGB","test":"Hemoglobin","cat":"HEMATOLOGY","orres":"147.68","orresu":"g/L","stresc":"147.68","stresn":"147.68","stresu":"g/L","stnrlo":"130","stnrhi":"175","nrind":"NORMAL","fast":null,"dtc":"2024-05-16","dy":"1","visit":"BASELINE","visitnum":"2.0","epoch":"TREATMENT","spec":null,"method":null},{"seq":"13","testcd":"PLAT","test":"Platelets","cat":"HEMATOLOGY","orres":"259.76","orresu":"10^9/L","stresc":"259.76","stresn":"259.76","stresu":"10^9/L","stnrlo":"150","stnrhi":"400","nrind":"NORMAL","fast":null,"dtc":"2024-05-16","dy":"1","visit":"BASELINE","visitnum":"2.0","epoch":"TREATMENT","spec":null,"method":null},{"seq":"14","testcd":"WBC","test":"Leukocytes","cat":"HEMATOLOGY","orres":"5.07","orresu":"10^9/L","stresc":"5.07","stresn":"5.07","stresu":"10^9/L","stnrlo":"4.0","stnrhi":"11.0","nrind":"NORMAL","fast":null,"dtc":"2024-05-16","dy":"1","visit":"BASELINE","visitnum":"2.0","epoch":"TREATMENT","spec":null,"method":null},{"seq":"15","testcd":"ALT","test":"Alanine Aminotransferase","cat":"CHEMISTRY","orres":"46.97","orresu":"U/L","stresc":"46.97","stresn":"46.97","stresu":"U/L","stnrlo":"7","stnrhi":"56","nrind":"NORMAL","fast":null,"dtc":"2024-06-16","dy":"32","visit":"WEEK 4","visitnum":"3.0","epoch":"TREATMENT","spec":null,"method":null},{"seq":"16","testcd":"AST","test":"Aspartate Aminotransferase","cat":"CHEMISTRY","orres":null,"orresu":null,"stresc":null,"stresn":null,"stresu":null,"stnrlo":null,"stnrhi":null,"nrind":null,"fast":null,"dtc":"2024-06-16","dy":"32","visit":"WEEK 4","visitnum":"3.0","epoch":"TREATMENT","spec":null,"method":null},{"seq":"17","testcd":"CREAT","test":"Creatinine","cat":"CHEMISTRY","orres":"54.96","orresu":"umol/L","stresc":"54.96","stresn":"54.96","stresu":"umol/L","stnrlo":"62","stnrhi":"106","nrind":"LOW","fast":null,"dtc":"2024-06-16","dy":"32","visit":"WEEK 4","visitnum":"3.0","epoch":"TREATMENT","spec":null,"method":null},{"seq":"18","testcd":"GLUC","test":"Glucose","cat":"CHEMISTRY","orres":"8.63","orresu":"mmol/L","stresc":"8.63","stresn":"8.63","stresu":"mmol/L","stnrlo":"3.9","stnrhi":"5.6","nrind":"HIGH","fast":null,"dtc":"2024-06-16","dy":"32","visit":"WEEK 4","visitnum":"3.0","epoch":"TREATMENT","spec":null,"method":null},{"seq":"19","testcd":"HGB","test":"Hemoglobin","cat":"HEMATOLOGY","orres":null,"orresu":null,"stresc":null,"stresn":null,"stresu":null,"stnrlo":null,"stnrhi":null,"nrind":null,"fast":null,"dtc":"2024-06-16","dy":"32","visit":"WEEK 4","visitnum":"3.0","epoch":"TREATMENT","spec":null,"method":null},{"seq":"20","testcd":"PLAT","test":"Platelets","cat":"HEMATOLOGY","orres":"256.23","orresu":"10^9/L","stresc":"256.23","stresn":"256.23","stresu":"10^9/L","stnrlo":"150","stnrhi":"400","nrind":"NORMAL","fast":null,"dtc":"2024-06-16","dy":"32","visit":"WEEK 4","visitnum":"3.0","epoch":"TREATMENT","spec":null,"method":null},{"seq":"21","testcd":"WBC","test":"Leukocytes","cat":"HEMATOLOGY","orres":"4.32","orresu":"10^9/L","stresc":"4.32","stresn":"4.32","stresu":"10^9/L","stnrlo":"4.0","stnrhi":"11.0","nrind":"NORMAL","fast":null,"dtc":"2024-06-16","dy":"32","visit":"WEEK 4","visitnum":"3.0","epoch":"TREATMENT","spec":null,"method":null},{"seq":"22","testcd":"ALT","test":"Alanine Aminotransferase","cat":"CHEMISTRY","orres":"45.36","orresu":"U/L","stresc":"45.36","stresn":"45.36","stresu":"U/L","stnrlo":"7","stnrhi":"56","nrind":"NORMAL","fast":null,"dtc":"2024-07-13","dy":"59","visit":"WEEK 8","visitnum":"4.0","epoch":"TREATMENT","spec":null,"method":null},{"seq":"23","testcd":"AST","test":"Aspartate Aminotransferase","cat":"CHEMISTRY","orres":"18.92","orresu":"U/L","stresc":"18.92","stresn":"18.92","stresu":"U/L","stnrlo":"10","stnrhi":"40","nrind":"NORMAL","fast":null,"dtc":"2024-07-13","dy":"59","visit":"WEEK 8","visitnum":"4.0","epoch":"TREATMENT","spec":null,"method":null},{"seq":"24","testcd":"CREAT","test":"Creatinine","cat":"CHEMISTRY","orres":"51.84","orresu":"umol/L","stresc":"51.84","stresn":"51.84","stresu":"umol/L","stnrlo":"62","stnrhi":"106","nrind":"LOW","fast":null,"dtc":"2024-07-13","dy":"59","visit":"WEEK 8","visitnum":"4.0","epoch":"TREATMENT","spec":null,"method":null},{"seq":"25","testcd":"GLUC","test":"Glucose","cat":"CHEMISTRY","orres":"8.55","orresu":"mmol/L","stresc":"8.55","stresn":"8.55","stresu":"mmol/L","stnrlo":"3.9","stnrhi":"5.6","nrind":"HIGH","fast":null,"dtc":"2024-07-13","dy":"59","visit":"WEEK 8","visitnum":"4.0","epoch":"TREATMENT","spec":null,"method":null},{"seq":"26","testcd":"HGB","test":"Hemoglobin","cat":"HEMATOLOGY","orres":"146.06","orresu":"g/L","stresc":"146.06","stresn":"146.06","stresu":"g/L","stnrlo":"130","stnrhi":"175","nrind":"NORMAL","fast":null,"dtc":"2024-07-13","dy":"59","visit":"WEEK 8","visitnum":"4.0","epoch":"TREATMENT","spec":null,"method":null},{"seq":"27","testcd":"PLAT","test":"Platelets","cat":"HEMATOLOGY","orres":"271.29","orresu":"10^9/L","stresc":"271.29","stresn":"271.29","stresu":"10^9/L","stnrlo":"150","stnrhi":"400","nrind":"NORMAL","fast":null,"dtc":"2024-07-13","dy":"59","visit":"WEEK 8","visitnum":"4.0","epoch":"TREATMENT","spec":null,"method":null},{"seq":"28","testcd":"WBC","test":"Leukocytes","cat":"HEMATOLOGY","orres":"4.34","orresu":"10^9/L","stresc":"4.34","stresn":"4.34","stresu":"10^9/L","stnrlo":"4.0","stnrhi":"11.0","nrind":"NORMAL","fast":null,"dtc":"2024-07-13","dy":"59","visit":"WEEK 8","visitnum":"4.0","epoch":"TREATMENT","spec":null,"method":null},{"seq":"29","testcd":"ALT","test":"Alanine Aminotransferase","cat":"CHEMISTRY","orres":"45.42","orresu":"U/L","stresc":"45.42","stresn":"45.42","stresu":"U/L","stnrlo":"7","stnrhi":"56","nrind":"NORMAL","fast":null,"dtc":"2024-08-10","dy":"87","visit":"WEEK 12","visitnum":"5.0","epoch":"TREATMENT","spec":null,"method":null},{"seq":"30","testcd":"AST","test":"Aspartate Aminotransferase","cat":"CHEMISTRY","orres":"18.64","orresu":"U/L","stresc":"18.64","stresn":"18.64","stresu":"U/L","stnrlo":"10","stnrhi":"40","nrind":"NORMAL","fast":null,"dtc":"2024-08-10","dy":"87","visit":"WEEK 12","visitnum":"5.0","epoch":"TREATMENT","spec":null,"method":null},{"seq":"31","testcd":"CREAT","test":"Creatinine","cat":"CHEMISTRY","orres":"54.91","orresu":"umol/L","stresc":"54.91","stresn":"54.91","stresu":"umol/L","stnrlo":"62","stnrhi":"106","nrind":"LOW","fast":null,"dtc":"2024-08-10","dy":"87","visit":"WEEK 12","visitnum":"5.0","epoch":"TREATMENT","spec":null,"method":null},{"seq":"32","testcd":"GLUC","test":"Glucose","cat":"CHEMISTRY","orres":"8.62","orresu":"mmol/L","stresc":"8.62","stresn":"8.62","stresu":"mmol/L","stnrlo":"3.9","stnrhi":"5.6","nrind":"HIGH","fast":null,"dtc":"2024-08-10","dy":"87","visit":"WEEK 12","visitnum":"5.0","epoch":"TREATMENT","spec":null,"method":null},{"seq":"33","testcd":"HGB","test":"Hemoglobin","cat":"HEMATOLOGY","orres":"145.27","orresu":"g/L","stresc":"145.27","stresn":"145.27","stresu":"g/L","stnrlo":"130","stnrhi":"175","nrind":"NORMAL","fast":null,"dtc":"2024-08-10","dy":"87","visit":"WEEK 12","visitnum":"5.0","epoch":"TREATMENT","spec":null,"method":null},{"seq":"34","testcd":"PLAT","test":"Platelets","cat":"HEMATOLOGY","orres":"262.28","orresu":"10^9/L","stresc":"262.28","stresn":"262.28","stresu":"10^9/L","stnrlo":"150","stnrhi":"400","nrind":"NORMAL","fast":null,"dtc":"2024-08-10","dy":"87","visit":"WEEK 12","visitnum":"5.0","epoch":"TREATMENT","spec":null,"method":null},{"seq":"35","testcd":"WBC","test":"Leukocytes","cat":"HEMATOLOGY","orres":"4.73","orresu":"10^9/L","stresc":"4.73","stresn":"4.73","stresu":"10^9/L","stnrlo":"4.0","stnrhi":"11.0","nrind":"NORMAL","fast":null,"dtc":"2024-08-10","dy":"87","visit":"WEEK 12","visitnum":"5.0","epoch":"TREATMENT","spec":null,"method":null},{"seq":"36","testcd":"ALT","test":"Alanine Aminotransferase","cat":"CHEMISTRY","orres":"45.81","orresu":"U/L","stresc":"45.81","stresn":"45.81","stresu":"U/L","stnrlo":"7","stnrhi":"56","nrind":"NORMAL","fast":null,"dtc":"2024-09-07","dy":"115","visit":"WEEK 16","visitnum":"6.0","epoch":"TREATMENT","spec":null,"method":null},{"seq":"37","testcd":"AST","test":"Aspartate Aminotransferase","cat":"CHEMISTRY","orres":"19.09","orresu":"U/L","stresc":"19.09","stresn":"19.09","stresu":"U/L","stnrlo":"10","stnrhi":"40","nrind":"NORMAL","fast":null,"dtc":"2024-09-07","dy":"115","visit":"WEEK 16","visitnum":"6.0","epoch":"TREATMENT","spec":null,"method":null},{"seq":"38","testcd":"CREAT","test":"Creatinine","cat":"CHEMISTRY","orres":"52.87","orresu":"umol/L","stresc":"52.87","stresn":"52.87","stresu":"umol/L","stnrlo":"62","stnrhi":"106","nrind":"LOW","fast":null,"dtc":"2024-09-07","dy":"115","visit":"WEEK 16","visitnum":"6.0","epoch":"TREATMENT","spec":null,"method":null},{"seq":"39","testcd":"GLUC","test":"Glucose","cat":"CHEMISTRY","orres":"8.64","orresu":"mmol/L","stresc":"8.64","stresn":"8.64","stresu":"mmol/L","stnrlo":"3.9","stnrhi":"5.6","nrind":"HIGH","fast":null,"dtc":"2024-09-07","dy":"115","visit":"WEEK 16","visitnum":"6.0","epoch":"TREATMENT","spec":null,"method":null},{"seq":"40","testcd":"HGB","test":"Hemoglobin","cat":"HEMATOLOGY","orres":"147.5","orresu":"g/L","stresc":"147.5","stresn":"147.5","stresu":"g/L","stnrlo":"130","stnrhi":"175","nrind":"NORMAL","fast":null,"dtc":"2024-09-07","dy":"115","visit":"WEEK 16","visitnum":"6.0","epoch":"TREATMENT","spec":null,"method":null},{"seq":"41","testcd":"PLAT","test":"Platelets","cat":"HEMATOLOGY","orres":"266.67","orresu":"10^9/L","stresc":"266.67","stresn":"266.67","stresu":"10^9/L","stnrlo":"150","stnrhi":"400","nrind":"NORMAL","fast":null,"dtc":"2024-09-07","dy":"115","visit":"WEEK 16","visitnum":"6.0","epoch":"TREATMENT","spec":null,"method":null},{"seq":"42","testcd":"WBC","test":"Leukocytes","cat":"HEMATOLOGY","orres":"5.42","orresu":"10^9/L","stresc":"5.42","stresn":"5.42","stresu":"10^9/L","stnrlo":"4.0","stnrhi":"11.0","nrind":"NORMAL","fast":null,"dtc":"2024-09-07","dy":"115","visit":"WEEK 16","visitnum":"6.0","epoch":"TREATMENT","spec":null,"method":null},{"seq":"43","testcd":"ALT","test":"Alanine Aminotransferase","cat":"CHEMISTRY","orres":"47.7","orresu":"U/L","stresc":"47.7","stresn":"47.7","stresu":"U/L","stnrlo":"7","stnrhi":"56","nrind":"NORMAL","fast":null,"dtc":"2024-10-05","dy":"143","visit":"WEEK 20","visitnum":"7.0","epoch":"TREATMENT","spec":null,"method":null},{"seq":"44","testcd":"AST","test":"Aspartate Aminotransferase","cat":"CHEMISTRY","orres":"18.22","orresu":"U/L","stresc":"18.22","stresn":"18.22","stresu":"U/L","stnrlo":"10","stnrhi":"40","nrind":"NORMAL","fast":null,"dtc":"2024-10-05","dy":"143","visit":"WEEK 20","visitnum":"7.0","epoch":"TREATMENT","spec":null,"method":null},{"seq":"45","testcd":"CREAT","test":"Creatinine","cat":"CHEMISTRY","orres":"49.9","orresu":"umol/L","stresc":"49.9","stresn":"49.9","stresu":"umol/L","stnrlo":"62","stnrhi":"106","nrind":"LOW","fast":null,"dtc":"2024-10-05","dy":"143","visit":"WEEK 20","visitnum":"7.0","epoch":"TREATMENT","spec":null,"method":null},{"seq":"46","testcd":"GLUC","test":"Glucose","cat":"CHEMISTRY","orres":"8.57","orresu":"mmol/L","stresc":"8.57","stresn":"8.57","stresu":"mmol/L","stnrlo":"3.9","stnrhi":"5.6","nrind":"HIGH","fast":null,"dtc":"2024-10-05","dy":"143","visit":"WEEK 20","visitnum":"7.0","epoch":"TREATMENT","spec":null,"method":null},{"seq":"47","testcd":"HGB","test":"Hemoglobin","cat":"HEMATOLOGY","orres":"146.61","orresu":"g/L","stresc":"146.61","stresn":"146.61","stresu":"g/L","stnrlo":"130","stnrhi":"175","nrind":"NORMAL","fast":null,"dtc":"2024-10-05","dy":"143","visit":"WEEK 20","visitnum":"7.0","epoch":"TREATMENT","spec":null,"method":null},{"seq":"48","testcd":"PLAT","test":"Platelets","cat":"HEMATOLOGY","orres":null,"orresu":null,"stresc":null,"stresn":null,"stresu":null,"stnrlo":null,"stnrhi":null,"nrind":null,"fast":null,"dtc":"2024-10-05","dy":"143","visit":"WEEK 20","visitnum":"7.0","epoch":"TREATMENT","spec":null,"method":null},{"seq":"49","testcd":"WBC","test":"Leukocytes","cat":"HEMATOLOGY","orres":"5.58","orresu":"10^9/L","stresc":"5.58","stresn":"5.58","stresu":"10^9/L","stnrlo":"4.0","stnrhi":"11.0","nrind":"NORMAL","fast":null,"dtc":"2024-10-05","dy":"143","visit":"WEEK 20","visitnum":"7.0","epoch":"TREATMENT","spec":null,"method":null},{"seq":"50","testcd":"ALT","test":"Alanine Aminotransferase","cat":"CHEMISTRY","orres":"48.02","orresu":"U/L","stresc":"48.02","stresn":"48.02","stresu":"U/L","stnrlo":"7","stnrhi":"56","nrind":"NORMAL","fast":null,"dtc":"2024-11-04","dy":"173","visit":"WEEK 24","visitnum":"8.0","epoch":"TREATMENT","spec":null,"method":null},{"seq":"51","testcd":"AST","test":"Aspartate Aminotransferase","cat":"CHEMISTRY","orres":"18.95","orresu":"U/L","stresc":"18.95","stresn":"18.95","stresu":"U/L","stnrlo":"10","stnrhi":"40","nrind":"NORMAL","fast":null,"dtc":"2024-11-04","dy":"173","visit":"WEEK 24","visitnum":"8.0","epoch":"TREATMENT","spec":null,"method":null},{"seq":"52","testcd":"CREAT","test":"Creatinine","cat":"CHEMISTRY","orres":"51.46","orresu":"umol/L","stresc":"51.46","stresn":"51.46","stresu":"umol/L","stnrlo":"62","stnrhi":"106","nrind":"LOW","fast":null,"dtc":"2024-11-04","dy":"173","visit":"WEEK 24","visitnum":"8.0","epoch":"TREATMENT","spec":null,"method":null},{"seq":"53","testcd":"GLUC","test":"Glucose","cat":"CHEMISTRY","orres":"8.38","orresu":"mmol/L","stresc":"8.38","stresn":"8.38","stresu":"mmol/L","stnrlo":"3.9","stnrhi":"5.6","nrind":"HIGH","fast":null,"dtc":"2024-11-04","dy":"173","visit":"WEEK 24","visitnum":"8.0","epoch":"TREATMENT","spec":null,"method":null},{"seq":"54","testcd":"HGB","test":"Hemoglobin","cat":"HEMATOLOGY","orres":"146.62","orresu":"g/L","stresc":"146.62","stresn":"146.62","stresu":"g/L","stnrlo":"130","stnrhi":"175","nrind":"NORMAL","fast":null,"dtc":"2024-11-04","dy":"173","visit":"WEEK 24","visitnum":"8.0","epoch":"TREATMENT","spec":null,"method":null},{"seq":"55","testcd":"PLAT","test":"Platelets","cat":"HEMATOLOGY","orres":"257.68","orresu":"10^9/L","stresc":"257.68","stresn":"257.68","stresu":"10^9/L","stnrlo":"150","stnrhi":"400","nrind":"NORMAL","fast":null,"dtc":"2024-11-04","dy":"173","visit":"WEEK 24","visitnum":"8.0","epoch":"TREATMENT","spec":null,"method":null},{"seq":"56","testcd":"WBC","test":"Leukocytes","cat":"HEMATOLOGY","orres":null,"orresu":null,"stresc":null,"stresn":null,"stresu":null,"stnrlo":null,"stnrhi":null,"nrind":null,"fast":null,"dtc":"2024-11-04","dy":"173","visit":"WEEK 24","visitnum":"8.0","epoch":"TREATMENT","spec":null,"method":null},{"seq":"57","testcd":"ALT","test":"Alanine Aminotransferase","cat":"CHEMISTRY","orres":"50.91","orresu":"U/L","stresc":"50.91","stresn":"50.91","stresu":"U/L","stnrlo":"7","stnrhi":"56","nrind":"NORMAL","fast":null,"dtc":"2024-12-26","dy":"225","visit":"WEEK 32","visitnum":"9.0","epoch":"TREATMENT","spec":null,"method":null},{"seq":"58","testcd":"AST","test":"Aspartate Aminotransferase","cat":"CHEMISTRY","orres":"17.58","orresu":"U/L","stresc":"17.58","stresn":"17.58","stresu":"U/L","stnrlo":"10","stnrhi":"40","nrind":"NORMAL","fast":null,"dtc":"2024-12-26","dy":"225","visit":"WEEK 32","visitnum":"9.0","epoch":"TREATMENT","spec":null,"method":null},{"seq":"59","testcd":"CREAT","test":"Creatinine","cat":"CHEMISTRY","orres":"52.75","orresu":"umol/L","stresc":"52.75","stresn":"52.75","stresu":"umol/L","stnrlo":"62","stnrhi":"106","nrind":"LOW","fast":null,"dtc":"2024-12-26","dy":"225","visit":"WEEK 32","visitnum":"9.0","epoch":"TREATMENT","spec":null,"method":null},{"seq":"60","testcd":"GLUC","test":"Glucose","cat":"CHEMISTRY","orres":"8.41","orresu":"mmol/L","stresc":"8.41","stresn":"8.41","stresu":"mmol/L","stnrlo":"3.9","stnrhi":"5.6","nrind":"HIGH","fast":null,"dtc":"2024-12-26","dy":"225","visit":"WEEK 32","visitnum":"9.0","epoch":"TREATMENT","spec":null,"method":null},{"seq":"61","testcd":"HGB","test":"Hemoglobin","cat":"HEMATOLOGY","orres":"147.16","orresu":"g/L","stresc":"147.16","stresn":"147.16","stresu":"g/L","stnrlo":"130","stnrhi":"175","nrind":"NORMAL","fast":null,"dtc":"2024-12-26","dy":"225","visit":"WEEK 32","visitnum":"9.0","epoch":"TREATMENT","spec":null,"method":null},{"seq":"62","testcd":"PLAT","test":"Platelets","cat":"HEMATOLOGY","orres":"252.22","orresu":"10^9/L","stresc":"252.22","stresn":"252.22","stresu":"10^9/L","stnrlo":"150","stnrhi":"400","nrind":"NORMAL","fast":null,"dtc":"2024-12-26","dy":"225","visit":"WEEK 32","visitnum":"9.0","epoch":"TREATMENT","spec":null,"method":null},{"seq":"63","testcd":"WBC","test":"Leukocytes","cat":"HEMATOLOGY","orres":"5.07","orresu":"10^9/L","stresc":"5.07","stresn":"5.07","stresu":"10^9/L","stnrlo":"4.0","stnrhi":"11.0","nrind":"NORMAL","fast":null,"dtc":"2024-12-26","dy":"225","visit":"WEEK 32","visitnum":"9.0","epoch":"TREATMENT","spec":null,"method":null},{"seq":"64","testcd":"ALT","test":"Alanine Aminotransferase","cat":"CHEMISTRY","orres":"51.36","orresu":"U/L","stresc":"51.36","stresn":"51.36","stresu":"U/L","stnrlo":"7","stnrhi":"56","nrind":"NORMAL","fast":null,"dtc":"2025-05-15","dy":"365","visit":"WEEK 52 EOT","visitnum":"11.0","epoch":"TREATMENT","spec":null,"method":null},{"seq":"65","testcd":"AST","test":"Aspartate Aminotransferase","cat":"CHEMISTRY","orres":"19.53","orresu":"U/L","stresc":"19.53","stresn":"19.53","stresu":"U/L","stnrlo":"10","stnrhi":"40","nrind":"NORMAL","fast":null,"dtc":"2025-05-15","dy":"365","visit":"WEEK 52 EOT","visitnum":"11.0","epoch":"TREATMENT","spec":null,"method":null},{"seq":"66","testcd":"CREAT","test":"Creatinine","cat":"CHEMISTRY","orres":"54.16","orresu":"umol/L","stresc":"54.16","stresn":"54.16","stresu":"umol/L","stnrlo":"62","stnrhi":"106","nrind":"LOW","fast":null,"dtc":"2025-05-15","dy":"365","visit":"WEEK 52 EOT","visitnum":"11.0","epoch":"TREATMENT","spec":null,"method":null},{"seq":"67","testcd":"GLUC","test":"Glucose","cat":"CHEMISTRY","orres":"8.46","orresu":"mmol/L","stresc":"8.46","stresn":"8.46","stresu":"mmol/L","stnrlo":"3.9","stnrhi":"5.6","nrind":"HIGH","fast":null,"dtc":"2025-05-15","dy":"365","visit":"WEEK 52 EOT","visitnum":"11.0","epoch":"TREATMENT","spec":null,"method":null},{"seq":"68","testcd":"HGB","test":"Hemoglobin","cat":"HEMATOLOGY","orres":"148.98","orresu":"g/L","stresc":"148.98","stresn":"148.98","stresu":"g/L","stnrlo":"130","stnrhi":"175","nrind":"NORMAL","fast":null,"dtc":"2025-05-15","dy":"365","visit":"WEEK 52 EOT","visitnum":"11.0","epoch":"TREATMENT","spec":null,"method":null},{"seq":"69","testcd":"PLAT","test":"Platelets","cat":"HEMATOLOGY","orres":"249.65","orresu":"10^9/L","stresc":"249.65","stresn":"249.65","stresu":"10^9/L","stnrlo":"150","stnrhi":"400","nrind":"NORMAL","fast":null,"dtc":"2025-05-15","dy":"365","visit":"WEEK 52 EOT","visitnum":"11.0","epoch":"TREATMENT","spec":null,"method":null},{"seq":"70","testcd":"WBC","test":"Leukocytes","cat":"HEMATOLOGY","orres":"4.97","orresu":"10^9/L","stresc":"4.97","stresn":"4.97","stresu":"10^9/L","stnrlo":"4.0","stnrhi":"11.0","nrind":"NORMAL","fast":null,"dtc":"2025-05-15","dy":"365","visit":"WEEK 52 EOT","visitnum":"11.0","epoch":"TREATMENT","spec":null,"method":null},{"seq":"71","testcd":"ALT","test":"Alanine Aminotransferase","cat":"CHEMISTRY","orres":"48.04","orresu":"U/L","stresc":"48.04","stresn":"48.04","stresu":"U/L","stnrlo":"7","stnrhi":"56","nrind":"NORMAL","fast":null,"dtc":"2025-06-06","dy":"387","visit":"WEEK 56 SAFETY FU","visitnum":"12.0","epoch":"FOLLOW-UP","spec":null,"method":null},{"seq":"72","testcd":"AST","test":"Aspartate Aminotransferase","cat":"CHEMISTRY","orres":"19.73","orresu":"U/L","stresc":"19.73","stresn":"19.73","stresu":"U/L","stnrlo":"10","stnrhi":"40","nrind":"NORMAL","fast":null,"dtc":"2025-06-06","dy":"387","visit":"WEEK 56 SAFETY FU","visitnum":"12.0","epoch":"FOLLOW-UP","spec":null,"method":null},{"seq":"73","testcd":"CREAT","test":"Creatinine","cat":"CHEMISTRY","orres":"55.74","orresu":"umol/L","stresc":"55.74","stresn":"55.74","stresu":"umol/L","stnrlo":"62","stnrhi":"106","nrind":"LOW","fast":null,"dtc":"2025-06-06","dy":"387","visit":"WEEK 56 SAFETY FU","visitnum":"12.0","epoch":"FOLLOW-UP","spec":null,"method":null},{"seq":"74","testcd":"GLUC","test":"Glucose","cat":"CHEMISTRY","orres":"8.66","orresu":"mmol/L","stresc":"8.66","stresn":"8.66","stresu":"mmol/L","stnrlo":"3.9","stnrhi":"5.6","nrind":"HIGH","fast":null,"dtc":"2025-06-06","dy":"387","visit":"WEEK 56 SAFETY FU","visitnum":"12.0","epoch":"FOLLOW-UP","spec":null,"method":null},{"seq":"75","testcd":"HGB","test":"Hemoglobin","cat":"HEMATOLOGY","orres":"149.32","orresu":"g/L","stresc":"149.32","stresn":"149.32","stresu":"g/L","stnrlo":"130","stnrhi":"175","nrind":"NORMAL","fast":null,"dtc":"2025-06-06","dy":"387","visit":"WEEK 56 SAFETY FU","visitnum":"12.0","epoch":"FOLLOW-UP","spec":null,"method":null},{"seq":"76","testcd":"PLAT","test":"Platelets","cat":"HEMATOLOGY","orres":null,"orresu":null,"stresc":null,"stresn":null,"stresu":null,"stnrlo":null,"stnrhi":null,"nrind":null,"fast":null,"dtc":"2025-06-06","dy":"387","visit":"WEEK 56 SAFETY FU","visitnum":"12.0","epoch":"FOLLOW-UP","spec":null,"method":null},{"seq":"77","testcd":"WBC","test":"Leukocytes","cat":"HEMATOLOGY","orres":"5.94","orresu":"10^9/L","stresc":"5.94","stresn":"5.94","stresu":"10^9/L","stnrlo":"4.0","stnrhi":"11.0","nrind":"NORMAL","fast":null,"dtc":"2025-06-06","dy":"387","visit":"WEEK 56 SAFETY FU","visitnum":"12.0","epoch":"FOLLOW-UP","spec":null,"method":null}]},"section_9_vital_signs":{"summary":{"total_records":95},"trends":{"BMI":[{"visit":"SCREENING","visitnum":"1.0","dtc":"2024-04-13","value":"25.8","unit":"kg/m2"},{"visit":"BASELINE","visitnum":"2.0","dtc":"2024-05-16","value":"25.7","unit":"kg/m2"},{"visit":"WEEK 4","visitnum":"3.0","dtc":"2024-06-16","value":"26.5","unit":"kg/m2"},{"visit":"WEEK 8","visitnum":"4.0","dtc":"2024-07-13","value":"27.1","unit":"kg/m2"},{"visit":"WEEK 12","visitnum":"5.0","dtc":"2024-08-10","value":"27.0","unit":"kg/m2"},{"visit":"WEEK 16","visitnum":"6.0","dtc":"2024-09-07","value":"27.8","unit":"kg/m2"},{"visit":"WEEK 20","visitnum":"7.0","dtc":"2024-10-05","value":"28.1","unit":"kg/m2"},{"visit":"WEEK 32","visitnum":"9.0","dtc":"2024-12-26","value":"27.4","unit":"kg/m2"},{"visit":"WEEK 40","visitnum":"10.0","dtc":"2025-02-13","value":"28.1","unit":"kg/m2"},{"visit":"WEEK 52 EOT","visitnum":"11.0","dtc":"2025-05-15","value":"28.6","unit":"kg/m2"},{"visit":"WEEK 56 SAFETY FU","visitnum":"12.0","dtc":"2025-06-06","value":"28.5","unit":"kg/m2"}],"DIABP":[{"visit":"SCREENING","visitnum":"1.0","dtc":"2024-04-13","value":"91.6","unit":"mmHg"},{"visit":"BASELINE","visitnum":"2.0","dtc":"2024-05-16","value":"90.7","unit":"mmHg"},{"visit":"WEEK 4","visitnum":"3.0","dtc":"2024-06-16","value":"89.6","unit":"mmHg"},{"visit":"WEEK 8","visitnum":"4.0","dtc":"2024-07-13","value":"90.5","unit":"mmHg"},{"visit":"WEEK 12","visitnum":"5.0","dtc":"2024-08-10","value":"92.0","unit":"mmHg"},{"visit":"WEEK 16","visitnum":"6.0","dtc":"2024-09-07","value":"94.3","unit":"mmHg"},{"visit":"WEEK 20","visitnum":"7.0","dtc":"2024-10-05","value":"95.7","unit":"mmHg"},{"visit":"WEEK 24","visitnum":"8.0","dtc":"2024-11-04","value":"92.9","unit":"mmHg"},{"visit":"WEEK 32","visitnum":"9.0","dtc":"2024-12-26","value":"91.9","unit":"mmHg"},{"visit":"WEEK 40","visitnum":"10.0","dtc":"2025-02-13","value":"94.7","unit":"mmHg"},{"visit":"WEEK 52 EOT","visitnum":"11.0","dtc":"2025-05-15","value":"94.7","unit":"mmHg"},{"visit":"WEEK 56 SAFETY FU","visitnum":"12.0","dtc":"2025-06-06","value":"91.9","unit":"mmHg"}],"HEIGHT":[{"visit":"SCREENING","visitnum":"1.0","dtc":"2024-04-13","value":"178.7","unit":"cm"},{"visit":"BASELINE","visitnum":"2.0","dtc":"2024-05-16","value":"178.1","unit":"cm"},{"visit":"WEEK 4","visitnum":"3.0","dtc":"2024-06-16","value":"178.2","unit":"cm"},{"visit":"WEEK 8","visitnum":"4.0","dtc":"2024-07-13","value":"177.3","unit":"cm"},{"visit":"WEEK 12","visitnum":"5.0","dtc":"2024-08-10","value":"177.2","unit":"cm"},{"visit":"WEEK 16","visitnum":"6.0","dtc":"2024-09-07","value":"176.6","unit":"cm"},{"visit":"WEEK 20","visitnum":"7.0","dtc":"2024-10-05","value":"176.8","unit":"cm"},{"visit":"WEEK 32","visitnum":"9.0","dtc":"2024-12-26","value":"176.3","unit":"cm"},{"visit":"WEEK 40","visitnum":"10.0","dtc":"2025-02-13","value":"175.6","unit":"cm"},{"visit":"WEEK 52 EOT","visitnum":"11.0","dtc":"2025-05-15","value":"175.8","unit":"cm"},{"visit":"WEEK 56 SAFETY FU","visitnum":"12.0","dtc":"2025-06-06","value":"176.6","unit":"cm"}],"PULSE":[{"visit":"SCREENING","visitnum":"1.0","dtc":"2024-04-13","value":"62.3","unit":"beats/min"},{"visit":"BASELINE","visitnum":"2.0","dtc":"2024-05-16","value":"68.1","unit":"beats/min"},{"visit":"WEEK 4","visitnum":"3.0","dtc":"2024-06-16","value":"69.0","unit":"beats/min"},{"visit":"WEEK 8","visitnum":"4.0","dtc":"2024-07-13","value":"64.5","unit":"beats/min"},{"visit":"WEEK 12","visitnum":"5.0","dtc":"2024-08-10","value":"66.6","unit":"beats/min"},{"visit":"WEEK 16","visitnum":"6.0","dtc":"2024-09-07","value":"62.9","unit":"beats/min"},{"visit":"WEEK 20","visitnum":"7.0","dtc":"2024-10-05","value":"63.1","unit":"beats/min"},{"visit":"WEEK 24","visitnum":"8.0","dtc":"2024-11-04","value":"65.0","unit":"beats/min"},{"visit":"WEEK 32","visitnum":"9.0","dtc":"2024-12-26","value":"62.0","unit":"beats/min"},{"visit":"WEEK 40","visitnum":"10.0","dtc":"2025-02-13","value":"64.8","unit":"beats/min"},{"visit":"WEEK 52 EOT","visitnum":"11.0","dtc":"2025-05-15","value":"62.4","unit":"beats/min"},{"visit":"WEEK 56 SAFETY FU","visitnum":"12.0","dtc":"2025-06-06","value":"68.4","unit":"beats/min"}],"RESP":[{"visit":"SCREENING","visitnum":"1.0","dtc":"2024-04-13","value":"15.3","unit":"breaths/min"},{"visit":"BASELINE","visitnum":"2.0","dtc":"2024-05-16","value":"16.2","unit":"breaths/min"},{"visit":"WEEK 4","visitnum":"3.0","dtc":"2024-06-16","value":"16.7","unit":"breaths/min"},{"visit":"WEEK 8","visitnum":"4.0","dtc":"2024-07-13","value":"16.7","unit":"breaths/min"},{"visit":"WEEK 12","visitnum":"5.0","dtc":"2024-08-10","value":"17.3","unit":"breaths/min"},{"visit":"WEEK 16","visitnum":"6.0","dtc":"2024-09-07","value":"15.4","unit":"breaths/min"},{"visit":"WEEK 20","visitnum":"7.0","dtc":"2024-10-05","value":"15.0","unit":"breaths/min"},{"visit":"WEEK 24","visitnum":"8.0","dtc":"2024-11-04","value":"15.5","unit":"breaths/min"},{"visit":"WEEK 32","visitnum":"9.0","dtc":"2024-12-26","value":"17.3","unit":"breaths/min"},{"visit":"WEEK 40","visitnum":"10.0","dtc":"2025-02-13","value":"16.7","unit":"breaths/min"},{"visit":"WEEK 52 EOT","visitnum":"11.0","dtc":"2025-05-15","value":"15.5","unit":"breaths/min"},{"visit":"WEEK 56 SAFETY FU","visitnum":"12.0","dtc":"2025-06-06","value":"15.3","unit":"breaths/min"}],"SYSBP":[{"visit":"SCREENING","visitnum":"1.0","dtc":"2024-04-13","value":"161.1","unit":"mmHg"},{"visit":"BASELINE","visitnum":"2.0","dtc":"2024-05-16","value":"161.4","unit":"mmHg"},{"visit":"WEEK 4","visitnum":"3.0","dtc":"2024-06-16","value":"161.1","unit":"mmHg"},{"visit":"WEEK 8","visitnum":"4.0","dtc":"2024-07-13","value":"163.5","unit":"mmHg"},{"visit":"WEEK 12","visitnum":"5.0","dtc":"2024-08-10","value":"163.5","unit":"mmHg"},{"visit":"WEEK 16","visitnum":"6.0","dtc":"2024-09-07","value":"166.5","unit":"mmHg"},{"visit":"WEEK 20","visitnum":"7.0","dtc":"2024-10-05","value":"168.7","unit":"mmHg"},{"visit":"WEEK 24","visitnum":"8.0","dtc":"2024-11-04","value":"167.1","unit":"mmHg"},{"visit":"WEEK 32","visitnum":"9.0","dtc":"2024-12-26","value":"164.5","unit":"mmHg"},{"visit":"WEEK 40","visitnum":"10.0","dtc":"2025-02-13","value":"168.7","unit":"mmHg"},{"visit":"WEEK 52 EOT","visitnum":"11.0","dtc":"2025-05-15","value":"167.6","unit":"mmHg"},{"visit":"WEEK 56 SAFETY FU","visitnum":"12.0","dtc":"2025-06-06","value":"164.3","unit":"mmHg"}],"TEMP":[{"visit":"SCREENING","visitnum":"1.0","dtc":"2024-04-13","value":"37.1","unit":"C"},{"visit":"BASELINE","visitnum":"2.0","dtc":"2024-05-16","value":"36.9","unit":"C"},{"visit":"WEEK 4","visitnum":"3.0","dtc":"2024-06-16","value":"36.9","unit":"C"},{"visit":"WEEK 8","visitnum":"4.0","dtc":"2024-07-13","value":"36.6","unit":"C"},{"visit":"WEEK 12","visitnum":"5.0","dtc":"2024-08-10","value":"36.6","unit":"C"},{"visit":"WEEK 16","visitnum":"6.0","dtc":"2024-09-07","value":"36.7","unit":"C"},{"visit":"WEEK 20","visitnum":"7.0","dtc":"2024-10-05","value":"36.7","unit":"C"},{"visit":"WEEK 24","visitnum":"8.0","dtc":"2024-11-04","value":"36.7","unit":"C"},{"visit":"WEEK 32","visitnum":"9.0","dtc":"2024-12-26","value":"36.6","unit":"C"},{"visit":"WEEK 40","visitnum":"10.0","dtc":"2025-02-13","value":"36.9","unit":"C"},{"visit":"WEEK 52 EOT","visitnum":"11.0","dtc":"2025-05-15","value":"36.6","unit":"C"},{"visit":"WEEK 56 SAFETY FU","visitnum":"12.0","dtc":"2025-06-06","value":"36.7","unit":"C"}],"WEIGHT":[{"visit":"SCREENING","visitnum":"1.0","dtc":"2024-04-13","value":"82.3","unit":"kg"},{"visit":"BASELINE","visitnum":"2.0","dtc":"2024-05-16","value":"81.6","unit":"kg"},{"visit":"WEEK 4","visitnum":"3.0","dtc":"2024-06-16","value":"84.2","unit":"kg"},{"visit":"WEEK 8","visitnum":"4.0","dtc":"2024-07-13","value":"85.3","unit":"kg"},{"visit":"WEEK 12","visitnum":"5.0","dtc":"2024-08-10","value":"84.7","unit":"kg"},{"visit":"WEEK 16","visitnum":"6.0","dtc":"2024-09-07","value":"86.8","unit":"kg"},{"visit":"WEEK 20","visitnum":"7.0","dtc":"2024-10-05","value":"87.9","unit":"kg"},{"visit":"WEEK 24","visitnum":"8.0","dtc":"2024-11-04","value":"85.8","unit":"kg"},{"visit":"WEEK 32","visitnum":"9.0","dtc":"2024-12-26","value":"85.1","unit":"kg"},{"visit":"WEEK 40","visitnum":"10.0","dtc":"2025-02-13","value":"86.7","unit":"kg"},{"visit":"WEEK 52 EOT","visitnum":"11.0","dtc":"2025-05-15","value":"88.4","unit":"kg"},{"visit":"WEEK 56 SAFETY FU","visitnum":"12.0","dtc":"2025-06-06","value":"89.0","unit":"kg"}]},"results":[{"seq":"1","testcd":"BMI","test":"BMI","cat":null,"orres":null,"orresu":null,"stresc":"25.8","stresn":"25.8","stresu":"kg/m2","stnrlo":null,"stnrhi":null,"nrind":null,"pos":null,"loc":null,"dtc":"2024-04-13","dy":"-33","visit":"SCREENING","visitnum":"1.0","epoch":"SCREENING"},{"seq":"2","testcd":"DIABP","test":"Diastolic Blood Pressure","cat":null,"orres":"91.6","orresu":"mmHg","stresc":"91.6","stresn":"91.6","stresu":"mmHg","stnrlo":null,"stnrhi":null,"nrind":null,"pos":null,"loc":null,"dtc":"2024-04-13","dy":"-33","visit":"SCREENING","visitnum":"1.0","epoch":"SCREENING"},{"seq":"3","testcd":"HEIGHT","test":"Height","cat":null,"orres":"178.7","orresu":"cm","stresc":"178.7","stresn":"178.7","stresu":"cm","stnrlo":null,"stnrhi":null,"nrind":null,"pos":null,"loc":null,"dtc":"2024-04-13","dy":"-33","visit":"SCREENING","visitnum":"1.0","epoch":"SCREENING"},{"seq":"4","testcd":"PULSE","test":"Pulse Rate","cat":null,"orres":"62.3","orresu":"beats/min","stresc":"62.3","stresn":"62.3","stresu":"beats/min","stnrlo":null,"stnrhi":null,"nrind":null,"pos":null,"loc":null,"dtc":"2024-04-13","dy":"-33","visit":"SCREENING","visitnum":"1.0","epoch":"SCREENING"},{"seq":"5","testcd":"RESP","test":"Respiratory Rate","cat":null,"orres":"15.3","orresu":"breaths/min","stresc":"15.3","stresn":"15.3","stresu":"breaths/min","stnrlo":null,"stnrhi":null,"nrind":null,"pos":null,"loc":null,"dtc":"2024-04-13","dy":"-33","visit":"SCREENING","visitnum":"1.0","epoch":"SCREENING"},{"seq":"6","testcd":"SYSBP","test":"Systolic Blood Pressure","cat":null,"orres":"161.1","orresu":"mmHg","stresc":"161.1","stresn":"161.1","stresu":"mmHg","stnrlo":null,"stnrhi":null,"nrind":null,"pos":null,"loc":null,"dtc":"2024-04-13","dy":"-33","visit":"SCREENING","visitnum":"1.0","epoch":"SCREENING"},{"seq":"7","testcd":"TEMP","test":"Temperature","cat":null,"orres":"37.1","orresu":"C","stresc":"37.1","stresn":"37.1","stresu":"C","stnrlo":null,"stnrhi":null,"nrind":null,"pos":null,"loc":null,"dtc":"2024-04-13","dy":"-33","visit":"SCREENING","visitnum":"1.0","epoch":"SCREENING"},{"seq":"8","testcd":"WEIGHT","test":"Weight","cat":null,"orres":"82.3","orresu":"kg","stresc":"82.3","stresn":"82.3","stresu":"kg","stnrlo":null,"stnrhi":null,"nrind":null,"pos":null,"loc":null,"dtc":"2024-04-13","dy":"-33","visit":"SCREENING","visitnum":"1.0","epoch":"SCREENING"},{"seq":"9","testcd":"BMI","test":"BMI","cat":null,"orres":null,"orresu":null,"stresc":"25.7","stresn":"25.7","stresu":"kg/m2","stnrlo":null,"stnrhi":null,"nrind":null,"pos":null,"loc":null,"dtc":"2024-05-16","dy":"1","visit":"BASELINE","visitnum":"2.0","epoch":"TREATMENT"},{"seq":"10","testcd":"DIABP","test":"Diastolic Blood Pressure","cat":null,"orres":"90.7","orresu":"mmHg","stresc":"90.7","stresn":"90.7","stresu":"mmHg","stnrlo":null,"stnrhi":null,"nrind":null,"pos":null,"loc":null,"dtc":"2024-05-16","dy":"1","visit":"BASELINE","visitnum":"2.0","epoch":"TREATMENT"},{"seq":"11","testcd":"HEIGHT","test":"Height","cat":null,"orres":"178.1","orresu":"cm","stresc":"178.1","stresn":"178.1","stresu":"cm","stnrlo":null,"stnrhi":null,"nrind":null,"pos":null,"loc":null,"dtc":"2024-05-16","dy":"1","visit":"BASELINE","visitnum":"2.0","epoch":"TREATMENT"},{"seq":"12","testcd":"PULSE","test":"Pulse Rate","cat":null,"orres":"68.1","orresu":"beats/min","stresc":"68.1","stresn":"68.1","stresu":"beats/min","stnrlo":null,"stnrhi":null,"nrind":null,"pos":null,"loc":null,"dtc":"2024-05-16","dy":"1","visit":"BASELINE","visitnum":"2.0","epoch":"TREATMENT"},{"seq":"13","testcd":"RESP","test":"Respiratory Rate","cat":null,"orres":"16.2","orresu":"breaths/min","stresc":"16.2","stresn":"16.2","stresu":"breaths/min","stnrlo":null,"stnrhi":null,"nrind":null,"pos":null,"loc":null,"dtc":"2024-05-16","dy":"1","visit":"BASELINE","visitnum":"2.0","epoch":"TREATMENT"},{"seq":"14","testcd":"SYSBP","test":"Systolic Blood Pressure","cat":null,"orres":"161.4","orresu":"mmHg","stresc":"161.4","stresn":"161.4","stresu":"mmHg","stnrlo":null,"stnrhi":null,"nrind":null,"pos":null,"loc":null,"dtc":"2024-05-16","dy":"1","visit":"BASELINE","visitnum":"2.0","epoch":"TREATMENT"},{"seq":"15","testcd":"TEMP","test":"Temperature","cat":null,"orres":"36.9","orresu":"C","stresc":"36.9","stresn":"36.9","stresu":"C","stnrlo":null,"stnrhi":null,"nrind":null,"pos":null,"loc":null,"dtc":"2024-05-16","dy":"1","visit":"BASELINE","visitnum":"2.0","epoch":"TREATMENT"},{"seq":"16","testcd":"WEIGHT","test":"Weight","cat":null,"orres":"81.6","orresu":"kg","stresc":"81.6","stresn":"81.6","stresu":"kg","stnrlo":null,"stnrhi":null,"nrind":null,"pos":null,"loc":null,"dtc":"2024-05-16","dy":"1","visit":"BASELINE","visitnum":"2.0","epoch":"TREATMENT"},{"seq":"17","testcd":"BMI","test":"BMI","cat":null,"orres":null,"orresu":null,"stresc":"26.5","stresn":"26.5","stresu":"kg/m2","stnrlo":null,"stnrhi":null,"nrind":null,"pos":null,"loc":null,"dtc":"2024-06-16","dy":"32","visit":"WEEK 4","visitnum":"3.0","epoch":"TREATMENT"},{"seq":"18","testcd":"DIABP","test":"Diastolic Blood Pressure","cat":null,"orres":"89.6","orresu":"mmHg","stresc":"89.6","stresn":"89.6","stresu":"mmHg","stnrlo":null,"stnrhi":null,"nrind":null,"pos":null,"loc":null,"dtc":"2024-06-16","dy":"32","visit":"WEEK 4","visitnum":"3.0","epoch":"TREATMENT"},{"seq":"19","testcd":"HEIGHT","test":"Height","cat":null,"orres":"178.2","orresu":"cm","stresc":"178.2","stresn":"178.2","stresu":"cm","stnrlo":null,"stnrhi":null,"nrind":null,"pos":null,"loc":null,"dtc":"2024-06-16","dy":"32","visit":"WEEK 4","visitnum":"3.0","epoch":"TREATMENT"},{"seq":"20","testcd":"PULSE","test":"Pulse Rate","cat":null,"orres":"69.0","orresu":"beats/min","stresc":"69.0","stresn":"69.0","stresu":"beats/min","stnrlo":null,"stnrhi":null,"nrind":null,"pos":null,"loc":null,"dtc":"2024-06-16","dy":"32","visit":"WEEK 4","visitnum":"3.0","epoch":"TREATMENT"},{"seq":"21","testcd":"RESP","test":"Respiratory Rate","cat":null,"orres":"16.7","orresu":"breaths/min","stresc":"16.7","stresn":"16.7","stresu":"breaths/min","stnrlo":null,"stnrhi":null,"nrind":null,"pos":null,"loc":null,"dtc":"2024-06-16","dy":"32","visit":"WEEK 4","visitnum":"3.0","epoch":"TREATMENT"},{"seq":"22","testcd":"SYSBP","test":"Systolic Blood Pressure","cat":null,"orres":"161.1","orresu":"mmHg","stresc":"161.1","stresn":"161.1","stresu":"mmHg","stnrlo":null,"stnrhi":null,"nrind":null,"pos":null,"loc":null,"dtc":"2024-06-16","dy":"32","visit":"WEEK 4","visitnum":"3.0","epoch":"TREATMENT"},{"seq":"23","testcd":"TEMP","test":"Temperature","cat":null,"orres":"36.9","orresu":"C","stresc":"36.9","stresn":"36.9","stresu":"C","stnrlo":null,"stnrhi":null,"nrind":null,"pos":null,"loc":null,"dtc":"2024-06-16","dy":"32","visit":"WEEK 4","visitnum":"3.0","epoch":"TREATMENT"},{"seq":"24","testcd":"WEIGHT","test":"Weight","cat":null,"orres":"84.2","orresu":"kg","stresc":"84.2","stresn":"84.2","stresu":"kg","stnrlo":null,"stnrhi":null,"nrind":null,"pos":null,"loc":null,"dtc":"2024-06-16","dy":"32","visit":"WEEK 4","visitnum":"3.0","epoch":"TREATMENT"},{"seq":"25","testcd":"BMI","test":"BMI","cat":null,"orres":null,"orresu":null,"stresc":"27.1","stresn":"27.1","stresu":"kg/m2","stnrlo":null,"stnrhi":null,"nrind":null,"pos":null,"loc":null,"dtc":"2024-07-13","dy":"59","visit":"WEEK 8","visitnum":"4.0","epoch":"TREATMENT"},{"seq":"26","testcd":"DIABP","test":"Diastolic Blood Pressure","cat":null,"orres":"90.5","orresu":"mmHg","stresc":"90.5","stresn":"90.5","stresu":"mmHg","stnrlo":null,"stnrhi":null,"nrind":null,"pos":null,"loc":null,"dtc":"2024-07-13","dy":"59","visit":"WEEK 8","visitnum":"4.0","epoch":"TREATMENT"},{"seq":"27","testcd":"HEIGHT","test":"Height","cat":null,"orres":"177.3","orresu":"cm","stresc":"177.3","stresn":"177.3","stresu":"cm","stnrlo":null,"stnrhi":null,"nrind":null,"pos":null,"loc":null,"dtc":"2024-07-13","dy":"59","visit":"WEEK 8","visitnum":"4.0","epoch":"TREATMENT"},{"seq":"28","testcd":"PULSE","test":"Pulse Rate","cat":null,"orres":"64.5","orresu":"beats/min","stresc":"64.5","stresn":"64.5","stresu":"beats/min","stnrlo":null,"stnrhi":null,"nrind":null,"pos":null,"loc":null,"dtc":"2024-07-13","dy":"59","visit":"WEEK 8","visitnum":"4.0","epoch":"TREATMENT"},{"seq":"29","testcd":"RESP","test":"Respiratory Rate","cat":null,"orres":"16.7","orresu":"breaths/min","stresc":"16.7","stresn":"16.7","stresu":"breaths/min","stnrlo":null,"stnrhi":null,"nrind":null,"pos":null,"loc":null,"dtc":"2024-07-13","dy":"59","visit":"WEEK 8","visitnum":"4.0","epoch":"TREATMENT"},{"seq":"30","testcd":"SYSBP","test":"Systolic Blood Pressure","cat":null,"orres":"163.5","orresu":"mmHg","stresc":"163.5","stresn":"163.5","stresu":"mmHg","stnrlo":null,"stnrhi":null,"nrind":null,"pos":null,"loc":null,"dtc":"2024-07-13","dy":"59","visit":"WEEK 8","visitnum":"4.0","epoch":"TREATMENT"},{"seq":"31","testcd":"TEMP","test":"Temperature","cat":null,"orres":"36.6","orresu":"C","stresc":"36.6","stresn":"36.6","stresu":"C","stnrlo":null,"stnrhi":null,"nrind":null,"pos":null,"loc":null,"dtc":"2024-07-13","dy":"59","visit":"WEEK 8","visitnum":"4.0","epoch":"TREATMENT"},{"seq":"32","testcd":"WEIGHT","test":"Weight","cat":null,"orres":"85.3","orresu":"kg","stresc":"85.3","stresn":"85.3","stresu":"kg","stnrlo":null,"stnrhi":null,"nrind":null,"pos":null,"loc":null,"dtc":"2024-07-13","dy":"59","visit":"WEEK 8","visitnum":"4.0","epoch":"TREATMENT"},{"seq":"33","testcd":"BMI","test":"BMI","cat":null,"orres":null,"orresu":null,"stresc":"27.0","stresn":"27.0","stresu":"kg/m2","stnrlo":null,"stnrhi":null,"nrind":null,"pos":null,"loc":null,"dtc":"2024-08-10","dy":"87","visit":"WEEK 12","visitnum":"5.0","epoch":"TREATMENT"},{"seq":"34","testcd":"DIABP","test":"Diastolic Blood Pressure","cat":null,"orres":"92.0","orresu":"mmHg","stresc":"92.0","stresn":"92.0","stresu":"mmHg","stnrlo":null,"stnrhi":null,"nrind":null,"pos":null,"loc":null,"dtc":"2024-08-10","dy":"87","visit":"WEEK 12","visitnum":"5.0","epoch":"TREATMENT"},{"seq":"35","testcd":"HEIGHT","test":"Height","cat":null,"orres":"177.2","orresu":"cm","stresc":"177.2","stresn":"177.2","stresu":"cm","stnrlo":null,"stnrhi":null,"nrind":null,"pos":null,"loc":null,"dtc":"2024-08-10","dy":"87","visit":"WEEK 12","visitnum":"5.0","epoch":"TREATMENT"},{"seq":"36","testcd":"PULSE","test":"Pulse Rate","cat":null,"orres":"66.6","orresu":"beats/min","stresc":"66.6","stresn":"66.6","stresu":"beats/min","stnrlo":null,"stnrhi":null,"nrind":null,"pos":null,"loc":null,"dtc":"2024-08-10","dy":"87","visit":"WEEK 12","visitnum":"5.0","epoch":"TREATMENT"},{"seq":"37","testcd":"RESP","test":"Respiratory Rate","cat":null,"orres":"17.3","orresu":"breaths/min","stresc":"17.3","stresn":"17.3","stresu":"breaths/min","stnrlo":null,"stnrhi":null,"nrind":null,"pos":null,"loc":null,"dtc":"2024-08-10","dy":"87","visit":"WEEK 12","visitnum":"5.0","epoch":"TREATMENT"},{"seq":"38","testcd":"SYSBP","test":"Systolic Blood Pressure","cat":null,"orres":"163.5","orresu":"mmHg","stresc":"163.5","stresn":"163.5","stresu":"mmHg","stnrlo":null,"stnrhi":null,"nrind":null,"pos":null,"loc":null,"dtc":"2024-08-10","dy":"87","visit":"WEEK 12","visitnum":"5.0","epoch":"TREATMENT"},{"seq":"39","testcd":"TEMP","test":"Temperature","cat":null,"orres":"36.6","orresu":"C","stresc":"36.6","stresn":"36.6","stresu":"C","stnrlo":null,"stnrhi":null,"nrind":null,"pos":null,"loc":null,"dtc":"2024-08-10","dy":"87","visit":"WEEK 12","visitnum":"5.0","epoch":"TREATMENT"},{"seq":"40","testcd":"WEIGHT","test":"Weight","cat":null,"orres":"84.7","orresu":"kg","stresc":"84.7","stresn":"84.7","stresu":"kg","stnrlo":null,"stnrhi":null,"nrind":null,"pos":null,"loc":null,"dtc":"2024-08-10","dy":"87","visit":"WEEK 12","visitnum":"5.0","epoch":"TREATMENT"},{"seq":"41","testcd":"BMI","test":"BMI","cat":null,"orres":null,"orresu":null,"stresc":"27.8","stresn":"27.8","stresu":"kg/m2","stnrlo":null,"stnrhi":null,"nrind":null,"pos":null,"loc":null,"dtc":"2024-09-07","dy":"115","visit":"WEEK 16","visitnum":"6.0","epoch":"TREATMENT"},{"seq":"42","testcd":"DIABP","test":"Diastolic Blood Pressure","cat":null,"orres":"94.3","orresu":"mmHg","stresc":"94.3","stresn":"94.3","stresu":"mmHg","stnrlo":null,"stnrhi":null,"nrind":null,"pos":null,"loc":null,"dtc":"2024-09-07","dy":"115","visit":"WEEK 16","visitnum":"6.0","epoch":"TREATMENT"},{"seq":"43","testcd":"HEIGHT","test":"Height","cat":null,"orres":"176.6","orresu":"cm","stresc":"176.6","stresn":"176.6","stresu":"cm","stnrlo":null,"stnrhi":null,"nrind":null,"pos":null,"loc":null,"dtc":"2024-09-07","dy":"115","visit":"WEEK 16","visitnum":"6.0","epoch":"TREATMENT"},{"seq":"44","testcd":"PULSE","test":"Pulse Rate","cat":null,"orres":"62.9","orresu":"beats/min","stresc":"62.9","stresn":"62.9","stresu":"beats/min","stnrlo":null,"stnrhi":null,"nrind":null,"pos":null,"loc":null,"dtc":"2024-09-07","dy":"115","visit":"WEEK 16","visitnum":"6.0","epoch":"TREATMENT"},{"seq":"45","testcd":"RESP","test":"Respiratory Rate","cat":null,"orres":"15.4","orresu":"breaths/min","stresc":"15.4","stresn":"15.4","stresu":"breaths/min","stnrlo":null,"stnrhi":null,"nrind":null,"pos":null,"loc":null,"dtc":"2024-09-07","dy":"115","visit":"WEEK 16","visitnum":"6.0","epoch":"TREATMENT"},{"seq":"46","testcd":"SYSBP","test":"Systolic Blood Pressure","cat":null,"orres":"166.5","orresu":"mmHg","stresc":"166.5","stresn":"166.5","stresu":"mmHg","stnrlo":null,"stnrhi":null,"nrind":null,"pos":null,"loc":null,"dtc":"2024-09-07","dy":"115","visit":"WEEK 16","visitnum":"6.0","epoch":"TREATMENT"},{"seq":"47","testcd":"TEMP","test":"Temperature","cat":null,"orres":"36.7","orresu":"C","stresc":"36.7","stresn":"36.7","stresu":"C","stnrlo":null,"stnrhi":null,"nrind":null,"pos":null,"loc":null,"dtc":"2024-09-07","dy":"115","visit":"WEEK 16","visitnum":"6.0","epoch":"TREATMENT"},{"seq":"48","testcd":"WEIGHT","test":"Weight","cat":null,"orres":"86.8","orresu":"kg","stresc":"86.8","stresn":"86.8","stresu":"kg","stnrlo":null,"stnrhi":null,"nrind":null,"pos":null,"loc":null,"dtc":"2024-09-07","dy":"115","visit":"WEEK 16","visitnum":"6.0","epoch":"TREATMENT"},{"seq":"49","testcd":"BMI","test":"BMI","cat":null,"orres":null,"orresu":null,"stresc":"28.1","stresn":"28.1","stresu":"kg/m2","stnrlo":null,"stnrhi":null,"nrind":null,"pos":null,"loc":null,"dtc":"2024-10-05","dy":"143","visit":"WEEK 20","visitnum":"7.0","epoch":"TREATMENT"},{"seq":"50","testcd":"DIABP","test":"Diastolic Blood Pressure","cat":null,"orres":"95.7","orresu":"mmHg","stresc":"95.7","stresn":"95.7","stresu":"mmHg","stnrlo":null,"stnrhi":null,"nrind":null,"pos":null,"loc":null,"dtc":"2024-10-05","dy":"143","visit":"WEEK 20","visitnum":"7.0","epoch":"TREATMENT"},{"seq":"51","testcd":"HEIGHT","test":"Height","cat":null,"orres":"176.8","orresu":"cm","stresc":"176.8","stresn":"176.8","stresu":"cm","stnrlo":null,"stnrhi":null,"nrind":null,"pos":null,"loc":null,"dtc":"2024-10-05","dy":"143","visit":"WEEK 20","visitnum":"7.0","epoch":"TREATMENT"},{"seq":"52","testcd":"PULSE","test":"Pulse Rate","cat":null,"orres":"63.1","orresu":"beats/min","stresc":"63.1","stresn":"63.1","stresu":"beats/min","stnrlo":null,"stnrhi":null,"nrind":null,"pos":null,"loc":null,"dtc":"2024-10-05","dy":"143","visit":"WEEK 20","visitnum":"7.0","epoch":"TREATMENT"},{"seq":"53","testcd":"RESP","test":"Respiratory Rate","cat":null,"orres":"15.0","orresu":"breaths/min","stresc":"15.0","stresn":"15.0","stresu":"breaths/min","stnrlo":null,"stnrhi":null,"nrind":null,"pos":null,"loc":null,"dtc":"2024-10-05","dy":"143","visit":"WEEK 20","visitnum":"7.0","epoch":"TREATMENT"},{"seq":"54","testcd":"SYSBP","test":"Systolic Blood Pressure","cat":null,"orres":"168.7","orresu":"mmHg","stresc":"168.7","stresn":"168.7","stresu":"mmHg","stnrlo":null,"stnrhi":null,"nrind":null,"pos":null,"loc":null,"dtc":"2024-10-05","dy":"143","visit":"WEEK 20","visitnum":"7.0","epoch":"TREATMENT"},{"seq":"55","testcd":"TEMP","test":"Temperature","cat":null,"orres":"36.7","orresu":"C","stresc":"36.7","stresn":"36.7","stresu":"C","stnrlo":null,"stnrhi":null,"nrind":null,"pos":null,"loc":null,"dtc":"2024-10-05","dy":"143","visit":"WEEK 20","visitnum":"7.0","epoch":"TREATMENT"},{"seq":"56","testcd":"WEIGHT","test":"Weight","cat":null,"orres":"87.9","orresu":"kg","stresc":"87.9","stresn":"87.9","stresu":"kg","stnrlo":null,"stnrhi":null,"nrind":null,"pos":null,"loc":null,"dtc":"2024-10-05","dy":"143","visit":"WEEK 20","visitnum":"7.0","epoch":"TREATMENT"},{"seq":"57","testcd":"DIABP","test":"Diastolic Blood Pressure","cat":null,"orres":"92.9","orresu":"mmHg","stresc":"92.9","stresn":"92.9","stresu":"mmHg","stnrlo":null,"stnrhi":null,"nrind":null,"pos":null,"loc":null,"dtc":"2024-11-04","dy":"173","visit":"WEEK 24","visitnum":"8.0","epoch":"TREATMENT"},{"seq":"58","testcd":"HEIGHT","test":"Height","cat":null,"orres":null,"orresu":null,"stresc":null,"stresn":null,"stresu":null,"stnrlo":null,"stnrhi":null,"nrind":null,"pos":null,"loc":null,"dtc":"2024-11-04","dy":"173","visit":"WEEK 24","visitnum":"8.0","epoch":"TREATMENT"},{"seq":"59","testcd":"PULSE","test":"Pulse Rate","cat":null,"orres":"65.0","orresu":"beats/min","stresc":"65.0","stresn":"65.0","stresu":"beats/min","stnrlo":null,"stnrhi":null,"nrind":null,"pos":null,"loc":null,"dtc":"2024-11-04","dy":"173","visit":"WEEK 24","visitnum":"8.0","epoch":"TREATMENT"},{"seq":"60","testcd":"RESP","test":"Respiratory Rate","cat":null,"orres":"15.5","orresu":"breaths/min","stresc":"15.5","stresn":"15.5","stresu":"breaths/min","stnrlo":null,"stnrhi":null,"nrind":null,"pos":null,"loc":null,"dtc":"2024-11-04","dy":"173","visit":"WEEK 24","visitnum":"8.0","epoch":"TREATMENT"},{"seq":"61","testcd":"SYSBP","test":"Systolic Blood Pressure","cat":null,"orres":"167.1","orresu":"mmHg","stresc":"167.1","stresn":"167.1","stresu":"mmHg","stnrlo":null,"stnrhi":null,"nrind":null,"pos":null,"loc":null,"dtc":"2024-11-04","dy":"173","visit":"WEEK 24","visitnum":"8.0","epoch":"TREATMENT"},{"seq":"62","testcd":"TEMP","test":"Temperature","cat":null,"orres":"36.7","orresu":"C","stresc":"36.7","stresn":"36.7","stresu":"C","stnrlo":null,"stnrhi":null,"nrind":null,"pos":null,"loc":null,"dtc":"2024-11-04","dy":"173","visit":"WEEK 24","visitnum":"8.0","epoch":"TREATMENT"},{"seq":"63","testcd":"WEIGHT","test":"Weight","cat":null,"orres":"85.8","orresu":"kg","stresc":"85.8","stresn":"85.8","stresu":"kg","stnrlo":null,"stnrhi":null,"nrind":null,"pos":null,"loc":null,"dtc":"2024-11-04","dy":"173","visit":"WEEK 24","visitnum":"8.0","epoch":"TREATMENT"},{"seq":"64","testcd":"BMI","test":"BMI","cat":null,"orres":null,"orresu":null,"stresc":"27.4","stresn":"27.4","stresu":"kg/m2","stnrlo":null,"stnrhi":null,"nrind":null,"pos":null,"loc":null,"dtc":"2024-12-26","dy":"225","visit":"WEEK 32","visitnum":"9.0","epoch":"TREATMENT"},{"seq":"65","testcd":"DIABP","test":"Diastolic Blood Pressure","cat":null,"orres":"91.9","orresu":"mmHg","stresc":"91.9","stresn":"91.9","stresu":"mmHg","stnrlo":null,"stnrhi":null,"nrind":null,"pos":null,"loc":null,"dtc":"2024-12-26","dy":"225","visit":"WEEK 32","visitnum":"9.0","epoch":"TREATMENT"},{"seq":"66","testcd":"HEIGHT","test":"Height","cat":null,"orres":"176.3","orresu":"cm","stresc":"176.3","stresn":"176.3","stresu":"cm","stnrlo":null,"stnrhi":null,"nrind":null,"pos":null,"loc":null,"dtc":"2024-12-26","dy":"225","visit":"WEEK 32","visitnum":"9.0","epoch":"TREATMENT"},{"seq":"67","testcd":"PULSE","test":"Pulse Rate","cat":null,"orres":"62.0","orresu":"beats/min","stresc":"62.0","stresn":"62.0","stresu":"beats/min","stnrlo":null,"stnrhi":null,"nrind":null,"pos":null,"loc":null,"dtc":"2024-12-26","dy":"225","visit":"WEEK 32","visitnum":"9.0","epoch":"TREATMENT"},{"seq":"68","testcd":"RESP","test":"Respiratory Rate","cat":null,"orres":"17.3","orresu":"breaths/min","stresc":"17.3","stresn":"17.3","stresu":"breaths/min","stnrlo":null,"stnrhi":null,"nrind":null,"pos":null,"loc":null,"dtc":"2024-12-26","dy":"225","visit":"WEEK 32","visitnum":"9.0","epoch":"TREATMENT"},{"seq":"69","testcd":"SYSBP","test":"Systolic Blood Pressure","cat":null,"orres":"164.5","orresu":"mmHg","stresc":"164.5","stresn":"164.5","stresu":"mmHg","stnrlo":null,"stnrhi":null,"nrind":null,"pos":null,"loc":null,"dtc":"2024-12-26","dy":"225","visit":"WEEK 32","visitnum":"9.0","epoch":"TREATMENT"},{"seq":"70","testcd":"TEMP","test":"Temperature","cat":null,"orres":"36.6","orresu":"C","stresc":"36.6","stresn":"36.6","stresu":"C","stnrlo":null,"stnrhi":null,"nrind":null,"pos":null,"loc":null,"dtc":"2024-12-26","dy":"225","visit":"WEEK 32","visitnum":"9.0","epoch":"TREATMENT"},{"seq":"71","testcd":"WEIGHT","test":"Weight","cat":null,"orres":"85.1","orresu":"kg","stresc":"85.1","stresn":"85.1","stresu":"kg","stnrlo":null,"stnrhi":null,"nrind":null,"pos":null,"loc":null,"dtc":"2024-12-26","dy":"225","visit":"WEEK 32","visitnum":"9.0","epoch":"TREATMENT"},{"seq":"72","testcd":"BMI","test":"BMI","cat":null,"orres":null,"orresu":null,"stresc":"28.1","stresn":"28.1","stresu":"kg/m2","stnrlo":null,"stnrhi":null,"nrind":null,"pos":null,"loc":null,"dtc":"2025-02-13","dy":"274","visit":"WEEK 40","visitnum":"10.0","epoch":"TREATMENT"},{"seq":"73","testcd":"DIABP","test":"Diastolic Blood Pressure","cat":null,"orres":"94.7","orresu":"mmHg","stresc":"94.7","stresn":"94.7","stresu":"mmHg","stnrlo":null,"stnrhi":null,"nrind":null,"pos":null,"loc":null,"dtc":"2025-02-13","dy":"274","visit":"WEEK 40","visitnum":"10.0","epoch":"TREATMENT"},{"seq":"74","testcd":"HEIGHT","test":"Height","cat":null,"orres":"175.6","orresu":"cm","stresc":"175.6","stresn":"175.6","stresu":"cm","stnrlo":null,"stnrhi":null,"nrind":null,"pos":null,"loc":null,"dtc":"2025-02-13","dy":"274","visit":"WEEK 40","visitnum":"10.0","epoch":"TREATMENT"},{"seq":"75","testcd":"PULSE","test":"Pulse Rate","cat":null,"orres":"64.8","orresu":"beats/min","stresc":"64.8","stresn":"64.8","stresu":"beats/min","stnrlo":null,"stnrhi":null,"nrind":null,"pos":null,"loc":null,"dtc":"2025-02-13","dy":"274","visit":"WEEK 40","visitnum":"10.0","epoch":"TREATMENT"},{"seq":"76","testcd":"RESP","test":"Respiratory Rate","cat":null,"orres":"16.7","orresu":"breaths/min","stresc":"16.7","stresn":"16.7","stresu":"breaths/min","stnrlo":null,"stnrhi":null,"nrind":null,"pos":null,"loc":null,"dtc":"2025-02-13","dy":"274","visit":"WEEK 40","visitnum":"10.0","epoch":"TREATMENT"},{"seq":"77","testcd":"SYSBP","test":"Systolic Blood Pressure","cat":null,"orres":"168.7","orresu":"mmHg","stresc":"168.7","stresn":"168.7","stresu":"mmHg","stnrlo":null,"stnrhi":null,"nrind":null,"pos":null,"loc":null,"dtc":"2025-02-13","dy":"274","visit":"WEEK 40","visitnum":"10.0","epoch":"TREATMENT"},{"seq":"78","testcd":"TEMP","test":"Temperature","cat":null,"orres":"36.9","orresu":"C","stresc":"36.9","stresn":"36.9","stresu":"C","stnrlo":null,"stnrhi":null,"nrind":null,"pos":null,"loc":null,"dtc":"2025-02-13","dy":"274","visit":"WEEK 40","visitnum":"10.0","epoch":"TREATMENT"},{"seq":"79","testcd":"WEIGHT","test":"Weight","cat":null,"orres":"86.7","orresu":"kg","stresc":"86.7","stresn":"86.7","stresu":"kg","stnrlo":null,"stnrhi":null,"nrind":null,"pos":null,"loc":null,"dtc":"2025-02-13","dy":"274","visit":"WEEK 40","visitnum":"10.0","epoch":"TREATMENT"},{"seq":"80","testcd":"BMI","test":"BMI","cat":null,"orres":null,"orresu":null,"stresc":"28.6","stresn":"28.6","stresu":"kg/m2","stnrlo":null,"stnrhi":null,"nrind":null,"pos":null,"loc":null,"dtc":"2025-05-15","dy":"365","visit":"WEEK 52 EOT","visitnum":"11.0","epoch":"TREATMENT"},{"seq":"81","testcd":"DIABP","test":"Diastolic Blood Pressure","cat":null,"orres":"94.7","orresu":"mmHg","stresc":"94.7","stresn":"94.7","stresu":"mmHg","stnrlo":null,"stnrhi":null,"nrind":null,"pos":null,"loc":null,"dtc":"2025-05-15","dy":"365","visit":"WEEK 52 EOT","visitnum":"11.0","epoch":"TREATMENT"},{"seq":"82","testcd":"HEIGHT","test":"Height","cat":null,"orres":"175.8","orresu":"cm","stresc":"175.8","stresn":"175.8","stresu":"cm","stnrlo":null,"stnrhi":null,"nrind":null,"pos":null,"loc":null,"dtc":"2025-05-15","dy":"365","visit":"WEEK 52 EOT","visitnum":"11.0","epoch":"TREATMENT"},{"seq":"83","testcd":"PULSE","test":"Pulse Rate","cat":null,"orres":"62.4","orresu":"beats/min","stresc":"62.4","stresn":"62.4","stresu":"beats/min","stnrlo":null,"stnrhi":null,"nrind":null,"pos":null,"loc":null,"dtc":"2025-05-15","dy":"365","visit":"WEEK 52 EOT","visitnum":"11.0","epoch":"TREATMENT"},{"seq":"84","testcd":"RESP","test":"Respiratory Rate","cat":null,"orres":"15.5","orresu":"breaths/min","stresc":"15.5","stresn":"15.5","stresu":"breaths/min","stnrlo":null,"stnrhi":null,"nrind":null,"pos":null,"loc":null,"dtc":"2025-05-15","dy":"365","visit":"WEEK 52 EOT","visitnum":"11.0","epoch":"TREATMENT"},{"seq":"85","testcd":"SYSBP","test":"Systolic Blood Pressure","cat":null,"orres":"167.6","orresu":"mmHg","stresc":"167.6","stresn":"167.6","stresu":"mmHg","stnrlo":null,"stnrhi":null,"nrind":null,"pos":null,"loc":null,"dtc":"2025-05-15","dy":"365","visit":"WEEK 52 EOT","visitnum":"11.0","epoch":"TREATMENT"},{"seq":"86","testcd":"TEMP","test":"Temperature","cat":null,"orres":"36.6","orresu":"C","stresc":"36.6","stresn":"36.6","stresu":"C","stnrlo":null,"stnrhi":null,"nrind":null,"pos":null,"loc":null,"dtc":"2025-05-15","dy":"365","visit":"WEEK 52 EOT","visitnum":"11.0","epoch":"TREATMENT"},{"seq":"87","testcd":"WEIGHT","test":"Weight","cat":null,"orres":"88.4","orresu":"kg","stresc":"88.4","stresn":"88.4","stresu":"kg","stnrlo":null,"stnrhi":null,"nrind":null,"pos":null,"loc":null,"dtc":"2025-05-15","dy":"365","visit":"WEEK 52 EOT","visitnum":"11.0","epoch":"TREATMENT"},{"seq":"88","testcd":"BMI","test":"BMI","cat":null,"orres":null,"orresu":null,"stresc":"28.5","stresn":"28.5","stresu":"kg/m2","stnrlo":null,"stnrhi":null,"nrind":null,"pos":null,"loc":null,"dtc":"2025-06-06","dy":"387","visit":"WEEK 56 SAFETY FU","visitnum":"12.0","epoch":"FOLLOW-UP"},{"seq":"89","testcd":"DIABP","test":"Diastolic Blood Pressure","cat":null,"orres":"91.9","orresu":"mmHg","stresc":"91.9","stresn":"91.9","stresu":"mmHg","stnrlo":null,"stnrhi":null,"nrind":null,"pos":null,"loc":null,"dtc":"2025-06-06","dy":"387","visit":"WEEK 56 SAFETY FU","visitnum":"12.0","epoch":"FOLLOW-UP"},{"seq":"90","testcd":"HEIGHT","test":"Height","cat":null,"orres":"176.6","orresu":"cm","stresc":"176.6","stresn":"176.6","stresu":"cm","stnrlo":null,"stnrhi":null,"nrind":null,"pos":null,"loc":null,"dtc":"2025-06-06","dy":"387","visit":"WEEK 56 SAFETY FU","visitnum":"12.0","epoch":"FOLLOW-UP"},{"seq":"91","testcd":"PULSE","test":"Pulse Rate","cat":null,"orres":"68.4","orresu":"beats/min","stresc":"68.4","stresn":"68.4","stresu":"beats/min","stnrlo":null,"stnrhi":null,"nrind":null,"pos":null,"loc":null,"dtc":"2025-06-06","dy":"387","visit":"WEEK 56 SAFETY FU","visitnum":"12.0","epoch":"FOLLOW-UP"},{"seq":"92","testcd":"RESP","test":"Respiratory Rate","cat":null,"orres":"15.3","orresu":"breaths/min","stresc":"15.3","stresn":"15.3","stresu":"breaths/min","stnrlo":null,"stnrhi":null,"nrind":null,"pos":null,"loc":null,"dtc":"2025-06-06","dy":"387","visit":"WEEK 56 SAFETY FU","visitnum":"12.0","epoch":"FOLLOW-UP"},{"seq":"93","testcd":"SYSBP","test":"Systolic Blood Pressure","cat":null,"orres":"164.3","orresu":"mmHg","stresc":"164.3","stresn":"164.3","stresu":"mmHg","stnrlo":null,"stnrhi":null,"nrind":null,"pos":null,"loc":null,"dtc":"2025-06-06","dy":"387","visit":"WEEK 56 SAFETY FU","visitnum":"12.0","epoch":"FOLLOW-UP"},{"seq":"94","testcd":"TEMP","test":"Temperature","cat":null,"orres":"36.7","orresu":"C","stresc":"36.7","stresn":"36.7","stresu":"C","stnrlo":null,"stnrhi":null,"nrind":null,"pos":null,"loc":null,"dtc":"2025-06-06","dy":"387","visit":"WEEK 56 SAFETY FU","visitnum":"12.0","epoch":"FOLLOW-UP"},{"seq":"95","testcd":"WEIGHT","test":"Weight","cat":null,"orres":"89.0","orresu":"kg","stresc":"89.0","stresn":"89.0","stresu":"kg","stnrlo":null,"stnrhi":null,"nrind":null,"pos":null,"loc":null,"dtc":"2025-06-06","dy":"387","visit":"WEEK 56 SAFETY FU","visitnum":"12.0","epoch":"FOLLOW-UP"}]},"section_10_questionnaires_and_scores":{"questionnaires":[],"findings_about":[]},"section_11_protocol_deviations":{"deviations":[{"seq":"1","term":"Dose modified from 15.0 to 2.5 mg","decod":"DOSE MODIFICATION","cat":"MINOR","scat":"DOSING","start_dtc":"2024-05-23","end_dtc":null,"visit":null},{"seq":"2","term":"Missed TIRZEPATIDE dose on 2024-05-30","decod":"MISSED DOSE","cat":"MINOR","scat":"DOSING","start_dtc":"2024-05-30","end_dtc":null,"visit":null},{"seq":"3","term":"Dose modified from 15.0 to 2.5 mg","decod":"DOSE MODIFICATION","cat":"MINOR","scat":"DOSING","start_dtc":"2024-06-06","end_dtc":null,"visit":null},{"seq":"4","term":"Dose modified from 15.0 to 5.0 mg","decod":"DOSE MODIFICATION","cat":"MINOR","scat":"DOSING","start_dtc":"2024-06-20","end_dtc":null,"visit":null},{"seq":"5","term":"Missed TIRZEPATIDE dose on 2024-06-27","decod":"MISSED DOSE","cat":"MINOR","scat":"DOSING","start_dtc":"2024-06-27","end_dtc":null,"visit":null},{"seq":"6","term":"Dose modified from 15.0 to 7.5 mg","decod":"DOSE MODIFICATION","cat":"MINOR","scat":"DOSING","start_dtc":"2024-07-25","end_dtc":null,"visit":null},{"seq":"7","term":"Missed TIRZEPATIDE dose on 2024-08-01","decod":"MISSED DOSE","cat":"MINOR","scat":"DOSING","start_dtc":"2024-08-01","end_dtc":null,"visit":null},{"seq":"8","term":"Dose modified from 15.0 to 10.0 mg","decod":"DOSE MODIFICATION","cat":"MINOR","scat":"DOSING","start_dtc":"2024-08-08","end_dtc":null,"visit":null},{"seq":"9","term":"Missed TIRZEPATIDE dose on 2024-08-22","decod":"MISSED DOSE","cat":"MINOR","scat":"DOSING","start_dtc":"2024-08-22","end_dtc":null,"visit":null},{"seq":"10","term":"Missed TIRZEPATIDE dose on 2024-10-03","decod":"MISSED DOSE","cat":"MINOR","scat":"DOSING","start_dtc":"2024-10-03","end_dtc":null,"visit":null},{"seq":"11","term":"Vital signs assessment not performed at WEEK 24","decod":"MISSED ASSESSMENT","cat":"MINOR","scat":"ASSESSMENT","start_dtc":"2024-11-04","end_dtc":null,"visit":null},{"seq":"12","term":"Missed TIRZEPATIDE dose on 2024-12-19","decod":"MISSED DOSE","cat":"MINOR","scat":"DOSING","start_dtc":"2024-12-19","end_dtc":null,"visit":null},{"seq":"13","term":"Missed TIRZEPATIDE dose on 2025-01-02","decod":"MISSED DOSE","cat":"MINOR","scat":"DOSING","start_dtc":"2025-01-02","end_dtc":null,"visit":null},{"seq":"14","term":"Missed TIRZEPATIDE dose on 2025-01-09","decod":"MISSED DOSE","cat":"MINOR","scat":"DOSING","start_dtc":"2025-01-09","end_dtc":null,"visit":null},{"seq":"15","term":"Visit WEEK 40 occurred 7 days early (Day 274 vs planned Day 281)","decod":"VISIT OCCURRED OUTSIDE VISIT WINDOW","cat":"MINOR","scat":"VISIT WINDOW","start_dtc":"2025-02-13","end_dtc":null,"visit":null},{"seq":"16","term":"Missed TIRZEPATIDE dose on 2025-03-06","decod":"MISSED DOSE","cat":"MINOR","scat":"DOSING","start_dtc":"2025-03-06","end_dtc":null,"visit":null},{"seq":"17","term":"Missed TIRZEPATIDE dose on 2025-03-20","decod":"MISSED DOSE","cat":"MINOR","scat":"DOSING","start_dtc":"2025-03-20","end_dtc":null,"visit":null},{"seq":"18","term":"Visit WEEK 56 SAFETY FU occurred 6 days early (Day 387 vs planned Day 393)","decod":"VISIT OCCURRED OUTSIDE VISIT WINDOW","cat":"MINOR","scat":"VISIT WINDOW","start_dtc":"2025-06-06","end_dtc":null,"visit":null}],"total":18},"section_12_disposition":{"completion_status":"COMPLETED","disposition_records":[{"seq":"1","term":"INFORMED CONSENT OBTAINED","decod":"INFORMED CONSENT OBTAINED","cat":"PROTOCOL MILESTONE","scat":null,"dtc":"2024-04-13","dy":null,"visit":null,"epoch":"SCREENING"},{"seq":"2","term":"RANDOMIZED","decod":"RANDOMIZED","cat":"PROTOCOL MILESTONE","scat":null,"dtc":"2024-05-16","dy":null,"visit":null,"epoch":"TREATMENT"},{"seq":"3","term":"COMPLETED","decod":"COMPLETED","cat":"DISPOSITION EVENT","scat":null,"dtc":"2025-07-09","dy":null,"visit":null,"epoch":"FOLLOW-UP"}],"death":null},"section_13_hospitalizations":{"items":[{"seq":"1","term":"Nausea","decod":"Nausea","cat":"EMERGENCY ROOM VISIT","start_dtc":"2024-11-21","end_dtc":"2024-11-24","epoch":"TREATMENT"},{"seq":"2","term":"Constipation","decod":"Constipation","cat":"HOSPITALIZATION","start_dtc":"2025-02-18","end_dtc":"2025-02-27","epoch":"TREATMENT"}],"total":2},"section_14_substance_use":{"items":[{"seq":"1","substance":"BEER/WINE/SPIRITS","decod":"ETHANOL","cat":"ALCOHOL","scat":null,"usage":"Y","dose":"6.0","dosu":"DRINKS/WEEK","freq":"QW","start_dtc":"2012-04-16","end_dtc":null},{"seq":"2","substance":"COFFEE","decod":"COFFEE","cat":"CAFFEINE","scat":null,"usage":"Y","dose":"2.0","dosu":"CUPS/DAY","freq":"QD","start_dtc":"2009-04-17","end_dtc":null},{"seq":"3","substance":"CIGARETTES","decod":"CIGARETTES","cat":"TOBACCO","scat":null,"usage":"N","dose":null,"dosu":null,"freq":null,"start_dtc":null,"end_dtc":null}],"total":3},"section_15_subject_status":{"items":[{"seq":"1","testcd":"SURVSTAT","test":"Survival Status","orres":"ALIVE","stresc":"ALIVE","dtc":"2025-07-09","visit":null,"epoch":"FOLLOW-UP"}],"total":1}}