{"subject_id":"I8F-JE-GPGO-SURPASS-JPN_TOKYO01-0016","study_id":"I8F-JE-GPGO-SURPASS","generated_at":"2026-07-07T06:16:07.034165+00:00","sdtmig_version":"3.4","flags":{"has_serious_ae":true,"has_fatal_ae":false,"has_protocol_deviation":true,"n_protocol_deviations":7,"n_adverse_events":28,"n_concomitant_meds":18,"max_ae_severity":"SEVERE","screen_failure":false,"discontinued_early":false,"discontinuation_reason":null,"death":false,"exposure_days":357},"timeline":[{"dtc":"2007-03-23","dy":"-6228","event":"CM START: LISINOPRIL","domain":"CM","category":"concomitant_med"},{"dtc":"2024-03-08","dy":"-33","event":"VISIT: SCREENING","domain":"SV","category":"visit"},{"dtc":"2024-03-18","dy":"-23","event":"INFORMED CONSENT OBTAINED","domain":"DS","category":"milestone"},{"dtc":"2024-04-10","dy":"1","event":"RANDOMIZED","domain":"DS","category":"milestone"},{"dtc":"2024-04-10","dy":"1","event":"FIRST DOSE: DULAGLUTIDE","domain":"EX","category":"exposure"},{"dtc":"2024-04-10","dy":"1","event":"VISIT: BASELINE","domain":"SV","category":"visit"},{"dtc":"2024-04-28","dy":"19","event":"AE: Headache (SEVERE) [SERIOUS]","domain":"AE","category":"adverse_event"},{"dtc":"2024-05-04","dy":"25","event":"AE: Constipation (MILD)","domain":"AE","category":"adverse_event"},{"dtc":"2024-05-05","dy":"26","event":"AE: Diarrhoea (SEVERE) [SERIOUS]","domain":"AE","category":"adverse_event"},{"dtc":"2024-05-05","dy":"26","event":"CM START: LOPERAMIDE","domain":"CM","category":"concomitant_med"},{"dtc":"2024-05-10","dy":"31","event":"VISIT: WEEK 4","domain":"SV","category":"visit"},{"dtc":"2024-05-12","dy":"33","event":"AE: Diarrhoea (SEVERE) [SERIOUS]","domain":"AE","category":"adverse_event"},{"dtc":"2024-05-12","dy":"33","event":"CM START: LOPERAMIDE","domain":"CM","category":"concomitant_med"},{"dtc":"2024-05-16","dy":"37","event":"AE: Constipation (MODERATE)","domain":"AE","category":"adverse_event"},{"dtc":"2024-05-16","dy":"37","event":"AE: Diarrhoea (MODERATE)","domain":"AE","category":"adverse_event"},{"dtc":"2024-05-16","dy":"37","event":"CM START: LOPERAMIDE","domain":"CM","category":"concomitant_med"},{"dtc":"2024-05-28","dy":"49","event":"AE: Nausea (MILD)","domain":"AE","category":"adverse_event"},{"dtc":"2024-06-06","dy":"58","event":"DEVIATION: VISIT OCCURRED OUTSIDE VISIT WINDOW","domain":"DV","category":"deviation"},{"dtc":"2024-06-06","dy":"58","event":"VISIT: WEEK 8","domain":"SV","category":"visit"},{"dtc":"2024-07-01","dy":"83","event":"VISIT: WEEK 12","domain":"SV","category":"visit"},{"dtc":"2024-07-05","dy":"87","event":"AE: Nausea (MODERATE)","domain":"AE","category":"adverse_event"},{"dtc":"2024-07-05","dy":"87","event":"AE: Diarrhoea (MILD)","domain":"AE","category":"adverse_event"},{"dtc":"2024-07-05","dy":"87","event":"CM START: ONDANSETRON","domain":"CM","category":"concomitant_med"},{"dtc":"2024-07-09","dy":"91","event":"CM START: IBUPROFEN","domain":"CM","category":"concomitant_med"},{"dtc":"2024-07-20","dy":"102","event":"AE: Headache (SEVERE) [SERIOUS]","domain":"AE","category":"adverse_event"},{"dtc":"2024-07-31","dy":"113","event":"VISIT: WEEK 16","domain":"SV","category":"visit"},{"dtc":"2024-08-06","dy":"119","event":"AE: Nausea (MILD)","domain":"AE","category":"adverse_event"},{"dtc":"2024-08-20","dy":"133","event":"AE: Lipase increased (MILD)","domain":"AE","category":"adverse_event"},{"dtc":"2024-08-20","dy":"133","event":"AE: Injection site reaction (MODERATE)","domain":"AE","category":"adverse_event"},{"dtc":"2024-08-20","dy":"133","event":"CM START: PARACETAMOL","domain":"CM","category":"concomitant_med"},{"dtc":"2024-08-20","dy":"133","event":"CM START: HYDROCORTISONE CREAM","domain":"CM","category":"concomitant_med"},{"dtc":"2024-08-25","dy":"138","event":"AE: Dyspepsia (SEVERE) [SERIOUS]","domain":"AE","category":"adverse_event"},{"dtc":"2024-08-25","dy":"138","event":"CM START: FAMOTIDINE","domain":"CM","category":"concomitant_med"},{"dtc":"2024-08-27","dy":"140","event":"AE: Nausea (MODERATE)","domain":"AE","category":"adverse_event"},{"dtc":"2024-08-27","dy":"140","event":"CM START: METOCLOPRAMIDE","domain":"CM","category":"concomitant_med"},{"dtc":"2024-08-28","dy":"141","event":"DEVIATION: VISIT OCCURRED OUTSIDE VISIT WINDOW","domain":"DV","category":"deviation"},{"dtc":"2024-08-28","dy":"141","event":"VISIT: WEEK 20","domain":"SV","category":"visit"},{"dtc":"2024-09-20","dy":"164","event":"AE: Vomiting (MILD)","domain":"AE","category":"adverse_event"},{"dtc":"2024-09-30","dy":"174","event":"VISIT: WEEK 24","domain":"SV","category":"visit"},{"dtc":"2024-10-04","dy":"178","event":"AE: Vomiting (MODERATE)","domain":"AE","category":"adverse_event"},{"dtc":"2024-10-14","dy":"188","event":"AE: Diarrhoea (MODERATE)","domain":"AE","category":"adverse_event"},{"dtc":"2024-10-14","dy":"188","event":"CM START: LOPERAMIDE","domain":"CM","category":"concomitant_med"},{"dtc":"2024-11-10","dy":"215","event":"AE: Diarrhoea (SEVERE) [SERIOUS]","domain":"AE","category":"adverse_event"},{"dtc":"2024-11-10","dy":"215","event":"CM START: LOPERAMIDE","domain":"CM","category":"concomitant_med"},{"dtc":"2024-11-13","dy":"218","event":"VISIT: WEEK 32","domain":"SV","category":"visit"},{"dtc":"2024-11-17","dy":"222","event":"AE: Vomiting (SEVERE) [SERIOUS]","domain":"AE","category":"adverse_event"},{"dtc":"2024-11-17","dy":"222","event":"CM START: ONDANSETRON","domain":"CM","category":"concomitant_med"},{"dtc":"2024-11-27","dy":"232","event":"DEVIATION: MISSED DOSE","domain":"DV","category":"deviation"},{"dtc":"2024-12-07","dy":"242","event":"AE: Vomiting (SEVERE) [SERIOUS]","domain":"AE","category":"adverse_event"},{"dtc":"2024-12-07","dy":"242","event":"CM START: ONDANSETRON","domain":"CM","category":"concomitant_med"},{"dtc":"2024-12-08","dy":"243","event":"AE: Fatigue (MILD)","domain":"AE","category":"adverse_event"},{"dtc":"2024-12-08","dy":"243","event":"AE: Lipase increased (MODERATE)","domain":"AE","category":"adverse_event"},{"dtc":"2024-12-08","dy":"243","event":"CM START: IBUPROFEN","domain":"CM","category":"concomitant_med"},{"dtc":"2025-01-07","dy":"273","event":"AE: Decreased appetite (MILD)","domain":"AE","category":"adverse_event"},{"dtc":"2025-01-07","dy":"273","event":"CM START: MEGESTROL","domain":"CM","category":"concomitant_med"},{"dtc":"2025-01-16","dy":"282","event":"AE: Nausea (MODERATE)","domain":"AE","category":"adverse_event"},{"dtc":"2025-01-17","dy":"283","event":"DEVIATION: VISIT OCCURRED OUTSIDE VISIT WINDOW","domain":"DV","category":"deviation"},{"dtc":"2025-01-17","dy":"283","event":"VISIT: WEEK 40","domain":"SV","category":"visit"},{"dtc":"2025-01-26","dy":"292","event":"AE: Dyspepsia (SEVERE) [SERIOUS]","domain":"AE","category":"adverse_event"},{"dtc":"2025-01-26","dy":"292","event":"AE: Abdominal pain (MILD)","domain":"AE","category":"adverse_event"},{"dtc":"2025-01-26","dy":"292","event":"CM START: PARACETAMOL","domain":"CM","category":"concomitant_med"},{"dtc":"2025-02-12","dy":"309","event":"DEVIATION: MISSED DOSE","domain":"DV","category":"deviation"},{"dtc":"2025-03-10","dy":"335","event":"AE: Dyspepsia (MILD)","domain":"AE","category":"adverse_event"},{"dtc":"2025-03-10","dy":"335","event":"CM START: FAMOTIDINE","domain":"CM","category":"concomitant_med"},{"dtc":"2025-03-12","dy":"337","event":"DEVIATION: MISSED DOSE","domain":"DV","category":"deviation"},{"dtc":"2025-04-02","dy":"358","event":"LAST DOSE: DULAGLUTIDE","domain":"EX","category":"exposure"},{"dtc":"2025-04-11","dy":"367","event":"VISIT: WEEK 52 EOT","domain":"SV","category":"visit"},{"dtc":"2025-05-01","dy":"387","event":"DEVIATION: VISIT OCCURRED OUTSIDE VISIT WINDOW","domain":"DV","category":"deviation"},{"dtc":"2025-05-01","dy":"387","event":"VISIT: WEEK 56 SAFETY FU","domain":"SV","category":"visit"},{"dtc":"2025-06-03","dy":"420","event":"COMPLETED","domain":"DS","category":"milestone"}],"section_1_demographics":{"usubjid":"I8F-JE-GPGO-SURPASS-JPN_TOKYO01-0016","subjid":"0016","siteid":"JPN_TOKYO01","age":"40","ageu":"YEARS","sex":"M","race":"ASIAN","ethnicity":"NOT HISPANIC OR LATINO","country":"JPN","arm":"Dulaglutide 0.75 mg QW SC (active control)","armcd":"DULA_075","actarm":"Dulaglutide 0.75 mg QW SC (active control)","actarmcd":"DULA_075","randomization_date":null,"informed_consent_date":"2024-03-18","reference_start_date":"2024-04-10","reference_end_date":"2025-06-03","screen_failure":false,"death_flag":null,"death_date":null,"subject_characteristics":[{"testcd":"ALCUSE","test":"Alcohol Use","orres":"NON-DRINKER","stresc":"NON-DRINKER","visit":null,"dtc":"2024-03-18"},{"testcd":"BMI","test":"Body Mass Index","orres":"26.7","stresc":"26.7","visit":null,"dtc":"2024-03-18"},{"testcd":"DURDIS","test":"Duration of Disease","orres":"255 months","stresc":"255","visit":null,"dtc":"2024-03-18"},{"testcd":"TOBPKYR","test":"Tobacco Pack-Years","orres":"24","stresc":"24","visit":null,"dtc":"2024-03-18"},{"testcd":"TOBUSE","test":"Tobacco Use","orres":"CURRENT SMOKER","stresc":"CURRENT SMOKER","visit":null,"dtc":"2024-03-18"}]},"section_2_medical_history":{"items":[{"seq":"1","term":"GASTROESOPHAGEAL REFLUX DISEASE","decod":"GASTROESOPHAGEAL REFLUX DISEASE","cat":"GASTROINTESTINAL","scat":null,"presp":null,"occur":null,"status":null,"onset_dtc":"2003-03-24","end_dtc":"2009-07-07","visit":null},{"seq":"2","term":"HYPERLIPIDEMIA","decod":"HYPERLIPIDEMIA","cat":"METABOLIC","scat":null,"presp":null,"occur":null,"status":null,"onset_dtc":"2003-03-24","end_dtc":null,"visit":null},{"seq":"3","term":"HYPERTENSION","decod":"HYPERTENSION","cat":"CARDIOVASCULAR","scat":null,"presp":null,"occur":null,"status":null,"onset_dtc":"2007-03-23","end_dtc":null,"visit":null}]},"section_3_inclusion_exclusion":{"criteria":[]},"section_4_trial_participation":{"visits":[{"visitnum":"1.0","visit":"SCREENING","start_dtc":"2024-03-08","end_dtc":"2024-03-08","updes":null},{"visitnum":"2.0","visit":"BASELINE","start_dtc":"2024-04-10","end_dtc":"2024-04-10","updes":null},{"visitnum":"3.0","visit":"WEEK 4","start_dtc":"2024-05-10","end_dtc":"2024-05-10","updes":null},{"visitnum":"4.0","visit":"WEEK 8","start_dtc":"2024-06-06","end_dtc":"2024-06-06","updes":null},{"visitnum":"5.0","visit":"WEEK 12","start_dtc":"2024-07-01","end_dtc":"2024-07-01","updes":null},{"visitnum":"6.0","visit":"WEEK 16","start_dtc":"2024-07-31","end_dtc":"2024-07-31","updes":null},{"visitnum":"7.0","visit":"WEEK 20","start_dtc":"2024-08-28","end_dtc":"2024-08-28","updes":null},{"visitnum":"8.0","visit":"WEEK 24","start_dtc":"2024-09-30","end_dtc":"2024-09-30","updes":null},{"visitnum":"9.0","visit":"WEEK 32","start_dtc":"2024-11-13","end_dtc":"2024-11-13","updes":null},{"visitnum":"10.0","visit":"WEEK 40","start_dtc":"2025-01-17","end_dtc":"2025-01-17","updes":null},{"visitnum":"11.0","visit":"WEEK 52 EOT","start_dtc":"2025-04-11","end_dtc":"2025-04-11","updes":null},{"visitnum":"12.0","visit":"WEEK 56 SAFETY FU","start_dtc":"2025-05-01","end_dtc":"2025-05-01","updes":null}],"epochs":[{"seq":"1","etcd":"SCRN","element":"Screening","start_dtc":"2024-03-13","end_dtc":"2024-04-10","updes":null},{"seq":"2","etcd":"TRT","element":"Treatment","start_dtc":"2024-04-10","end_dtc":"2025-04-09","updes":null},{"seq":"3","etcd":"FU","element":"Safety follow-up","start_dtc":"2025-04-09","end_dtc":"2025-05-06","updes":null}],"visit_count":12},"section_5_concomitant_medications":{"medications":[{"seq":"1","trt":"LISINOPRIL","decod":"LISINOPRIL","cat":"PRIOR","dose":"10","doseu":null,"dosef":"QD","route":"ORAL","indication":"HYPERTENSION","start_dtc":"2007-03-23","end_dtc":"2025-06-03","ongoing":null,"visit":null},{"seq":"2","trt":"LOPERAMIDE","decod":"LOPERAMIDE","cat":"CONCOMITANT","dose":"2","doseu":null,"dosef":"PRN","route":"ORAL","indication":"DIARRHOEA","start_dtc":"2024-05-05","end_dtc":"2024-05-27","ongoing":null,"visit":null},{"seq":"3","trt":"LOPERAMIDE","decod":"LOPERAMIDE","cat":"CONCOMITANT","dose":"2","doseu":null,"dosef":"PRN","route":"ORAL","indication":"DIARRHOEA","start_dtc":"2024-05-12","end_dtc":"2024-05-25","ongoing":null,"visit":null},{"seq":"4","trt":"LOPERAMIDE","decod":"LOPERAMIDE","cat":"CONCOMITANT","dose":"2","doseu":null,"dosef":"PRN","route":"ORAL","indication":"DIARRHOEA","start_dtc":"2024-05-16","end_dtc":"2024-06-03","ongoing":null,"visit":null},{"seq":"5","trt":"ONDANSETRON","decod":"ONDANSETRON","cat":"CONCOMITANT","dose":"4","doseu":null,"dosef":"PRN","route":"ORAL","indication":"NAUSEA","start_dtc":"2024-07-05","end_dtc":"2024-07-22","ongoing":null,"visit":null},{"seq":"6","trt":"IBUPROFEN","decod":"IBUPROFEN","cat":"CONCOMITANT","dose":null,"doseu":null,"dosef":"PRN","route":"ORAL","indication":null,"start_dtc":"2024-07-09","end_dtc":"2024-09-14","ongoing":null,"visit":null},{"seq":"7","trt":"PARACETAMOL","decod":"PARACETAMOL","cat":"CONCOMITANT","dose":"500","doseu":null,"dosef":"PRN","route":"ORAL","indication":"LIPASE INCREASED","start_dtc":"2024-08-20","end_dtc":"2024-09-05","ongoing":null,"visit":null},{"seq":"8","trt":"HYDROCORTISONE CREAM","decod":"HYDROCORTISONE CREAM","cat":"CONCOMITANT","dose":"1","doseu":null,"dosef":"BID","route":"TOPICAL","indication":"INJECTION SITE REACTION","start_dtc":"2024-08-20","end_dtc":"2024-09-03","ongoing":null,"visit":null},{"seq":"9","trt":"FAMOTIDINE","decod":"FAMOTIDINE","cat":"CONCOMITANT","dose":"20.0","doseu":null,"dosef":"BID","route":"ORAL","indication":"DYSPEPSIA","start_dtc":"2024-08-25","end_dtc":"2024-09-21","ongoing":null,"visit":null},{"seq":"10","trt":"METOCLOPRAMIDE","decod":"METOCLOPRAMIDE","cat":"CONCOMITANT","dose":"10","doseu":null,"dosef":"TID","route":"ORAL","indication":"NAUSEA","start_dtc":"2024-08-27","end_dtc":"2024-09-02","ongoing":null,"visit":null},{"seq":"11","trt":"LOPERAMIDE","decod":"LOPERAMIDE","cat":"CONCOMITANT","dose":"2","doseu":null,"dosef":"PRN","route":"ORAL","indication":"DIARRHOEA","start_dtc":"2024-10-14","end_dtc":"2024-11-02","ongoing":null,"visit":null},{"seq":"12","trt":"LOPERAMIDE","decod":"LOPERAMIDE","cat":"CONCOMITANT","dose":"2","doseu":null,"dosef":"PRN","route":"ORAL","indication":"DIARRHOEA","start_dtc":"2024-11-10","end_dtc":"2024-11-19","ongoing":null,"visit":null},{"seq":"13","trt":"ONDANSETRON","decod":"ONDANSETRON","cat":"CONCOMITANT","dose":"8","doseu":null,"dosef":"BID","route":"ORAL","indication":"VOMITING","start_dtc":"2024-11-17","end_dtc":"2024-12-01","ongoing":null,"visit":null},{"seq":"14","trt":"ONDANSETRON","decod":"ONDANSETRON","cat":"CONCOMITANT","dose":"8","doseu":null,"dosef":"BID","route":"ORAL","indication":"VOMITING","start_dtc":"2024-12-07","end_dtc":"2024-12-14","ongoing":null,"visit":null},{"seq":"15","trt":"IBUPROFEN","decod":"IBUPROFEN","cat":"CONCOMITANT","dose":"400","doseu":null,"dosef":"PRN","route":"ORAL","indication":"LIPASE INCREASED","start_dtc":"2024-12-08","end_dtc":"2024-12-19","ongoing":null,"visit":null},{"seq":"16","trt":"MEGESTROL","decod":"MEGESTROL","cat":"CONCOMITANT","dose":"400.0","doseu":null,"dosef":"QD","route":"ORAL","indication":"DECREASED APPETITE","start_dtc":"2025-01-07","end_dtc":"2025-01-24","ongoing":null,"visit":null},{"seq":"17","trt":"PARACETAMOL","decod":"PARACETAMOL","cat":"CONCOMITANT","dose":"500","doseu":null,"dosef":"PRN","route":"ORAL","indication":"ABDOMINAL PAIN","start_dtc":"2025-01-26","end_dtc":"2025-02-03","ongoing":null,"visit":null},{"seq":"18","trt":"FAMOTIDINE","decod":"FAMOTIDINE","cat":"CONCOMITANT","dose":"20.0","doseu":null,"dosef":"BID","route":"ORAL","indication":"DYSPEPSIA","start_dtc":"2025-03-10","end_dtc":"2025-04-06","ongoing":null,"visit":null}]},"section_6_exposure":{"exposure_as_administered":[{"seq":"1","trt":"DULAGLUTIDE","dose":"0.75","doseu":null,"dosef":"QW","route":"SUBCUTANEOUS","lot":null,"start_dtc":"2024-04-10","end_dtc":"2024-04-10","start_dy":"1","end_dy":"1","epoch":"TREATMENT","visit":null},{"seq":"2","trt":"DULAGLUTIDE","dose":"0.75","doseu":null,"dosef":"QW","route":"SUBCUTANEOUS","lot":null,"start_dtc":"2024-04-17","end_dtc":"2024-04-17","start_dy":"8","end_dy":"8","epoch":"TREATMENT","visit":null},{"seq":"3","trt":"DULAGLUTIDE","dose":"0.75","doseu":null,"dosef":"QW","route":"SUBCUTANEOUS","lot":null,"start_dtc":"2024-04-24","end_dtc":"2024-04-24","start_dy":"15","end_dy":"15","epoch":"TREATMENT","visit":null},{"seq":"4","trt":"DULAGLUTIDE","dose":"0.75","doseu":null,"dosef":"QW","route":"SUBCUTANEOUS","lot":null,"start_dtc":"2024-05-01","end_dtc":"2024-05-01","start_dy":"22","end_dy":"22","epoch":"TREATMENT","visit":null},{"seq":"5","trt":"DULAGLUTIDE","dose":"0.75","doseu":null,"dosef":"QW","route":"SUBCUTANEOUS","lot":null,"start_dtc":"2024-05-08","end_dtc":"2024-05-08","start_dy":"29","end_dy":"29","epoch":"TREATMENT","visit":null},{"seq":"6","trt":"DULAGLUTIDE","dose":"0.75","doseu":null,"dosef":"QW","route":"SUBCUTANEOUS","lot":null,"start_dtc":"2024-05-15","end_dtc":"2024-05-15","start_dy":"36","end_dy":"36","epoch":"TREATMENT","visit":null},{"seq":"7","trt":"DULAGLUTIDE","dose":"0.75","doseu":null,"dosef":"QW","route":"SUBCUTANEOUS","lot":null,"start_dtc":"2024-05-22","end_dtc":"2024-05-22","start_dy":"43","end_dy":"43","epoch":"TREATMENT","visit":null},{"seq":"8","trt":"DULAGLUTIDE","dose":"0.75","doseu":null,"dosef":"QW","route":"SUBCUTANEOUS","lot":null,"start_dtc":"2024-06-05","end_dtc":"2024-06-05","start_dy":"57","end_dy":"57","epoch":"TREATMENT","visit":null},{"seq":"9","trt":"DULAGLUTIDE","dose":"0.75","doseu":null,"dosef":"QW","route":"SUBCUTANEOUS","lot":null,"start_dtc":"2024-06-12","end_dtc":"2024-06-12","start_dy":"64","end_dy":"64","epoch":"TREATMENT","visit":null},{"seq":"10","trt":"DULAGLUTIDE","dose":"0.75","doseu":null,"dosef":"QW","route":"SUBCUTANEOUS","lot":null,"start_dtc":"2024-06-19","end_dtc":"2024-06-19","start_dy":"71","end_dy":"71","epoch":"TREATMENT","visit":null},{"seq":"11","trt":"DULAGLUTIDE","dose":"0.75","doseu":null,"dosef":"QW","route":"SUBCUTANEOUS","lot":null,"start_dtc":"2024-06-26","end_dtc":"2024-06-26","start_dy":"78","end_dy":"78","epoch":"TREATMENT","visit":null},{"seq":"12","trt":"DULAGLUTIDE","dose":"0.75","doseu":null,"dosef":"QW","route":"SUBCUTANEOUS","lot":null,"start_dtc":"2024-07-03","end_dtc":"2024-07-03","start_dy":"85","end_dy":"85","epoch":"TREATMENT","visit":null},{"seq":"13","trt":"DULAGLUTIDE","dose":"0.75","doseu":null,"dosef":"QW","route":"SUBCUTANEOUS","lot":null,"start_dtc":"2024-07-10","end_dtc":"2024-07-10","start_dy":"92","end_dy":"92","epoch":"TREATMENT","visit":null},{"seq":"14","trt":"DULAGLUTIDE","dose":"0.75","doseu":null,"dosef":"QW","route":"SUBCUTANEOUS","lot":null,"start_dtc":"2024-07-17","end_dtc":"2024-07-17","start_dy":"99","end_dy":"99","epoch":"TREATMENT","visit":null},{"seq":"15","trt":"DULAGLUTIDE","dose":"0.75","doseu":null,"dosef":"QW","route":"SUBCUTANEOUS","lot":null,"start_dtc":"2024-07-24","end_dtc":"2024-07-24","start_dy":"106","end_dy":"106","epoch":"TREATMENT","visit":null},{"seq":"16","trt":"DULAGLUTIDE","dose":"0.75","doseu":null,"dosef":"QW","route":"SUBCUTANEOUS","lot":null,"start_dtc":"2024-07-31","end_dtc":"2024-07-31","start_dy":"113","end_dy":"113","epoch":"TREATMENT","visit":null},{"seq":"17","trt":"DULAGLUTIDE","dose":"0.75","doseu":null,"dosef":"QW","route":"SUBCUTANEOUS","lot":null,"start_dtc":"2024-08-07","end_dtc":"2024-08-07","start_dy":"120","end_dy":"120","epoch":"TREATMENT","visit":null},{"seq":"18","trt":"DULAGLUTIDE","dose":"0.75","doseu":null,"dosef":"QW","route":"SUBCUTANEOUS","lot":null,"start_dtc":"2024-08-14","end_dtc":"2024-08-14","start_dy":"127","end_dy":"127","epoch":"TREATMENT","visit":null},{"seq":"19","trt":"DULAGLUTIDE","dose":"0.75","doseu":null,"dosef":"QW","route":"SUBCUTANEOUS","lot":null,"start_dtc":"2024-08-21","end_dtc":"2024-08-21","start_dy":"134","end_dy":"134","epoch":"TREATMENT","visit":null},{"seq":"20","trt":"DULAGLUTIDE","dose":"0.75","doseu":null,"dosef":"QW","route":"SUBCUTANEOUS","lot":null,"start_dtc":"2024-08-28","end_dtc":"2024-08-28","start_dy":"141","end_dy":"141","epoch":"TREATMENT","visit":null},{"seq":"21","trt":"DULAGLUTIDE","dose":"0.75","doseu":null,"dosef":"QW","route":"SUBCUTANEOUS","lot":null,"start_dtc":"2024-09-04","end_dtc":"2024-09-04","start_dy":"148","end_dy":"148","epoch":"TREATMENT","visit":null},{"seq":"22","trt":"DULAGLUTIDE","dose":"0.75","doseu":null,"dosef":"QW","route":"SUBCUTANEOUS","lot":null,"start_dtc":"2024-09-11","end_dtc":"2024-09-11","start_dy":"155","end_dy":"155","epoch":"TREATMENT","visit":null},{"seq":"23","trt":"DULAGLUTIDE","dose":"0.75","doseu":null,"dosef":"QW","route":"SUBCUTANEOUS","lot":null,"start_dtc":"2024-09-18","end_dtc":"2024-09-18","start_dy":"162","end_dy":"162","epoch":"TREATMENT","visit":null},{"seq":"24","trt":"DULAGLUTIDE","dose":"0.75","doseu":null,"dosef":"QW","route":"SUBCUTANEOUS","lot":null,"start_dtc":"2024-09-25","end_dtc":"2024-09-25","start_dy":"169","end_dy":"169","epoch":"TREATMENT","visit":null},{"seq":"25","trt":"DULAGLUTIDE","dose":"0.75","doseu":null,"dosef":"QW","route":"SUBCUTANEOUS","lot":null,"start_dtc":"2024-10-02","end_dtc":"2024-10-02","start_dy":"176","end_dy":"176","epoch":"TREATMENT","visit":null},{"seq":"26","trt":"DULAGLUTIDE","dose":"0.75","doseu":null,"dosef":"QW","route":"SUBCUTANEOUS","lot":null,"start_dtc":"2024-10-09","end_dtc":"2024-10-09","start_dy":"183","end_dy":"183","epoch":"TREATMENT","visit":null},{"seq":"27","trt":"DULAGLUTIDE","dose":"0.75","doseu":null,"dosef":"QW","route":"SUBCUTANEOUS","lot":null,"start_dtc":"2024-10-16","end_dtc":"2024-10-16","start_dy":"190","end_dy":"190","epoch":"TREATMENT","visit":null},{"seq":"28","trt":"DULAGLUTIDE","dose":"0.75","doseu":null,"dosef":"QW","route":"SUBCUTANEOUS","lot":null,"start_dtc":"2024-10-23","end_dtc":"2024-10-23","start_dy":"197","end_dy":"197","epoch":"TREATMENT","visit":null},{"seq":"29","trt":"DULAGLUTIDE","dose":"0.75","doseu":null,"dosef":"QW","route":"SUBCUTANEOUS","lot":null,"start_dtc":"2024-10-30","end_dtc":"2024-10-30","start_dy":"204","end_dy":"204","epoch":"TREATMENT","visit":null},{"seq":"30","trt":"DULAGLUTIDE","dose":"0.75","doseu":null,"dosef":"QW","route":"SUBCUTANEOUS","lot":null,"start_dtc":"2024-11-06","end_dtc":"2024-11-06","start_dy":"211","end_dy":"211","epoch":"TREATMENT","visit":null},{"seq":"31","trt":"DULAGLUTIDE","dose":"0.75","doseu":null,"dosef":"QW","route":"SUBCUTANEOUS","lot":null,"start_dtc":"2024-11-13","end_dtc":"2024-11-13","start_dy":"218","end_dy":"218","epoch":"TREATMENT","visit":null},{"seq":"32","trt":"DULAGLUTIDE","dose":"0.75","doseu":null,"dosef":"QW","route":"SUBCUTANEOUS","lot":null,"start_dtc":"2024-11-20","end_dtc":"2024-11-20","start_dy":"225","end_dy":"225","epoch":"TREATMENT","visit":null},{"seq":"33","trt":"DULAGLUTIDE","dose":"0.75","doseu":null,"dosef":"QW","route":"SUBCUTANEOUS","lot":null,"start_dtc":"2024-12-04","end_dtc":"2024-12-04","start_dy":"239","end_dy":"239","epoch":"TREATMENT","visit":null},{"seq":"34","trt":"DULAGLUTIDE","dose":"0.75","doseu":null,"dosef":"QW","route":"SUBCUTANEOUS","lot":null,"start_dtc":"2024-12-11","end_dtc":"2024-12-11","start_dy":"246","end_dy":"246","epoch":"TREATMENT","visit":null},{"seq":"35","trt":"DULAGLUTIDE","dose":"0.75","doseu":null,"dosef":"QW","route":"SUBCUTANEOUS","lot":null,"start_dtc":"2024-12-18","end_dtc":"2024-12-18","start_dy":"253","end_dy":"253","epoch":"TREATMENT","visit":null},{"seq":"36","trt":"DULAGLUTIDE","dose":"0.75","doseu":null,"dosef":"QW","route":"SUBCUTANEOUS","lot":null,"start_dtc":"2024-12-25","end_dtc":"2024-12-25","start_dy":"260","end_dy":"260","epoch":"TREATMENT","visit":null},{"seq":"37","trt":"DULAGLUTIDE","dose":"0.75","doseu":null,"dosef":"QW","route":"SUBCUTANEOUS","lot":null,"start_dtc":"2025-01-01","end_dtc":"2025-01-01","start_dy":"267","end_dy":"267","epoch":"TREATMENT","visit":null},{"seq":"38","trt":"DULAGLUTIDE","dose":"0.75","doseu":null,"dosef":"QW","route":"SUBCUTANEOUS","lot":null,"start_dtc":"2025-01-08","end_dtc":"2025-01-08","start_dy":"274","end_dy":"274","epoch":"TREATMENT","visit":null},{"seq":"39","trt":"DULAGLUTIDE","dose":"0.75","doseu":null,"dosef":"QW","route":"SUBCUTANEOUS","lot":null,"start_dtc":"2025-01-15","end_dtc":"2025-01-15","start_dy":"281","end_dy":"281","epoch":"TREATMENT","visit":null},{"seq":"40","trt":"DULAGLUTIDE","dose":"0.75","doseu":null,"dosef":"QW","route":"SUBCUTANEOUS","lot":null,"start_dtc":"2025-01-22","end_dtc":"2025-01-22","start_dy":"288","end_dy":"288","epoch":"TREATMENT","visit":null},{"seq":"41","trt":"DULAGLUTIDE","dose":"0.75","doseu":null,"dosef":"QW","route":"SUBCUTANEOUS","lot":null,"start_dtc":"2025-01-29","end_dtc":"2025-01-29","start_dy":"295","end_dy":"295","epoch":"TREATMENT","visit":null},{"seq":"42","trt":"DULAGLUTIDE","dose":"0.75","doseu":null,"dosef":"QW","route":"SUBCUTANEOUS","lot":null,"start_dtc":"2025-02-05","end_dtc":"2025-02-05","start_dy":"302","end_dy":"302","epoch":"TREATMENT","visit":null},{"seq":"43","trt":"DULAGLUTIDE","dose":"0.75","doseu":null,"dosef":"QW","route":"SUBCUTANEOUS","lot":null,"start_dtc":"2025-02-19","end_dtc":"2025-02-19","start_dy":"316","end_dy":"316","epoch":"TREATMENT","visit":null},{"seq":"44","trt":"DULAGLUTIDE","dose":"0.75","doseu":null,"dosef":"QW","route":"SUBCUTANEOUS","lot":null,"start_dtc":"2025-02-26","end_dtc":"2025-02-26","start_dy":"323","end_dy":"323","epoch":"TREATMENT","visit":null},{"seq":"45","trt":"DULAGLUTIDE","dose":"0.75","doseu":null,"dosef":"QW","route":"SUBCUTANEOUS","lot":null,"start_dtc":"2025-03-05","end_dtc":"2025-03-05","start_dy":"330","end_dy":"330","epoch":"TREATMENT","visit":null},{"seq":"46","trt":"DULAGLUTIDE","dose":"0.75","doseu":null,"dosef":"QW","route":"SUBCUTANEOUS","lot":null,"start_dtc":"2025-03-19","end_dtc":"2025-03-19","start_dy":"344","end_dy":"344","epoch":"TREATMENT","visit":null},{"seq":"47","trt":"DULAGLUTIDE","dose":"0.75","doseu":null,"dosef":"QW","route":"SUBCUTANEOUS","lot":null,"start_dtc":"2025-03-26","end_dtc":"2025-03-26","start_dy":"351","end_dy":"351","epoch":"TREATMENT","visit":null},{"seq":"48","trt":"DULAGLUTIDE","dose":"0.75","doseu":null,"dosef":"QW","route":"SUBCUTANEOUS","lot":null,"start_dtc":"2025-04-02","end_dtc":"2025-04-02","start_dy":"358","end_dy":"358","epoch":"TREATMENT","visit":null}],"exposure_as_collected":[{"seq":"1","trt":"DULAGLUTIDE","dose":"0.75","doseu":null,"dosef":"QW","route":"SUBCUTANEOUS","start_dtc":"2024-04-10","end_dtc":"2024-04-10","visit":"BASELINE"},{"seq":"2","trt":"DULAGLUTIDE","dose":"0.75","doseu":null,"dosef":"QW","route":"SUBCUTANEOUS","start_dtc":"2024-04-17","end_dtc":"2024-04-17","visit":null},{"seq":"3","trt":"DULAGLUTIDE","dose":"0.75","doseu":null,"dosef":"QW","route":"SUBCUTANEOUS","start_dtc":"2024-04-24","end_dtc":"2024-04-24","visit":null},{"seq":"4","trt":"DULAGLUTIDE","dose":"0.75","doseu":null,"dosef":"QW","route":"SUBCUTANEOUS","start_dtc":"2024-05-01","end_dtc":"2024-05-01","visit":null},{"seq":"5","trt":"DULAGLUTIDE","dose":"0.75","doseu":null,"dosef":"QW","route":"SUBCUTANEOUS","start_dtc":"2024-05-08","end_dtc":"2024-05-08","visit":"WEEK 4"},{"seq":"6","trt":"DULAGLUTIDE","dose":"0.75","doseu":null,"dosef":"QW","route":"SUBCUTANEOUS","start_dtc":"2024-05-15","end_dtc":"2024-05-15","visit":null},{"seq":"7","trt":"DULAGLUTIDE","dose":"0.75","doseu":null,"dosef":"QW","route":"SUBCUTANEOUS","start_dtc":"2024-05-22","end_dtc":"2024-05-22","visit":null},{"seq":"8","trt":"DULAGLUTIDE","dose":null,"doseu":null,"dosef":"QW","route":"SUBCUTANEOUS","start_dtc":"2024-05-29","end_dtc":"2024-05-29","visit":null},{"seq":"9","trt":"DULAGLUTIDE","dose":"0.75","doseu":null,"dosef":"QW","route":"SUBCUTANEOUS","start_dtc":"2024-06-05","end_dtc":"2024-06-05","visit":"WEEK 8"},{"seq":"10","trt":"DULAGLUTIDE","dose":"0.75","doseu":null,"dosef":"QW","route":"SUBCUTANEOUS","start_dtc":"2024-06-12","end_dtc":"2024-06-12","visit":null},{"seq":"11","trt":"DULAGLUTIDE","dose":"0.75","doseu":null,"dosef":"QW","route":"SUBCUTANEOUS","start_dtc":"2024-06-19","end_dtc":"2024-06-19","visit":null},{"seq":"12","trt":"DULAGLUTIDE","dose":"0.75","doseu":null,"dosef":"QW","route":"SUBCUTANEOUS","start_dtc":"2024-06-26","end_dtc":"2024-06-26","visit":null},{"seq":"13","trt":"DULAGLUTIDE","dose":"0.75","doseu":null,"dosef":"QW","route":"SUBCUTANEOUS","start_dtc":"2024-07-03","end_dtc":"2024-07-03","visit":"WEEK 12"},{"seq":"14","trt":"DULAGLUTIDE","dose":"0.75","doseu":null,"dosef":"QW","route":"SUBCUTANEOUS","start_dtc":"2024-07-10","end_dtc":"2024-07-10","visit":null},{"seq":"15","trt":"DULAGLUTIDE","dose":"0.75","doseu":null,"dosef":"QW","route":"SUBCUTANEOUS","start_dtc":"2024-07-17","end_dtc":"2024-07-17","visit":null},{"seq":"16","trt":"DULAGLUTIDE","dose":"0.75","doseu":null,"dosef":"QW","route":"SUBCUTANEOUS","start_dtc":"2024-07-24","end_dtc":"2024-07-24","visit":null},{"seq":"17","trt":"DULAGLUTIDE","dose":"0.75","doseu":null,"dosef":"QW","route":"SUBCUTANEOUS","start_dtc":"2024-07-31","end_dtc":"2024-07-31","visit":"WEEK 16"},{"seq":"18","trt":"DULAGLUTIDE","dose":"0.75","doseu":null,"dosef":"QW","route":"SUBCUTANEOUS","start_dtc":"2024-08-07","end_dtc":"2024-08-07","visit":null},{"seq":"19","trt":"DULAGLUTIDE","dose":"0.75","doseu":null,"dosef":"QW","route":"SUBCUTANEOUS","start_dtc":"2024-08-14","end_dtc":"2024-08-14","visit":null},{"seq":"20","trt":"DULAGLUTIDE","dose":"0.75","doseu":null,"dosef":"QW","route":"SUBCUTANEOUS","start_dtc":"2024-08-21","end_dtc":"2024-08-21","visit":null},{"seq":"21","trt":"DULAGLUTIDE","dose":"0.75","doseu":null,"dosef":"QW","route":"SUBCUTANEOUS","start_dtc":"2024-08-28","end_dtc":"2024-08-28","visit":"WEEK 20"},{"seq":"22","trt":"DULAGLUTIDE","dose":"0.75","doseu":null,"dosef":"QW","route":"SUBCUTANEOUS","start_dtc":"2024-09-04","end_dtc":"2024-09-04","visit":null},{"seq":"23","trt":"DULAGLUTIDE","dose":"0.75","doseu":null,"dosef":"QW","route":"SUBCUTANEOUS","start_dtc":"2024-09-11","end_dtc":"2024-09-11","visit":null},{"seq":"24","trt":"DULAGLUTIDE","dose":"0.75","doseu":null,"dosef":"QW","route":"SUBCUTANEOUS","start_dtc":"2024-09-18","end_dtc":"2024-09-18","visit":null},{"seq":"25","trt":"DULAGLUTIDE","dose":"0.75","doseu":null,"dosef":"QW","route":"SUBCUTANEOUS","start_dtc":"2024-09-25","end_dtc":"2024-09-25","visit":"WEEK 24"},{"seq":"26","trt":"DULAGLUTIDE","dose":"0.75","doseu":null,"dosef":"QW","route":"SUBCUTANEOUS","start_dtc":"2024-10-02","end_dtc":"2024-10-02","visit":null},{"seq":"27","trt":"DULAGLUTIDE","dose":"0.75","doseu":null,"dosef":"QW","route":"SUBCUTANEOUS","start_dtc":"2024-10-09","end_dtc":"2024-10-09","visit":null},{"seq":"28","trt":"DULAGLUTIDE","dose":"0.75","doseu":null,"dosef":"QW","route":"SUBCUTANEOUS","start_dtc":"2024-10-16","end_dtc":"2024-10-16","visit":null},{"seq":"29","trt":"DULAGLUTIDE","dose":"0.75","doseu":null,"dosef":"QW","route":"SUBCUTANEOUS","start_dtc":"2024-10-23","end_dtc":"2024-10-23","visit":null},{"seq":"30","trt":"DULAGLUTIDE","dose":"0.75","doseu":null,"dosef":"QW","route":"SUBCUTANEOUS","start_dtc":"2024-10-30","end_dtc":"2024-10-30","visit":null},{"seq":"31","trt":"DULAGLUTIDE","dose":"0.75","doseu":null,"dosef":"QW","route":"SUBCUTANEOUS","start_dtc":"2024-11-06","end_dtc":"2024-11-06","visit":null},{"seq":"32","trt":"DULAGLUTIDE","dose":"0.75","doseu":null,"dosef":"QW","route":"SUBCUTANEOUS","start_dtc":"2024-11-13","end_dtc":"2024-11-13","visit":null},{"seq":"33","trt":"DULAGLUTIDE","dose":"0.75","doseu":null,"dosef":"QW","route":"SUBCUTANEOUS","start_dtc":"2024-11-20","end_dtc":"2024-11-20","visit":"WEEK 32"},{"seq":"34","trt":"DULAGLUTIDE","dose":null,"doseu":null,"dosef":"QW","route":"SUBCUTANEOUS","start_dtc":"2024-11-27","end_dtc":"2024-11-27","visit":null},{"seq":"35","trt":"DULAGLUTIDE","dose":"0.75","doseu":null,"dosef":"QW","route":"SUBCUTANEOUS","start_dtc":"2024-12-04","end_dtc":"2024-12-04","visit":null},{"seq":"36","trt":"DULAGLUTIDE","dose":"0.75","doseu":null,"dosef":"QW","route":"SUBCUTANEOUS","start_dtc":"2024-12-11","end_dtc":"2024-12-11","visit":null},{"seq":"37","trt":"DULAGLUTIDE","dose":"0.75","doseu":null,"dosef":"QW","route":"SUBCUTANEOUS","start_dtc":"2024-12-18","end_dtc":"2024-12-18","visit":null},{"seq":"38","trt":"DULAGLUTIDE","dose":"0.75","doseu":null,"dosef":"QW","route":"SUBCUTANEOUS","start_dtc":"2024-12-25","end_dtc":"2024-12-25","visit":null},{"seq":"39","trt":"DULAGLUTIDE","dose":"0.75","doseu":null,"dosef":"QW","route":"SUBCUTANEOUS","start_dtc":"2025-01-01","end_dtc":"2025-01-01","visit":null},{"seq":"40","trt":"DULAGLUTIDE","dose":"0.75","doseu":null,"dosef":"QW","route":"SUBCUTANEOUS","start_dtc":"2025-01-08","end_dtc":"2025-01-08","visit":null},{"seq":"41","trt":"DULAGLUTIDE","dose":"0.75","doseu":null,"dosef":"QW","route":"SUBCUTANEOUS","start_dtc":"2025-01-15","end_dtc":"2025-01-15","visit":"WEEK 40"},{"seq":"42","trt":"DULAGLUTIDE","dose":"0.75","doseu":null,"dosef":"QW","route":"SUBCUTANEOUS","start_dtc":"2025-01-22","end_dtc":"2025-01-22","visit":null},{"seq":"43","trt":"DULAGLUTIDE","dose":"0.75","doseu":null,"dosef":"QW","route":"SUBCUTANEOUS","start_dtc":"2025-01-29","end_dtc":"2025-01-29","visit":null},{"seq":"44","trt":"DULAGLUTIDE","dose":"0.75","doseu":null,"dosef":"QW","route":"SUBCUTANEOUS","start_dtc":"2025-02-05","end_dtc":"2025-02-05","visit":null},{"seq":"45","trt":"DULAGLUTIDE","dose":null,"doseu":null,"dosef":"QW","route":"SUBCUTANEOUS","start_dtc":"2025-02-12","end_dtc":"2025-02-12","visit":null},{"seq":"46","trt":"DULAGLUTIDE","dose":"0.75","doseu":null,"dosef":"QW","route":"SUBCUTANEOUS","start_dtc":"2025-02-19","end_dtc":"2025-02-19","visit":null},{"seq":"47","trt":"DULAGLUTIDE","dose":"0.75","doseu":null,"dosef":"QW","route":"SUBCUTANEOUS","start_dtc":"2025-02-26","end_dtc":"2025-02-26","visit":null},{"seq":"48","trt":"DULAGLUTIDE","dose":"0.75","doseu":null,"dosef":"QW","route":"SUBCUTANEOUS","start_dtc":"2025-03-05","end_dtc":"2025-03-05","visit":null},{"seq":"49","trt":"DULAGLUTIDE","dose":null,"doseu":null,"dosef":"QW","route":"SUBCUTANEOUS","start_dtc":"2025-03-12","end_dtc":"2025-03-12","visit":null},{"seq":"50","trt":"DULAGLUTIDE","dose":"0.75","doseu":null,"dosef":"QW","route":"SUBCUTANEOUS","start_dtc":"2025-03-19","end_dtc":"2025-03-19","visit":null},{"seq":"51","trt":"DULAGLUTIDE","dose":"0.75","doseu":null,"dosef":"QW","route":"SUBCUTANEOUS","start_dtc":"2025-03-26","end_dtc":"2025-03-26","visit":null},{"seq":"52","trt":"DULAGLUTIDE","dose":"0.75","doseu":null,"dosef":"QW","route":"SUBCUTANEOUS","start_dtc":"2025-04-02","end_dtc":"2025-04-02","visit":null}]},"section_7_adverse_events":{"summary":{"total_aes":28,"serious_aes":9,"fatal_aes":0,"by_severity":{"SEVERE":9,"MILD":10,"MODERATE":9},"by_soc":{"Nervous system disorders":2,"Gastrointestinal disorders":21,"Investigations":2,"General disorders and administration site conditions":2,"Metabolism and nutrition disorders":1}},"events":[{"seq":"1","term":"HEADACHE","decod":"Headache","llt":"Headache","hlt":"Headaches NEC","hlgt":"Headaches","soc":"Nervous system disorders","bodsys":"Nervous system disorders","severity":"SEVERE","serious":"Y","causality":"NOT RELATED","action_taken":"DOSE NOT CHANGED","outcome":"RECOVERED/RESOLVED","fatal":"N","hospitalization":"N","life_threatening":"N","onset_dtc":"2024-04-28","end_dtc":"2024-05-13","onset_dy":"19","end_dy":"34","duration":null,"epoch":"TREATMENT","visit":null,"supplemental":{"AETRTEM":"Y"}},{"seq":"2","term":"CONSTIPATION","decod":"Constipation","llt":"Constipation","hlt":"Gastrointestinal motility and defaecation conditions NEC","hlgt":"Gastrointestinal motility and defaecation conditions","soc":"Gastrointestinal disorders","bodsys":"Gastrointestinal disorders","severity":"MILD","serious":"N","causality":"UNLIKELY RELATED","action_taken":"DOSE NOT CHANGED","outcome":"RECOVERED/RESOLVED","fatal":"N","hospitalization":"N","life_threatening":"N","onset_dtc":"2024-05-04","end_dtc":"2024-05-08","onset_dy":"25","end_dy":"29","duration":null,"epoch":"TREATMENT","visit":null,"supplemental":{"AETRTEM":"Y"}},{"seq":"3","term":"DIARRHOEA","decod":"Diarrhoea","llt":"Diarrhoea","hlt":"Diarrhoea (excl infective)","hlgt":"Gastrointestinal motility and defaecation conditions","soc":"Gastrointestinal disorders","bodsys":"Gastrointestinal disorders","severity":"SEVERE","serious":"Y","causality":"NOT RELATED","action_taken":"DOSE NOT CHANGED","outcome":"RECOVERED/RESOLVED","fatal":"N","hospitalization":"Y","life_threatening":"N","onset_dtc":"2024-05-05","end_dtc":"2024-05-12","onset_dy":"26","end_dy":"33","duration":null,"epoch":"TREATMENT","visit":null,"supplemental":{"AETRTEM":"Y"}},{"seq":"4","term":"DIARRHOEA","decod":"Diarrhoea","llt":"Diarrhoea","hlt":"Diarrhoea (excl infective)","hlgt":"Gastrointestinal motility and defaecation conditions","soc":"Gastrointestinal disorders","bodsys":"Gastrointestinal disorders","severity":"SEVERE","serious":"Y","causality":"NOT RELATED","action_taken":"DOSE NOT CHANGED","outcome":"RECOVERED/RESOLVED","fatal":"N","hospitalization":"Y","life_threatening":"N","onset_dtc":"2024-05-12","end_dtc":"2024-05-29","onset_dy":"33","end_dy":"50","duration":null,"epoch":"TREATMENT","visit":null,"supplemental":{"AETRTEM":"Y"}},{"seq":"5","term":"CONSTIPATION","decod":"Constipation","llt":"Constipation","hlt":"Gastrointestinal motility and defaecation conditions NEC","hlgt":"Gastrointestinal motility and defaecation conditions","soc":"Gastrointestinal disorders","bodsys":"Gastrointestinal disorders","severity":"MODERATE","serious":"N","causality":"POSSIBLY RELATED","action_taken":"DRUG INTERRUPTED","outcome":"RECOVERED/RESOLVED","fatal":"N","hospitalization":"N","life_threatening":"N","onset_dtc":"2024-05-16","end_dtc":"2024-05-23","onset_dy":"37","end_dy":"44","duration":null,"epoch":"TREATMENT","visit":null,"supplemental":{"AETRTEM":"Y"}},{"seq":"6","term":"DIARRHOEA","decod":"Diarrhoea","llt":"Diarrhoea","hlt":"Diarrhoea (excl infective)","hlgt":"Gastrointestinal motility and defaecation conditions","soc":"Gastrointestinal disorders","bodsys":"Gastrointestinal disorders","severity":"MODERATE","serious":"N","causality":"POSSIBLY RELATED","action_taken":"DOSE REDUCED","outcome":"RECOVERING/RESOLVING","fatal":"N","hospitalization":"N","life_threatening":"N","onset_dtc":"2024-05-16","end_dtc":"2024-05-30","onset_dy":"37","end_dy":"51","duration":null,"epoch":"TREATMENT","visit":null,"supplemental":{"AETRTEM":"Y"}},{"seq":"7","term":"NAUSEA","decod":"Nausea","llt":"Nausea","hlt":"Nausea and vomiting symptoms","hlgt":"Gastrointestinal signs and symptoms","soc":"Gastrointestinal disorders","bodsys":"Gastrointestinal disorders","severity":"MILD","serious":"N","causality":"NOT RELATED","action_taken":"DOSE NOT CHANGED","outcome":"RECOVERING/RESOLVING","fatal":"N","hospitalization":"N","life_threatening":"N","onset_dtc":"2024-05-28","end_dtc":"2024-05-29","onset_dy":"49","end_dy":"50","duration":null,"epoch":"TREATMENT","visit":null,"supplemental":{"AETRTEM":"Y"}},{"seq":"8","term":"NAUSEA","decod":"Nausea","llt":"Nausea","hlt":"Nausea and vomiting symptoms","hlgt":"Gastrointestinal signs and symptoms","soc":"Gastrointestinal disorders","bodsys":"Gastrointestinal disorders","severity":"MODERATE","serious":"N","causality":"UNLIKELY RELATED","action_taken":"DOSE NOT CHANGED","outcome":"RECOVERING/RESOLVING","fatal":"N","hospitalization":"N","life_threatening":"N","onset_dtc":"2024-07-05","end_dtc":"2024-07-10","onset_dy":"87","end_dy":"92","duration":null,"epoch":"TREATMENT","visit":null,"supplemental":{"AETRTEM":"Y"}},{"seq":"9","term":"DIARRHOEA","decod":"Diarrhoea","llt":"Diarrhoea","hlt":"Diarrhoea (excl infective)","hlgt":"Gastrointestinal motility and defaecation conditions","soc":"Gastrointestinal disorders","bodsys":"Gastrointestinal disorders","severity":"MILD","serious":"N","causality":"NOT RELATED","action_taken":"DOSE NOT CHANGED","outcome":"RECOVERED/RESOLVED","fatal":"N","hospitalization":"N","life_threatening":"N","onset_dtc":"2024-07-05","end_dtc":"2024-07-08","onset_dy":"87","end_dy":"90","duration":null,"epoch":"TREATMENT","visit":null,"supplemental":{"AETRTEM":"Y"}},{"seq":"10","term":"HEADACHE","decod":"Headache","llt":"Headache","hlt":"Headaches NEC","hlgt":"Headaches","soc":"Nervous system disorders","bodsys":"Nervous system disorders","severity":"SEVERE","serious":"Y","causality":"NOT RELATED","action_taken":"DOSE NOT CHANGED","outcome":"RECOVERED/RESOLVED","fatal":"N","hospitalization":"Y","life_threatening":"N","onset_dtc":"2024-07-20","end_dtc":"2024-07-31","onset_dy":"102","end_dy":"113","duration":null,"epoch":"TREATMENT","visit":null,"supplemental":{"AETRTEM":"Y"}},{"seq":"11","term":"NAUSEA","decod":"Nausea","llt":"Nausea","hlt":"Nausea and vomiting symptoms","hlgt":"Gastrointestinal signs and symptoms","soc":"Gastrointestinal disorders","bodsys":"Gastrointestinal disorders","severity":"MILD","serious":"N","causality":"NOT RELATED","action_taken":"DOSE NOT CHANGED","outcome":"NOT RECOVERED/NOT RESOLVED","fatal":"N","hospitalization":"N","life_threatening":"N","onset_dtc":"2024-08-06","end_dtc":null,"onset_dy":"119","end_dy":null,"duration":null,"epoch":"TREATMENT","visit":null,"supplemental":{"AETRTEM":"Y"}},{"seq":"12","term":"LIPASE INCREASED","decod":"Lipase increased","llt":"Lipase increased","hlt":"Pancreatic enzymes","hlgt":"Gastrointestinal investigations","soc":"Investigations","bodsys":"Investigations","severity":"MILD","serious":"N","causality":"NOT RELATED","action_taken":"DOSE NOT CHANGED","outcome":"RECOVERED/RESOLVED","fatal":"N","hospitalization":"N","life_threatening":"N","onset_dtc":"2024-08-20","end_dtc":"2024-08-24","onset_dy":"133","end_dy":"137","duration":null,"epoch":"TREATMENT","visit":null,"supplemental":{"AETRTEM":"Y"}},{"seq":"13","term":"INJECTION SITE REACTION","decod":"Injection site reaction","llt":"Injection site reaction","hlt":"Injection site reactions","hlgt":"Administration site reactions","soc":"General disorders and administration site conditions","bodsys":"General disorders and administration site conditions","severity":"MODERATE","serious":"N","causality":"NOT RELATED","action_taken":"DOSE NOT CHANGED","outcome":"RECOVERED/RESOLVED","fatal":"N","hospitalization":"N","life_threatening":"N","onset_dtc":"2024-08-20","end_dtc":"2024-09-02","onset_dy":"133","end_dy":"146","duration":null,"epoch":"TREATMENT","visit":null,"supplemental":{"AETRTEM":"Y"}},{"seq":"14","term":"DYSPEPSIA","decod":"Dyspepsia","llt":"Dyspepsia","hlt":"Dyspeptic signs and symptoms","hlgt":"Gastrointestinal signs and symptoms","soc":"Gastrointestinal disorders","bodsys":"Gastrointestinal disorders","severity":"SEVERE","serious":"Y","causality":"NOT RELATED","action_taken":"DOSE NOT CHANGED","outcome":"RECOVERED/RESOLVED","fatal":"N","hospitalization":"Y","life_threatening":"N","onset_dtc":"2024-08-25","end_dtc":"2024-10-17","onset_dy":"138","end_dy":"191","duration":null,"epoch":"TREATMENT","visit":null,"supplemental":{"AETRTEM":"Y"}},{"seq":"15","term":"NAUSEA","decod":"Nausea","llt":"Nausea","hlt":"Nausea and vomiting symptoms","hlgt":"Gastrointestinal signs and symptoms","soc":"Gastrointestinal disorders","bodsys":"Gastrointestinal disorders","severity":"MODERATE","serious":"N","causality":"NOT RELATED","action_taken":"DOSE NOT CHANGED","outcome":"RECOVERED/RESOLVED","fatal":"N","hospitalization":"N","life_threatening":"N","onset_dtc":"2024-08-27","end_dtc":"2024-09-01","onset_dy":"140","end_dy":"145","duration":null,"epoch":"TREATMENT","visit":null,"supplemental":{"AETRTEM":"Y"}},{"seq":"16","term":"VOMITING","decod":"Vomiting","llt":"Vomiting","hlt":"Nausea and vomiting symptoms","hlgt":"Gastrointestinal signs and symptoms","soc":"Gastrointestinal disorders","bodsys":"Gastrointestinal disorders","severity":"MILD","serious":"N","causality":"NOT RELATED","action_taken":"DOSE NOT CHANGED","outcome":"RECOVERED/RESOLVED","fatal":"N","hospitalization":"N","life_threatening":"N","onset_dtc":"2024-09-20","end_dtc":"2024-09-21","onset_dy":"164","end_dy":"165","duration":null,"epoch":"TREATMENT","visit":null,"supplemental":{"AETRTEM":"Y"}},{"seq":"17","term":"VOMITING","decod":"Vomiting","llt":"Vomiting","hlt":"Nausea and vomiting symptoms","hlgt":"Gastrointestinal signs and symptoms","soc":"Gastrointestinal disorders","bodsys":"Gastrointestinal disorders","severity":"MODERATE","serious":"N","causality":"NOT RELATED","action_taken":"DOSE NOT CHANGED","outcome":"NOT RECOVERED/NOT RESOLVED","fatal":"N","hospitalization":"N","life_threatening":"N","onset_dtc":"2024-10-04","end_dtc":null,"onset_dy":"178","end_dy":null,"duration":null,"epoch":"TREATMENT","visit":null,"supplemental":{"AETRTEM":"Y"}},{"seq":"18","term":"DIARRHOEA","decod":"Diarrhoea","llt":"Diarrhoea","hlt":"Diarrhoea (excl infective)","hlgt":"Gastrointestinal motility and defaecation conditions","soc":"Gastrointestinal disorders","bodsys":"Gastrointestinal disorders","severity":"MODERATE","serious":"N","causality":"NOT RELATED","action_taken":"DOSE NOT CHANGED","outcome":"RECOVERING/RESOLVING","fatal":"N","hospitalization":"N","life_threatening":"N","onset_dtc":"2024-10-14","end_dtc":"2024-10-25","onset_dy":"188","end_dy":"199","duration":null,"epoch":"TREATMENT","visit":null,"supplemental":{"AETRTEM":"Y"}},{"seq":"19","term":"DIARRHOEA","decod":"Diarrhoea","llt":"Diarrhoea","hlt":"Diarrhoea (excl infective)","hlgt":"Gastrointestinal motility and defaecation conditions","soc":"Gastrointestinal disorders","bodsys":"Gastrointestinal disorders","severity":"SEVERE","serious":"Y","causality":"NOT RELATED","action_taken":"DOSE NOT CHANGED","outcome":"RECOVERED/RESOLVED","fatal":"N","hospitalization":"Y","life_threatening":"N","onset_dtc":"2024-11-10","end_dtc":"2024-11-22","onset_dy":"215","end_dy":"227","duration":null,"epoch":"TREATMENT","visit":null,"supplemental":{"AETRTEM":"Y"}},{"seq":"20","term":"VOMITING","decod":"Vomiting","llt":"Vomiting","hlt":"Nausea and vomiting symptoms","hlgt":"Gastrointestinal signs and symptoms","soc":"Gastrointestinal disorders","bodsys":"Gastrointestinal disorders","severity":"SEVERE","serious":"Y","causality":"NOT RELATED","action_taken":"DOSE NOT CHANGED","outcome":"RECOVERED/RESOLVED","fatal":"N","hospitalization":"N","life_threatening":"N","onset_dtc":"2024-11-17","end_dtc":"2024-11-24","onset_dy":"222","end_dy":"229","duration":null,"epoch":"TREATMENT","visit":null,"supplemental":{"AETRTEM":"Y"}},{"seq":"21","term":"VOMITING","decod":"Vomiting","llt":"Vomiting","hlt":"Nausea and vomiting symptoms","hlgt":"Gastrointestinal signs and symptoms","soc":"Gastrointestinal disorders","bodsys":"Gastrointestinal disorders","severity":"SEVERE","serious":"Y","causality":"NOT RELATED","action_taken":"DOSE NOT CHANGED","outcome":"NOT RECOVERED/NOT RESOLVED","fatal":"N","hospitalization":"N","life_threatening":"N","onset_dtc":"2024-12-07","end_dtc":null,"onset_dy":"242","end_dy":null,"duration":null,"epoch":"TREATMENT","visit":null,"supplemental":{"AETRTEM":"Y"}},{"seq":"22","term":"FATIGUE","decod":"Fatigue","llt":"Fatigue","hlt":"Asthenic conditions","hlgt":"General system disorders NEC","soc":"General disorders and administration site conditions","bodsys":"General disorders and administration site conditions","severity":"MILD","serious":"N","causality":"UNLIKELY RELATED","action_taken":"DOSE NOT CHANGED","outcome":"RECOVERED/RESOLVED","fatal":"N","hospitalization":"N","life_threatening":"N","onset_dtc":"2024-12-08","end_dtc":"2024-12-20","onset_dy":"243","end_dy":"255","duration":null,"epoch":"TREATMENT","visit":null,"supplemental":{"AETRTEM":"Y"}},{"seq":"23","term":"LIPASE INCREASED","decod":"Lipase increased","llt":"Lipase increased","hlt":"Pancreatic enzymes","hlgt":"Gastrointestinal investigations","soc":"Investigations","bodsys":"Investigations","severity":"MODERATE","serious":"N","causality":"NOT RELATED","action_taken":"DOSE NOT CHANGED","outcome":"RECOVERED/RESOLVED","fatal":"N","hospitalization":"N","life_threatening":"N","onset_dtc":"2024-12-08","end_dtc":"2025-01-05","onset_dy":"243","end_dy":"271","duration":null,"epoch":"TREATMENT","visit":null,"supplemental":{"AETRTEM":"Y"}},{"seq":"24","term":"DECREASED APPETITE","decod":"Decreased appetite","llt":"Decreased appetite","hlt":"Appetite disorders","hlgt":"Eating disorders and disturbances","soc":"Metabolism and nutrition disorders","bodsys":"Metabolism and nutrition disorders","severity":"MILD","serious":"N","causality":"NOT RELATED","action_taken":"DOSE NOT CHANGED","outcome":"RECOVERING/RESOLVING","fatal":"N","hospitalization":"N","life_threatening":"N","onset_dtc":"2025-01-07","end_dtc":"2025-01-15","onset_dy":"273","end_dy":"281","duration":null,"epoch":"TREATMENT","visit":null,"supplemental":{"AETRTEM":"Y"}},{"seq":"25","term":"NAUSEA","decod":"Nausea","llt":"Nausea","hlt":"Nausea and vomiting symptoms","hlgt":"Gastrointestinal signs and symptoms","soc":"Gastrointestinal disorders","bodsys":"Gastrointestinal disorders","severity":"MODERATE","serious":"N","causality":"NOT RELATED","action_taken":"DOSE NOT CHANGED","outcome":"RECOVERED/RESOLVED","fatal":"N","hospitalization":"N","life_threatening":"N","onset_dtc":"2025-01-16","end_dtc":"2025-01-19","onset_dy":"282","end_dy":"285","duration":null,"epoch":"TREATMENT","visit":null,"supplemental":{"AETRTEM":"Y"}},{"seq":"26","term":"DYSPEPSIA","decod":"Dyspepsia","llt":"Dyspepsia","hlt":"Dyspeptic signs and symptoms","hlgt":"Gastrointestinal signs and symptoms","soc":"Gastrointestinal disorders","bodsys":"Gastrointestinal disorders","severity":"SEVERE","serious":"Y","causality":"NOT RELATED","action_taken":"DOSE NOT CHANGED","outcome":"RECOVERING/RESOLVING","fatal":"N","hospitalization":"Y","life_threatening":"N","onset_dtc":"2025-01-26","end_dtc":"2025-02-06","onset_dy":"292","end_dy":"303","duration":null,"epoch":"TREATMENT","visit":null,"supplemental":{"AETRTEM":"Y"}},{"seq":"27","term":"ABDOMINAL PAIN","decod":"Abdominal pain","llt":"Abdominal pain","hlt":"Gastrointestinal and abdominal pains (excl oral and throat)","hlgt":"Gastrointestinal signs and symptoms","soc":"Gastrointestinal disorders","bodsys":"Gastrointestinal disorders","severity":"MILD","serious":"N","causality":"NOT RELATED","action_taken":"DOSE NOT CHANGED","outcome":"RECOVERED/RESOLVED","fatal":"N","hospitalization":"N","life_threatening":"N","onset_dtc":"2025-01-26","end_dtc":"2025-02-02","onset_dy":"292","end_dy":"299","duration":null,"epoch":"TREATMENT","visit":null,"supplemental":{"AETRTEM":"Y"}},{"seq":"28","term":"DYSPEPSIA","decod":"Dyspepsia","llt":"Dyspepsia","hlt":"Dyspeptic signs and symptoms","hlgt":"Gastrointestinal signs and symptoms","soc":"Gastrointestinal disorders","bodsys":"Gastrointestinal disorders","severity":"MILD","serious":"N","causality":"NOT RELATED","action_taken":"DOSE NOT CHANGED","outcome":"RECOVERING/RESOLVING","fatal":"N","hospitalization":"N","life_threatening":"N","onset_dtc":"2025-03-10","end_dtc":"2025-03-18","onset_dy":"335","end_dy":"343","duration":null,"epoch":"TREATMENT","visit":null,"supplemental":{"AETRTEM":"Y"}}]},"section_8_laboratory_results":{"summary":{"total_records":70,"abnormal_count":10,"abnormal_pct":14.3},"shift_summary":[{"testcd":"ALT","baseline_value":19.11,"baseline_nrind":"NORMAL","worst_post_baseline_value":23.27,"worst_post_baseline_nrind":"NORMAL","worst_visit":"WEEK 20"},{"testcd":"AST","baseline_value":22.54,"baseline_nrind":"NORMAL","worst_post_baseline_value":23.31,"worst_post_baseline_nrind":"NORMAL","worst_visit":"WEEK 8"},{"testcd":"CREAT","baseline_value":68.72,"baseline_nrind":"NORMAL","worst_post_baseline_value":79.57,"worst_post_baseline_nrind":"NORMAL","worst_visit":"WEEK 32"},{"testcd":"GLUC","baseline_value":8.75,"baseline_nrind":"HIGH","worst_post_baseline_value":8.79,"worst_post_baseline_nrind":"HIGH","worst_visit":"WEEK 32"},{"testcd":"HGB","baseline_value":164.28,"baseline_nrind":"NORMAL","worst_post_baseline_value":159.86,"worst_post_baseline_nrind":"NORMAL","worst_visit":"WEEK 56 SAFETY FU"},{"testcd":"PLAT","baseline_value":204.69,"baseline_nrind":"NORMAL","worst_post_baseline_value":221.6,"worst_post_baseline_nrind":"NORMAL","worst_visit":"WEEK 24"},{"testcd":"WBC","baseline_value":6.83,"baseline_nrind":"NORMAL","worst_post_baseline_value":7.21,"worst_post_baseline_nrind":"NORMAL","worst_visit":"WEEK 40"}],"results":[{"seq":"1","testcd":"ALT","test":"Alanine Aminotransferase","cat":"CHEMISTRY","orres":"19.11","orresu":"U/L","stresc":"19.11","stresn":"19.11","stresu":"U/L","stnrlo":"7","stnrhi":"56","nrind":"NORMAL","fast":null,"dtc":"2024-03-08","dy":"-33","visit":"SCREENING","visitnum":"1.0","epoch":"SCREENING","spec":null,"method":null},{"seq":"2","testcd":"AST","test":"Aspartate Aminotransferase","cat":"CHEMISTRY","orres":"22.54","orresu":"U/L","stresc":"22.54","stresn":"22.54","stresu":"U/L","stnrlo":"10","stnrhi":"40","nrind":"NORMAL","fast":null,"dtc":"2024-03-08","dy":"-33","visit":"SCREENING","visitnum":"1.0","epoch":"SCREENING","spec":null,"method":null},{"seq":"3","testcd":"CREAT","test":"Creatinine","cat":"CHEMISTRY","orres":"68.72","orresu":"umol/L","stresc":"68.72","stresn":"68.72","stresu":"umol/L","stnrlo":"62","stnrhi":"106","nrind":"NORMAL","fast":null,"dtc":"2024-03-08","dy":"-33","visit":"SCREENING","visitnum":"1.0","epoch":"SCREENING","spec":null,"method":null},{"seq":"4","testcd":"GLUC","test":"Glucose","cat":"CHEMISTRY","orres":"8.75","orresu":"mmol/L","stresc":"8.75","stresn":"8.75","stresu":"mmol/L","stnrlo":"3.9","stnrhi":"5.6","nrind":"HIGH","fast":null,"dtc":"2024-03-08","dy":"-33","visit":"SCREENING","visitnum":"1.0","epoch":"SCREENING","spec":null,"method":null},{"seq":"5","testcd":"HGB","test":"Hemoglobin","cat":"HEMATOLOGY","orres":"164.28","orresu":"g/L","stresc":"164.28","stresn":"164.28","stresu":"g/L","stnrlo":"130","stnrhi":"175","nrind":"NORMAL","fast":null,"dtc":"2024-03-08","dy":"-33","visit":"SCREENING","visitnum":"1.0","epoch":"SCREENING","spec":null,"method":null},{"seq":"6","testcd":"PLAT","test":"Platelets","cat":"HEMATOLOGY","orres":"204.69","orresu":"10^9/L","stresc":"204.69","stresn":"204.69","stresu":"10^9/L","stnrlo":"150","stnrhi":"400","nrind":"NORMAL","fast":null,"dtc":"2024-03-08","dy":"-33","visit":"SCREENING","visitnum":"1.0","epoch":"SCREENING","spec":null,"method":null},{"seq":"7","testcd":"WBC","test":"Leukocytes","cat":"HEMATOLOGY","orres":"6.83","orresu":"10^9/L","stresc":"6.83","stresn":"6.83","stresu":"10^9/L","stnrlo":"4.0","stnrhi":"11.0","nrind":"NORMAL","fast":null,"dtc":"2024-03-08","dy":"-33","visit":"SCREENING","visitnum":"1.0","epoch":"SCREENING","spec":null,"method":null},{"seq":"8","testcd":"ALT","test":"Alanine Aminotransferase","cat":"CHEMISTRY","orres":"20.68","orresu":"U/L","stresc":"20.68","stresn":"20.68","stresu":"U/L","stnrlo":"7","stnrhi":"56","nrind":"NORMAL","fast":null,"dtc":"2024-04-10","dy":"1","visit":"BASELINE","visitnum":"2.0","epoch":"TREATMENT","spec":null,"method":null},{"seq":"9","testcd":"AST","test":"Aspartate Aminotransferase","cat":"CHEMISTRY","orres":"22.32","orresu":"U/L","stresc":"22.32","stresn":"22.32","stresu":"U/L","stnrlo":"10","stnrhi":"40","nrind":"NORMAL","fast":null,"dtc":"2024-04-10","dy":"1","visit":"BASELINE","visitnum":"2.0","epoch":"TREATMENT","spec":null,"method":null},{"seq":"10","testcd":"CREAT","test":"Creatinine","cat":"CHEMISTRY","orres":"71.0","orresu":"umol/L","stresc":"71.0","stresn":"71.0","stresu":"umol/L","stnrlo":"62","stnrhi":"106","nrind":"NORMAL","fast":null,"dtc":"2024-04-10","dy":"1","visit":"BASELINE","visitnum":"2.0","epoch":"TREATMENT","spec":null,"method":null},{"seq":"11","testcd":"GLUC","test":"Glucose","cat":"CHEMISTRY","orres":"8.63","orresu":"mmol/L","stresc":"8.63","stresn":"8.63","stresu":"mmol/L","stnrlo":"3.9","stnrhi":"5.6","nrind":"HIGH","fast":null,"dtc":"2024-04-10","dy":"1","visit":"BASELINE","visitnum":"2.0","epoch":"TREATMENT","spec":null,"method":null},{"seq":"12","testcd":"HGB","test":"Hemoglobin","cat":"HEMATOLOGY","orres":"161.5","orresu":"g/L","stresc":"161.5","stresn":"161.5","stresu":"g/L","stnrlo":"130","stnrhi":"175","nrind":"NORMAL","fast":null,"dtc":"2024-04-10","dy":"1","visit":"BASELINE","visitnum":"2.0","epoch":"TREATMENT","spec":null,"method":null},{"seq":"13","testcd":"PLAT","test":"Platelets","cat":"HEMATOLOGY","orres":"203.37","orresu":"10^9/L","stresc":"203.37","stresn":"203.37","stresu":"10^9/L","stnrlo":"150","stnrhi":"400","nrind":"NORMAL","fast":null,"dtc":"2024-04-10","dy":"1","visit":"BASELINE","visitnum":"2.0","epoch":"TREATMENT","spec":null,"method":null},{"seq":"14","testcd":"WBC","test":"Leukocytes","cat":"HEMATOLOGY","orres":"6.49","orresu":"10^9/L","stresc":"6.49","stresn":"6.49","stresu":"10^9/L","stnrlo":"4.0","stnrhi":"11.0","nrind":"NORMAL","fast":null,"dtc":"2024-04-10","dy":"1","visit":"BASELINE","visitnum":"2.0","epoch":"TREATMENT","spec":null,"method":null},{"seq":"15","testcd":"ALT","test":"Alanine Aminotransferase","cat":"CHEMISTRY","orres":"20.26","orresu":"U/L","stresc":"20.26","stresn":"20.26","stresu":"U/L","stnrlo":"7","stnrhi":"56","nrind":"NORMAL","fast":null,"dtc":"2024-05-10","dy":"31","visit":"WEEK 4","visitnum":"3.0","epoch":"TREATMENT","spec":null,"method":null},{"seq":"16","testcd":"AST","test":"Aspartate Aminotransferase","cat":"CHEMISTRY","orres":"23.27","orresu":"U/L","stresc":"23.27","stresn":"23.27","stresu":"U/L","stnrlo":"10","stnrhi":"40","nrind":"NORMAL","fast":null,"dtc":"2024-05-10","dy":"31","visit":"WEEK 4","visitnum":"3.0","epoch":"TREATMENT","spec":null,"method":null},{"seq":"17","testcd":"CREAT","test":"Creatinine","cat":"CHEMISTRY","orres":null,"orresu":null,"stresc":null,"stresn":null,"stresu":null,"stnrlo":null,"stnrhi":null,"nrind":null,"fast":null,"dtc":"2024-05-10","dy":"31","visit":"WEEK 4","visitnum":"3.0","epoch":"TREATMENT","spec":null,"method":null},{"seq":"18","testcd":"GLUC","test":"Glucose","cat":"CHEMISTRY","orres":"8.47","orresu":"mmol/L","stresc":"8.47","stresn":"8.47","stresu":"mmol/L","stnrlo":"3.9","stnrhi":"5.6","nrind":"HIGH","fast":null,"dtc":"2024-05-10","dy":"31","visit":"WEEK 4","visitnum":"3.0","epoch":"TREATMENT","spec":null,"method":null},{"seq":"19","testcd":"HGB","test":"Hemoglobin","cat":"HEMATOLOGY","orres":"163.17","orresu":"g/L","stresc":"163.17","stresn":"163.17","stresu":"g/L","stnrlo":"130","stnrhi":"175","nrind":"NORMAL","fast":null,"dtc":"2024-05-10","dy":"31","visit":"WEEK 4","visitnum":"3.0","epoch":"TREATMENT","spec":null,"method":null},{"seq":"20","testcd":"PLAT","test":"Platelets","cat":"HEMATOLOGY","orres":"190.02","orresu":"10^9/L","stresc":"190.02","stresn":"190.02","stresu":"10^9/L","stnrlo":"150","stnrhi":"400","nrind":"NORMAL","fast":null,"dtc":"2024-05-10","dy":"31","visit":"WEEK 4","visitnum":"3.0","epoch":"TREATMENT","spec":null,"method":null},{"seq":"21","testcd":"WBC","test":"Leukocytes","cat":"HEMATOLOGY","orres":"5.73","orresu":"10^9/L","stresc":"5.73","stresn":"5.73","stresu":"10^9/L","stnrlo":"4.0","stnrhi":"11.0","nrind":"NORMAL","fast":null,"dtc":"2024-05-10","dy":"31","visit":"WEEK 4","visitnum":"3.0","epoch":"TREATMENT","spec":null,"method":null},{"seq":"22","testcd":"ALT","test":"Alanine Aminotransferase","cat":"CHEMISTRY","orres":"20.0","orresu":"U/L","stresc":"20.0","stresn":"20.0","stresu":"U/L","stnrlo":"7","stnrhi":"56","nrind":"NORMAL","fast":null,"dtc":"2024-06-06","dy":"58","visit":"WEEK 8","visitnum":"4.0","epoch":"TREATMENT","spec":null,"method":null},{"seq":"23","testcd":"AST","test":"Aspartate Aminotransferase","cat":"CHEMISTRY","orres":"23.31","orresu":"U/L","stresc":"23.31","stresn":"23.31","stresu":"U/L","stnrlo":"10","stnrhi":"40","nrind":"NORMAL","fast":null,"dtc":"2024-06-06","dy":"58","visit":"WEEK 8","visitnum":"4.0","epoch":"TREATMENT","spec":null,"method":null},{"seq":"24","testcd":"CREAT","test":"Creatinine","cat":"CHEMISTRY","orres":"72.99","orresu":"umol/L","stresc":"72.99","stresn":"72.99","stresu":"umol/L","stnrlo":"62","stnrhi":"106","nrind":"NORMAL","fast":null,"dtc":"2024-06-06","dy":"58","visit":"WEEK 8","visitnum":"4.0","epoch":"TREATMENT","spec":null,"method":null},{"seq":"25","testcd":"GLUC","test":"Glucose","cat":"CHEMISTRY","orres":"8.66","orresu":"mmol/L","stresc":"8.66","stresn":"8.66","stresu":"mmol/L","stnrlo":"3.9","stnrhi":"5.6","nrind":"HIGH","fast":null,"dtc":"2024-06-06","dy":"58","visit":"WEEK 8","visitnum":"4.0","epoch":"TREATMENT","spec":null,"method":null},{"seq":"26","testcd":"HGB","test":"Hemoglobin","cat":"HEMATOLOGY","orres":"163.69","orresu":"g/L","stresc":"163.69","stresn":"163.69","stresu":"g/L","stnrlo":"130","stnrhi":"175","nrind":"NORMAL","fast":null,"dtc":"2024-06-06","dy":"58","visit":"WEEK 8","visitnum":"4.0","epoch":"TREATMENT","spec":null,"method":null},{"seq":"27","testcd":"PLAT","test":"Platelets","cat":"HEMATOLOGY","orres":"201.85","orresu":"10^9/L","stresc":"201.85","stresn":"201.85","stresu":"10^9/L","stnrlo":"150","stnrhi":"400","nrind":"NORMAL","fast":null,"dtc":"2024-06-06","dy":"58","visit":"WEEK 8","visitnum":"4.0","epoch":"TREATMENT","spec":null,"method":null},{"seq":"28","testcd":"WBC","test":"Leukocytes","cat":"HEMATOLOGY","orres":"5.98","orresu":"10^9/L","stresc":"5.98","stresn":"5.98","stresu":"10^9/L","stnrlo":"4.0","stnrhi":"11.0","nrind":"NORMAL","fast":null,"dtc":"2024-06-06","dy":"58","visit":"WEEK 8","visitnum":"4.0","epoch":"TREATMENT","spec":null,"method":null},{"seq":"29","testcd":"ALT","test":"Alanine Aminotransferase","cat":"CHEMISTRY","orres":"19.45","orresu":"U/L","stresc":"19.45","stresn":"19.45","stresu":"U/L","stnrlo":"7","stnrhi":"56","nrind":"NORMAL","fast":null,"dtc":"2024-07-31","dy":"113","visit":"WEEK 16","visitnum":"6.0","epoch":"TREATMENT","spec":null,"method":null},{"seq":"30","testcd":"AST","test":"Aspartate Aminotransferase","cat":"CHEMISTRY","orres":"21.56","orresu":"U/L","stresc":"21.56","stresn":"21.56","stresu":"U/L","stnrlo":"10","stnrhi":"40","nrind":"NORMAL","fast":null,"dtc":"2024-07-31","dy":"113","visit":"WEEK 16","visitnum":"6.0","epoch":"TREATMENT","spec":null,"method":null},{"seq":"31","testcd":"CREAT","test":"Creatinine","cat":"CHEMISTRY","orres":"77.49","orresu":"umol/L","stresc":"77.49","stresn":"77.49","stresu":"umol/L","stnrlo":"62","stnrhi":"106","nrind":"NORMAL","fast":null,"dtc":"2024-07-31","dy":"113","visit":"WEEK 16","visitnum":"6.0","epoch":"TREATMENT","spec":null,"method":null},{"seq":"32","testcd":"GLUC","test":"Glucose","cat":"CHEMISTRY","orres":"8.67","orresu":"mmol/L","stresc":"8.67","stresn":"8.67","stresu":"mmol/L","stnrlo":"3.9","stnrhi":"5.6","nrind":"HIGH","fast":null,"dtc":"2024-07-31","dy":"113","visit":"WEEK 16","visitnum":"6.0","epoch":"TREATMENT","spec":null,"method":null},{"seq":"33","testcd":"HGB","test":"Hemoglobin","cat":"HEMATOLOGY","orres":"163.2","orresu":"g/L","stresc":"163.2","stresn":"163.2","stresu":"g/L","stnrlo":"130","stnrhi":"175","nrind":"NORMAL","fast":null,"dtc":"2024-07-31","dy":"113","visit":"WEEK 16","visitnum":"6.0","epoch":"TREATMENT","spec":null,"method":null},{"seq":"34","testcd":"PLAT","test":"Platelets","cat":"HEMATOLOGY","orres":null,"orresu":null,"stresc":null,"stresn":null,"stresu":null,"stnrlo":null,"stnrhi":null,"nrind":null,"fast":null,"dtc":"2024-07-31","dy":"113","visit":"WEEK 16","visitnum":"6.0","epoch":"TREATMENT","spec":null,"method":null},{"seq":"35","testcd":"WBC","test":"Leukocytes","cat":"HEMATOLOGY","orres":"5.31","orresu":"10^9/L","stresc":"5.31","stresn":"5.31","stresu":"10^9/L","stnrlo":"4.0","stnrhi":"11.0","nrind":"NORMAL","fast":null,"dtc":"2024-07-31","dy":"113","visit":"WEEK 16","visitnum":"6.0","epoch":"TREATMENT","spec":null,"method":null},{"seq":"36","testcd":"ALT","test":"Alanine Aminotransferase","cat":"CHEMISTRY","orres":"23.27","orresu":"U/L","stresc":"23.27","stresn":"23.27","stresu":"U/L","stnrlo":"7","stnrhi":"56","nrind":"NORMAL","fast":null,"dtc":"2024-08-28","dy":"141","visit":"WEEK 20","visitnum":"7.0","epoch":"TREATMENT","spec":null,"method":null},{"seq":"37","testcd":"AST","test":"Aspartate Aminotransferase","cat":"CHEMISTRY","orres":"22.97","orresu":"U/L","stresc":"22.97","stresn":"22.97","stresu":"U/L","stnrlo":"10","stnrhi":"40","nrind":"NORMAL","fast":null,"dtc":"2024-08-28","dy":"141","visit":"WEEK 20","visitnum":"7.0","epoch":"TREATMENT","spec":null,"method":null},{"seq":"38","testcd":"CREAT","test":"Creatinine","cat":"CHEMISTRY","orres":"76.26","orresu":"umol/L","stresc":"76.26","stresn":"76.26","stresu":"umol/L","stnrlo":"62","stnrhi":"106","nrind":"NORMAL","fast":null,"dtc":"2024-08-28","dy":"141","visit":"WEEK 20","visitnum":"7.0","epoch":"TREATMENT","spec":null,"method":null},{"seq":"39","testcd":"GLUC","test":"Glucose","cat":"CHEMISTRY","orres":"8.69","orresu":"mmol/L","stresc":"8.69","stresn":"8.69","stresu":"mmol/L","stnrlo":"3.9","stnrhi":"5.6","nrind":"HIGH","fast":null,"dtc":"2024-08-28","dy":"141","visit":"WEEK 20","visitnum":"7.0","epoch":"TREATMENT","spec":null,"method":null},{"seq":"40","testcd":"HGB","test":"Hemoglobin","cat":"HEMATOLOGY","orres":"162.69","orresu":"g/L","stresc":"162.69","stresn":"162.69","stresu":"g/L","stnrlo":"130","stnrhi":"175","nrind":"NORMAL","fast":null,"dtc":"2024-08-28","dy":"141","visit":"WEEK 20","visitnum":"7.0","epoch":"TREATMENT","spec":null,"method":null},{"seq":"41","testcd":"PLAT","test":"Platelets","cat":"HEMATOLOGY","orres":"207.92","orresu":"10^9/L","stresc":"207.92","stresn":"207.92","stresu":"10^9/L","stnrlo":"150","stnrhi":"400","nrind":"NORMAL","fast":null,"dtc":"2024-08-28","dy":"141","visit":"WEEK 20","visitnum":"7.0","epoch":"TREATMENT","spec":null,"method":null},{"seq":"42","testcd":"WBC","test":"Leukocytes","cat":"HEMATOLOGY","orres":"5.55","orresu":"10^9/L","stresc":"5.55","stresn":"5.55","stresu":"10^9/L","stnrlo":"4.0","stnrhi":"11.0","nrind":"NORMAL","fast":null,"dtc":"2024-08-28","dy":"141","visit":"WEEK 20","visitnum":"7.0","epoch":"TREATMENT","spec":null,"method":null},{"seq":"43","testcd":"ALT","test":"Alanine Aminotransferase","cat":"CHEMISTRY","orres":"19.51","orresu":"U/L","stresc":"19.51","stresn":"19.51","stresu":"U/L","stnrlo":"7","stnrhi":"56","nrind":"NORMAL","fast":null,"dtc":"2024-09-30","dy":"174","visit":"WEEK 24","visitnum":"8.0","epoch":"TREATMENT","spec":null,"method":null},{"seq":"44","testcd":"AST","test":"Aspartate Aminotransferase","cat":"CHEMISTRY","orres":"22.88","orresu":"U/L","stresc":"22.88","stresn":"22.88","stresu":"U/L","stnrlo":"10","stnrhi":"40","nrind":"NORMAL","fast":null,"dtc":"2024-09-30","dy":"174","visit":"WEEK 24","visitnum":"8.0","epoch":"TREATMENT","spec":null,"method":null},{"seq":"45","testcd":"CREAT","test":"Creatinine","cat":"CHEMISTRY","orres":"79.48","orresu":"umol/L","stresc":"79.48","stresn":"79.48","stresu":"umol/L","stnrlo":"62","stnrhi":"106","nrind":"NORMAL","fast":null,"dtc":"2024-09-30","dy":"174","visit":"WEEK 24","visitnum":"8.0","epoch":"TREATMENT","spec":null,"method":null},{"seq":"46","testcd":"GLUC","test":"Glucose","cat":"CHEMISTRY","orres":"8.76","orresu":"mmol/L","stresc":"8.76","stresn":"8.76","stresu":"mmol/L","stnrlo":"3.9","stnrhi":"5.6","nrind":"HIGH","fast":null,"dtc":"2024-09-30","dy":"174","visit":"WEEK 24","visitnum":"8.0","epoch":"TREATMENT","spec":null,"method":null},{"seq":"47","testcd":"HGB","test":"Hemoglobin","cat":"HEMATOLOGY","orres":"162.72","orresu":"g/L","stresc":"162.72","stresn":"162.72","stresu":"g/L","stnrlo":"130","stnrhi":"175","nrind":"NORMAL","fast":null,"dtc":"2024-09-30","dy":"174","visit":"WEEK 24","visitnum":"8.0","epoch":"TREATMENT","spec":null,"method":null},{"seq":"48","testcd":"PLAT","test":"Platelets","cat":"HEMATOLOGY","orres":"221.6","orresu":"10^9/L","stresc":"221.6","stresn":"221.6","stresu":"10^9/L","stnrlo":"150","stnrhi":"400","nrind":"NORMAL","fast":null,"dtc":"2024-09-30","dy":"174","visit":"WEEK 24","visitnum":"8.0","epoch":"TREATMENT","spec":null,"method":null},{"seq":"49","testcd":"WBC","test":"Leukocytes","cat":"HEMATOLOGY","orres":"6.32","orresu":"10^9/L","stresc":"6.32","stresn":"6.32","stresu":"10^9/L","stnrlo":"4.0","stnrhi":"11.0","nrind":"NORMAL","fast":null,"dtc":"2024-09-30","dy":"174","visit":"WEEK 24","visitnum":"8.0","epoch":"TREATMENT","spec":null,"method":null},{"seq":"50","testcd":"ALT","test":"Alanine Aminotransferase","cat":"CHEMISTRY","orres":"19.53","orresu":"U/L","stresc":"19.53","stresn":"19.53","stresu":"U/L","stnrlo":"7","stnrhi":"56","nrind":"NORMAL","fast":null,"dtc":"2024-11-13","dy":"218","visit":"WEEK 32","visitnum":"9.0","epoch":"TREATMENT","spec":null,"method":null},{"seq":"51","testcd":"AST","test":"Aspartate Aminotransferase","cat":"CHEMISTRY","orres":"21.83","orresu":"U/L","stresc":"21.83","stresn":"21.83","stresu":"U/L","stnrlo":"10","stnrhi":"40","nrind":"NORMAL","fast":null,"dtc":"2024-11-13","dy":"218","visit":"WEEK 32","visitnum":"9.0","epoch":"TREATMENT","spec":null,"method":null},{"seq":"52","testcd":"CREAT","test":"Creatinine","cat":"CHEMISTRY","orres":"79.57","orresu":"umol/L","stresc":"79.57","stresn":"79.57","stresu":"umol/L","stnrlo":"62","stnrhi":"106","nrind":"NORMAL","fast":null,"dtc":"2024-11-13","dy":"218","visit":"WEEK 32","visitnum":"9.0","epoch":"TREATMENT","spec":null,"method":null},{"seq":"53","testcd":"GLUC","test":"Glucose","cat":"CHEMISTRY","orres":"8.79","orresu":"mmol/L","stresc":"8.79","stresn":"8.79","stresu":"mmol/L","stnrlo":"3.9","stnrhi":"5.6","nrind":"HIGH","fast":null,"dtc":"2024-11-13","dy":"218","visit":"WEEK 32","visitnum":"9.0","epoch":"TREATMENT","spec":null,"method":null},{"seq":"54","testcd":"HGB","test":"Hemoglobin","cat":"HEMATOLOGY","orres":"161.89","orresu":"g/L","stresc":"161.89","stresn":"161.89","stresu":"g/L","stnrlo":"130","stnrhi":"175","nrind":"NORMAL","fast":null,"dtc":"2024-11-13","dy":"218","visit":"WEEK 32","visitnum":"9.0","epoch":"TREATMENT","spec":null,"method":null},{"seq":"55","testcd":"PLAT","test":"Platelets","cat":"HEMATOLOGY","orres":"218.01","orresu":"10^9/L","stresc":"218.01","stresn":"218.01","stresu":"10^9/L","stnrlo":"150","stnrhi":"400","nrind":"NORMAL","fast":null,"dtc":"2024-11-13","dy":"218","visit":"WEEK 32","visitnum":"9.0","epoch":"TREATMENT","spec":null,"method":null},{"seq":"56","testcd":"WBC","test":"Leukocytes","cat":"HEMATOLOGY","orres":"6.18","orresu":"10^9/L","stresc":"6.18","stresn":"6.18","stresu":"10^9/L","stnrlo":"4.0","stnrhi":"11.0","nrind":"NORMAL","fast":null,"dtc":"2024-11-13","dy":"218","visit":"WEEK 32","visitnum":"9.0","epoch":"TREATMENT","spec":null,"method":null},{"seq":"57","testcd":"ALT","test":"Alanine Aminotransferase","cat":"CHEMISTRY","orres":"20.21","orresu":"U/L","stresc":"20.21","stresn":"20.21","stresu":"U/L","stnrlo":"7","stnrhi":"56","nrind":"NORMAL","fast":null,"dtc":"2025-01-17","dy":"283","visit":"WEEK 40","visitnum":"10.0","epoch":"TREATMENT","spec":null,"method":null},{"seq":"58","testcd":"AST","test":"Aspartate Aminotransferase","cat":"CHEMISTRY","orres":"20.43","orresu":"U/L","stresc":"20.43","stresn":"20.43","stresu":"U/L","stnrlo":"10","stnrhi":"40","nrind":"NORMAL","fast":null,"dtc":"2025-01-17","dy":"283","visit":"WEEK 40","visitnum":"10.0","epoch":"TREATMENT","spec":null,"method":null},{"seq":"59","testcd":"CREAT","test":"Creatinine","cat":"CHEMISTRY","orres":"77.73","orresu":"umol/L","stresc":"77.73","stresn":"77.73","stresu":"umol/L","stnrlo":"62","stnrhi":"106","nrind":"NORMAL","fast":null,"dtc":"2025-01-17","dy":"283","visit":"WEEK 40","visitnum":"10.0","epoch":"TREATMENT","spec":null,"method":null},{"seq":"60","testcd":"GLUC","test":"Glucose","cat":"CHEMISTRY","orres":"8.69","orresu":"mmol/L","stresc":"8.69","stresn":"8.69","stresu":"mmol/L","stnrlo":"3.9","stnrhi":"5.6","nrind":"HIGH","fast":null,"dtc":"2025-01-17","dy":"283","visit":"WEEK 40","visitnum":"10.0","epoch":"TREATMENT","spec":null,"method":null},{"seq":"61","testcd":"HGB","test":"Hemoglobin","cat":"HEMATOLOGY","orres":"160.1","orresu":"g/L","stresc":"160.1","stresn":"160.1","stresu":"g/L","stnrlo":"130","stnrhi":"175","nrind":"NORMAL","fast":null,"dtc":"2025-01-17","dy":"283","visit":"WEEK 40","visitnum":"10.0","epoch":"TREATMENT","spec":null,"method":null},{"seq":"62","testcd":"PLAT","test":"Platelets","cat":"HEMATOLOGY","orres":"214.02","orresu":"10^9/L","stresc":"214.02","stresn":"214.02","stresu":"10^9/L","stnrlo":"150","stnrhi":"400","nrind":"NORMAL","fast":null,"dtc":"2025-01-17","dy":"283","visit":"WEEK 40","visitnum":"10.0","epoch":"TREATMENT","spec":null,"method":null},{"seq":"63","testcd":"WBC","test":"Leukocytes","cat":"HEMATOLOGY","orres":"7.21","orresu":"10^9/L","stresc":"7.21","stresn":"7.21","stresu":"10^9/L","stnrlo":"4.0","stnrhi":"11.0","nrind":"NORMAL","fast":null,"dtc":"2025-01-17","dy":"283","visit":"WEEK 40","visitnum":"10.0","epoch":"TREATMENT","spec":null,"method":null},{"seq":"64","testcd":"ALT","test":"Alanine Aminotransferase","cat":"CHEMISTRY","orres":"13.76","orresu":"U/L","stresc":"13.76","stresn":"13.76","stresu":"U/L","stnrlo":"7","stnrhi":"56","nrind":"NORMAL","fast":null,"dtc":"2025-05-01","dy":"387","visit":"WEEK 56 SAFETY FU","visitnum":"12.0","epoch":"FOLLOW-UP","spec":null,"method":null},{"seq":"65","testcd":"AST","test":"Aspartate Aminotransferase","cat":"CHEMISTRY","orres":"19.83","orresu":"U/L","stresc":"19.83","stresn":"19.83","stresu":"U/L","stnrlo":"10","stnrhi":"40","nrind":"NORMAL","fast":null,"dtc":"2025-05-01","dy":"387","visit":"WEEK 56 SAFETY FU","visitnum":"12.0","epoch":"FOLLOW-UP","spec":null,"method":null},{"seq":"66","testcd":"CREAT","test":"Creatinine","cat":"CHEMISTRY","orres":"74.82","orresu":"umol/L","stresc":"74.82","stresn":"74.82","stresu":"umol/L","stnrlo":"62","stnrhi":"106","nrind":"NORMAL","fast":null,"dtc":"2025-05-01","dy":"387","visit":"WEEK 56 SAFETY FU","visitnum":"12.0","epoch":"FOLLOW-UP","spec":null,"method":null},{"seq":"67","testcd":"GLUC","test":"Glucose","cat":"CHEMISTRY","orres":"8.64","orresu":"mmol/L","stresc":"8.64","stresn":"8.64","stresu":"mmol/L","stnrlo":"3.9","stnrhi":"5.6","nrind":"HIGH","fast":null,"dtc":"2025-05-01","dy":"387","visit":"WEEK 56 SAFETY FU","visitnum":"12.0","epoch":"FOLLOW-UP","spec":null,"method":null},{"seq":"68","testcd":"HGB","test":"Hemoglobin","cat":"HEMATOLOGY","orres":"159.86","orresu":"g/L","stresc":"159.86","stresn":"159.86","stresu":"g/L","stnrlo":"130","stnrhi":"175","nrind":"NORMAL","fast":null,"dtc":"2025-05-01","dy":"387","visit":"WEEK 56 SAFETY FU","visitnum":"12.0","epoch":"FOLLOW-UP","spec":null,"method":null},{"seq":"69","testcd":"PLAT","test":"Platelets","cat":"HEMATOLOGY","orres":"202.89","orresu":"10^9/L","stresc":"202.89","stresn":"202.89","stresu":"10^9/L","stnrlo":"150","stnrhi":"400","nrind":"NORMAL","fast":null,"dtc":"2025-05-01","dy":"387","visit":"WEEK 56 SAFETY FU","visitnum":"12.0","epoch":"FOLLOW-UP","spec":null,"method":null},{"seq":"70","testcd":"WBC","test":"Leukocytes","cat":"HEMATOLOGY","orres":"6.98","orresu":"10^9/L","stresc":"6.98","stresn":"6.98","stresu":"10^9/L","stnrlo":"4.0","stnrhi":"11.0","nrind":"NORMAL","fast":null,"dtc":"2025-05-01","dy":"387","visit":"WEEK 56 SAFETY FU","visitnum":"12.0","epoch":"FOLLOW-UP","spec":null,"method":null}]},"section_9_vital_signs":{"summary":{"total_records":94},"trends":{"BMI":[{"visit":"SCREENING","visitnum":"1.0","dtc":"2024-03-08","value":"26.7","unit":"kg/m2"},{"visit":"BASELINE","visitnum":"2.0","dtc":"2024-04-10","value":"26.6","unit":"kg/m2"},{"visit":"WEEK 8","visitnum":"4.0","dtc":"2024-06-06","value":"26.0","unit":"kg/m2"},{"visit":"WEEK 12","visitnum":"5.0","dtc":"2024-07-01","value":"25.9","unit":"kg/m2"},{"visit":"WEEK 16","visitnum":"6.0","dtc":"2024-07-31","value":"27.9","unit":"kg/m2"},{"visit":"WEEK 20","visitnum":"7.0","dtc":"2024-08-28","value":"27.3","unit":"kg/m2"},{"visit":"WEEK 24","visitnum":"8.0","dtc":"2024-09-30","value":"26.8","unit":"kg/m2"},{"visit":"WEEK 32","visitnum":"9.0","dtc":"2024-11-13","value":"28.1","unit":"kg/m2"},{"visit":"WEEK 40","visitnum":"10.0","dtc":"2025-01-17","value":"27.5","unit":"kg/m2"},{"visit":"WEEK 56 SAFETY FU","visitnum":"12.0","dtc":"2025-05-01","value":"28.5","unit":"kg/m2"}],"DIABP":[{"visit":"SCREENING","visitnum":"1.0","dtc":"2024-03-08","value":"70.6","unit":"mmHg"},{"visit":"BASELINE","visitnum":"2.0","dtc":"2024-04-10","value":"70.1","unit":"mmHg"},{"visit":"WEEK 4","visitnum":"3.0","dtc":"2024-05-10","value":"70.1","unit":"mmHg"},{"visit":"WEEK 8","visitnum":"4.0","dtc":"2024-06-06","value":"69.2","unit":"mmHg"},{"visit":"WEEK 12","visitnum":"5.0","dtc":"2024-07-01","value":"70.9","unit":"mmHg"},{"visit":"WEEK 16","visitnum":"6.0","dtc":"2024-07-31","value":"71.4","unit":"mmHg"},{"visit":"WEEK 20","visitnum":"7.0","dtc":"2024-08-28","value":"71.0","unit":"mmHg"},{"visit":"WEEK 24","visitnum":"8.0","dtc":"2024-09-30","value":"70.7","unit":"mmHg"},{"visit":"WEEK 32","visitnum":"9.0","dtc":"2024-11-13","value":"69.0","unit":"mmHg"},{"visit":"WEEK 40","visitnum":"10.0","dtc":"2025-01-17","value":"69.9","unit":"mmHg"},{"visit":"WEEK 56 SAFETY FU","visitnum":"12.0","dtc":"2025-05-01","value":"69.4","unit":"mmHg"}],"HEIGHT":[{"visit":"SCREENING","visitnum":"1.0","dtc":"2024-03-08","value":"180.5","unit":"cm"},{"visit":"BASELINE","visitnum":"2.0","dtc":"2024-04-10","value":"180.5","unit":"cm"},{"visit":"WEEK 8","visitnum":"4.0","dtc":"2024-06-06","value":"181.0","unit":"cm"},{"visit":"WEEK 12","visitnum":"5.0","dtc":"2024-07-01","value":"181.2","unit":"cm"},{"visit":"WEEK 16","visitnum":"6.0","dtc":"2024-07-31","value":"180.8","unit":"cm"},{"visit":"WEEK 20","visitnum":"7.0","dtc":"2024-08-28","value":"180.9","unit":"cm"},{"visit":"WEEK 24","visitnum":"8.0","dtc":"2024-09-30","value":"181.0","unit":"cm"},{"visit":"WEEK 32","visitnum":"9.0","dtc":"2024-11-13","value":"180.3","unit":"cm"},{"visit":"WEEK 40","visitnum":"10.0","dtc":"2025-01-17","value":"179.9","unit":"cm"},{"visit":"WEEK 56 SAFETY FU","visitnum":"12.0","dtc":"2025-05-01","value":"179.1","unit":"cm"}],"PULSE":[{"visit":"SCREENING","visitnum":"1.0","dtc":"2024-03-08","value":"68.3","unit":"beats/min"},{"visit":"BASELINE","visitnum":"2.0","dtc":"2024-04-10","value":"70.6","unit":"beats/min"},{"visit":"WEEK 4","visitnum":"3.0","dtc":"2024-05-10","value":"84.2","unit":"beats/min"},{"visit":"WEEK 8","visitnum":"4.0","dtc":"2024-06-06","value":"80.7","unit":"beats/min"},{"visit":"WEEK 12","visitnum":"5.0","dtc":"2024-07-01","value":"69.5","unit":"beats/min"},{"visit":"WEEK 16","visitnum":"6.0","dtc":"2024-07-31","value":"64.5","unit":"beats/min"},{"visit":"WEEK 20","visitnum":"7.0","dtc":"2024-08-28","value":"65.8","unit":"beats/min"},{"visit":"WEEK 24","visitnum":"8.0","dtc":"2024-09-30","value":"65.1","unit":"beats/min"},{"visit":"WEEK 32","visitnum":"9.0","dtc":"2024-11-13","value":"71.5","unit":"beats/min"},{"visit":"WEEK 40","visitnum":"10.0","dtc":"2025-01-17","value":"64.1","unit":"beats/min"},{"visit":"WEEK 52 EOT","visitnum":"11.0","dtc":"2025-04-11","value":"63.7","unit":"beats/min"},{"visit":"WEEK 56 SAFETY FU","visitnum":"12.0","dtc":"2025-05-01","value":"66.2","unit":"beats/min"}],"RESP":[{"visit":"BASELINE","visitnum":"2.0","dtc":"2024-04-10","value":"15.7","unit":"breaths/min"},{"visit":"WEEK 4","visitnum":"3.0","dtc":"2024-05-10","value":"15.6","unit":"breaths/min"},{"visit":"WEEK 8","visitnum":"4.0","dtc":"2024-06-06","value":"15.8","unit":"breaths/min"},{"visit":"WEEK 12","visitnum":"5.0","dtc":"2024-07-01","value":"15.9","unit":"breaths/min"},{"visit":"WEEK 16","visitnum":"6.0","dtc":"2024-07-31","value":"16.5","unit":"breaths/min"},{"visit":"WEEK 20","visitnum":"7.0","dtc":"2024-08-28","value":"16.8","unit":"breaths/min"},{"visit":"WEEK 24","visitnum":"8.0","dtc":"2024-09-30","value":"17.2","unit":"breaths/min"},{"visit":"WEEK 32","visitnum":"9.0","dtc":"2024-11-13","value":"17.2","unit":"breaths/min"},{"visit":"WEEK 40","visitnum":"10.0","dtc":"2025-01-17","value":"15.6","unit":"breaths/min"},{"visit":"WEEK 52 EOT","visitnum":"11.0","dtc":"2025-04-11","value":"17.0","unit":"breaths/min"},{"visit":"WEEK 56 SAFETY FU","visitnum":"12.0","dtc":"2025-05-01","value":"15.9","unit":"breaths/min"}],"SYSBP":[{"visit":"SCREENING","visitnum":"1.0","dtc":"2024-03-08","value":"115.9","unit":"mmHg"},{"visit":"BASELINE","visitnum":"2.0","dtc":"2024-04-10","value":"113.9","unit":"mmHg"},{"visit":"WEEK 4","visitnum":"3.0","dtc":"2024-05-10","value":"116.1","unit":"mmHg"},{"visit":"WEEK 8","visitnum":"4.0","dtc":"2024-06-06","value":"115.4","unit":"mmHg"},{"visit":"WEEK 12","visitnum":"5.0","dtc":"2024-07-01","value":"118.5","unit":"mmHg"},{"visit":"WEEK 16","visitnum":"6.0","dtc":"2024-07-31","value":"119.9","unit":"mmHg"},{"visit":"WEEK 20","visitnum":"7.0","dtc":"2024-08-28","value":"120.6","unit":"mmHg"},{"visit":"WEEK 24","visitnum":"8.0","dtc":"2024-09-30","value":"117.8","unit":"mmHg"},{"visit":"WEEK 32","visitnum":"9.0","dtc":"2024-11-13","value":"113.8","unit":"mmHg"},{"visit":"WEEK 40","visitnum":"10.0","dtc":"2025-01-17","value":"113.5","unit":"mmHg"},{"visit":"WEEK 52 EOT","visitnum":"11.0","dtc":"2025-04-11","value":"114.0","unit":"mmHg"},{"visit":"WEEK 56 SAFETY FU","visitnum":"12.0","dtc":"2025-05-01","value":"110.9","unit":"mmHg"}],"TEMP":[{"visit":"SCREENING","visitnum":"1.0","dtc":"2024-03-08","value":"36.4","unit":"C"},{"visit":"BASELINE","visitnum":"2.0","dtc":"2024-04-10","value":"36.8","unit":"C"},{"visit":"WEEK 4","visitnum":"3.0","dtc":"2024-05-10","value":"36.6","unit":"C"},{"visit":"WEEK 8","visitnum":"4.0","dtc":"2024-06-06","value":"36.1","unit":"C"},{"visit":"WEEK 12","visitnum":"5.0","dtc":"2024-07-01","value":"36.2","unit":"C"},{"visit":"WEEK 16","visitnum":"6.0","dtc":"2024-07-31","value":"36.6","unit":"C"},{"visit":"WEEK 20","visitnum":"7.0","dtc":"2024-08-28","value":"36.7","unit":"C"},{"visit":"WEEK 24","visitnum":"8.0","dtc":"2024-09-30","value":"36.5","unit":"C"},{"visit":"WEEK 32","visitnum":"9.0","dtc":"2024-11-13","value":"36.4","unit":"C"},{"visit":"WEEK 40","visitnum":"10.0","dtc":"2025-01-17","value":"36.7","unit":"C"},{"visit":"WEEK 52 EOT","visitnum":"11.0","dtc":"2025-04-11","value":"36.3","unit":"C"},{"visit":"WEEK 56 SAFETY FU","visitnum":"12.0","dtc":"2025-05-01","value":"36.6","unit":"C"}],"WEIGHT":[{"visit":"SCREENING","visitnum":"1.0","dtc":"2024-03-08","value":"87.0","unit":"kg"},{"visit":"BASELINE","visitnum":"2.0","dtc":"2024-04-10","value":"86.7","unit":"kg"},{"visit":"WEEK 4","visitnum":"3.0","dtc":"2024-05-10","value":"86.0","unit":"kg"},{"visit":"WEEK 8","visitnum":"4.0","dtc":"2024-06-06","value":"85.3","unit":"kg"},{"visit":"WEEK 12","visitnum":"5.0","dtc":"2024-07-01","value":"85.2","unit":"kg"},{"visit":"WEEK 16","visitnum":"6.0","dtc":"2024-07-31","value":"91.1","unit":"kg"},{"visit":"WEEK 20","visitnum":"7.0","dtc":"2024-08-28","value":"89.5","unit":"kg"},{"visit":"WEEK 24","visitnum":"8.0","dtc":"2024-09-30","value":"87.8","unit":"kg"},{"visit":"WEEK 32","visitnum":"9.0","dtc":"2024-11-13","value":"91.4","unit":"kg"},{"visit":"WEEK 40","visitnum":"10.0","dtc":"2025-01-17","value":"89.0","unit":"kg"},{"visit":"WEEK 52 EOT","visitnum":"11.0","dtc":"2025-04-11","value":"90.8","unit":"kg"},{"visit":"WEEK 56 SAFETY FU","visitnum":"12.0","dtc":"2025-05-01","value":"91.5","unit":"kg"}]},"results":[{"seq":"1","testcd":"BMI","test":"BMI","cat":null,"orres":null,"orresu":null,"stresc":"26.7","stresn":"26.7","stresu":"kg/m2","stnrlo":null,"stnrhi":null,"nrind":null,"pos":null,"loc":null,"dtc":"2024-03-08","dy":"-33","visit":"SCREENING","visitnum":"1.0","epoch":"SCREENING"},{"seq":"2","testcd":"DIABP","test":"Diastolic Blood Pressure","cat":null,"orres":"70.6","orresu":"mmHg","stresc":"70.6","stresn":"70.6","stresu":"mmHg","stnrlo":null,"stnrhi":null,"nrind":null,"pos":null,"loc":null,"dtc":"2024-03-08","dy":"-33","visit":"SCREENING","visitnum":"1.0","epoch":"SCREENING"},{"seq":"3","testcd":"HEIGHT","test":"Height","cat":null,"orres":"180.5","orresu":"cm","stresc":"180.5","stresn":"180.5","stresu":"cm","stnrlo":null,"stnrhi":null,"nrind":null,"pos":null,"loc":null,"dtc":"2024-03-08","dy":"-33","visit":"SCREENING","visitnum":"1.0","epoch":"SCREENING"},{"seq":"4","testcd":"PULSE","test":"Pulse Rate","cat":null,"orres":"68.3","orresu":"beats/min","stresc":"68.3","stresn":"68.3","stresu":"beats/min","stnrlo":null,"stnrhi":null,"nrind":null,"pos":null,"loc":null,"dtc":"2024-03-08","dy":"-33","visit":"SCREENING","visitnum":"1.0","epoch":"SCREENING"},{"seq":"5","testcd":"RESP","test":"Respiratory Rate","cat":null,"orres":null,"orresu":null,"stresc":null,"stresn":null,"stresu":null,"stnrlo":null,"stnrhi":null,"nrind":null,"pos":null,"loc":null,"dtc":"2024-03-08","dy":"-33","visit":"SCREENING","visitnum":"1.0","epoch":"SCREENING"},{"seq":"6","testcd":"SYSBP","test":"Systolic Blood Pressure","cat":null,"orres":"115.9","orresu":"mmHg","stresc":"115.9","stresn":"115.9","stresu":"mmHg","stnrlo":null,"stnrhi":null,"nrind":null,"pos":null,"loc":null,"dtc":"2024-03-08","dy":"-33","visit":"SCREENING","visitnum":"1.0","epoch":"SCREENING"},{"seq":"7","testcd":"TEMP","test":"Temperature","cat":null,"orres":"36.4","orresu":"C","stresc":"36.4","stresn":"36.4","stresu":"C","stnrlo":null,"stnrhi":null,"nrind":null,"pos":null,"loc":null,"dtc":"2024-03-08","dy":"-33","visit":"SCREENING","visitnum":"1.0","epoch":"SCREENING"},{"seq":"8","testcd":"WEIGHT","test":"Weight","cat":null,"orres":"87.0","orresu":"kg","stresc":"87.0","stresn":"87.0","stresu":"kg","stnrlo":null,"stnrhi":null,"nrind":null,"pos":null,"loc":null,"dtc":"2024-03-08","dy":"-33","visit":"SCREENING","visitnum":"1.0","epoch":"SCREENING"},{"seq":"9","testcd":"BMI","test":"BMI","cat":null,"orres":null,"orresu":null,"stresc":"26.6","stresn":"26.6","stresu":"kg/m2","stnrlo":null,"stnrhi":null,"nrind":null,"pos":null,"loc":null,"dtc":"2024-04-10","dy":"1","visit":"BASELINE","visitnum":"2.0","epoch":"TREATMENT"},{"seq":"10","testcd":"DIABP","test":"Diastolic Blood Pressure","cat":null,"orres":"70.1","orresu":"mmHg","stresc":"70.1","stresn":"70.1","stresu":"mmHg","stnrlo":null,"stnrhi":null,"nrind":null,"pos":null,"loc":null,"dtc":"2024-04-10","dy":"1","visit":"BASELINE","visitnum":"2.0","epoch":"TREATMENT"},{"seq":"11","testcd":"HEIGHT","test":"Height","cat":null,"orres":"180.5","orresu":"cm","stresc":"180.5","stresn":"180.5","stresu":"cm","stnrlo":null,"stnrhi":null,"nrind":null,"pos":null,"loc":null,"dtc":"2024-04-10","dy":"1","visit":"BASELINE","visitnum":"2.0","epoch":"TREATMENT"},{"seq":"12","testcd":"PULSE","test":"Pulse Rate","cat":null,"orres":"70.6","orresu":"beats/min","stresc":"70.6","stresn":"70.6","stresu":"beats/min","stnrlo":null,"stnrhi":null,"nrind":null,"pos":null,"loc":null,"dtc":"2024-04-10","dy":"1","visit":"BASELINE","visitnum":"2.0","epoch":"TREATMENT"},{"seq":"13","testcd":"RESP","test":"Respiratory Rate","cat":null,"orres":"15.7","orresu":"breaths/min","stresc":"15.7","stresn":"15.7","stresu":"breaths/min","stnrlo":null,"stnrhi":null,"nrind":null,"pos":null,"loc":null,"dtc":"2024-04-10","dy":"1","visit":"BASELINE","visitnum":"2.0","epoch":"TREATMENT"},{"seq":"14","testcd":"SYSBP","test":"Systolic Blood Pressure","cat":null,"orres":"113.9","orresu":"mmHg","stresc":"113.9","stresn":"113.9","stresu":"mmHg","stnrlo":null,"stnrhi":null,"nrind":null,"pos":null,"loc":null,"dtc":"2024-04-10","dy":"1","visit":"BASELINE","visitnum":"2.0","epoch":"TREATMENT"},{"seq":"15","testcd":"TEMP","test":"Temperature","cat":null,"orres":"36.8","orresu":"C","stresc":"36.8","stresn":"36.8","stresu":"C","stnrlo":null,"stnrhi":null,"nrind":null,"pos":null,"loc":null,"dtc":"2024-04-10","dy":"1","visit":"BASELINE","visitnum":"2.0","epoch":"TREATMENT"},{"seq":"16","testcd":"WEIGHT","test":"Weight","cat":null,"orres":"86.7","orresu":"kg","stresc":"86.7","stresn":"86.7","stresu":"kg","stnrlo":null,"stnrhi":null,"nrind":null,"pos":null,"loc":null,"dtc":"2024-04-10","dy":"1","visit":"BASELINE","visitnum":"2.0","epoch":"TREATMENT"},{"seq":"17","testcd":"DIABP","test":"Diastolic Blood Pressure","cat":null,"orres":"70.1","orresu":"mmHg","stresc":"70.1","stresn":"70.1","stresu":"mmHg","stnrlo":null,"stnrhi":null,"nrind":null,"pos":null,"loc":null,"dtc":"2024-05-10","dy":"31","visit":"WEEK 4","visitnum":"3.0","epoch":"TREATMENT"},{"seq":"18","testcd":"HEIGHT","test":"Height","cat":null,"orres":null,"orresu":null,"stresc":null,"stresn":null,"stresu":null,"stnrlo":null,"stnrhi":null,"nrind":null,"pos":null,"loc":null,"dtc":"2024-05-10","dy":"31","visit":"WEEK 4","visitnum":"3.0","epoch":"TREATMENT"},{"seq":"19","testcd":"PULSE","test":"Pulse Rate","cat":null,"orres":"84.2","orresu":"beats/min","stresc":"84.2","stresn":"84.2","stresu":"beats/min","stnrlo":null,"stnrhi":null,"nrind":null,"pos":null,"loc":null,"dtc":"2024-05-10","dy":"31","visit":"WEEK 4","visitnum":"3.0","epoch":"TREATMENT"},{"seq":"20","testcd":"RESP","test":"Respiratory Rate","cat":null,"orres":"15.6","orresu":"breaths/min","stresc":"15.6","stresn":"15.6","stresu":"breaths/min","stnrlo":null,"stnrhi":null,"nrind":null,"pos":null,"loc":null,"dtc":"2024-05-10","dy":"31","visit":"WEEK 4","visitnum":"3.0","epoch":"TREATMENT"},{"seq":"21","testcd":"SYSBP","test":"Systolic Blood Pressure","cat":null,"orres":"116.1","orresu":"mmHg","stresc":"116.1","stresn":"116.1","stresu":"mmHg","stnrlo":null,"stnrhi":null,"nrind":null,"pos":null,"loc":null,"dtc":"2024-05-10","dy":"31","visit":"WEEK 4","visitnum":"3.0","epoch":"TREATMENT"},{"seq":"22","testcd":"TEMP","test":"Temperature","cat":null,"orres":"36.6","orresu":"C","stresc":"36.6","stresn":"36.6","stresu":"C","stnrlo":null,"stnrhi":null,"nrind":null,"pos":null,"loc":null,"dtc":"2024-05-10","dy":"31","visit":"WEEK 4","visitnum":"3.0","epoch":"TREATMENT"},{"seq":"23","testcd":"WEIGHT","test":"Weight","cat":null,"orres":"86.0","orresu":"kg","stresc":"86.0","stresn":"86.0","stresu":"kg","stnrlo":null,"stnrhi":null,"nrind":null,"pos":null,"loc":null,"dtc":"2024-05-10","dy":"31","visit":"WEEK 4","visitnum":"3.0","epoch":"TREATMENT"},{"seq":"24","testcd":"BMI","test":"BMI","cat":null,"orres":null,"orresu":null,"stresc":"26.0","stresn":"26.0","stresu":"kg/m2","stnrlo":null,"stnrhi":null,"nrind":null,"pos":null,"loc":null,"dtc":"2024-06-06","dy":"58","visit":"WEEK 8","visitnum":"4.0","epoch":"TREATMENT"},{"seq":"25","testcd":"DIABP","test":"Diastolic Blood Pressure","cat":null,"orres":"69.2","orresu":"mmHg","stresc":"69.2","stresn":"69.2","stresu":"mmHg","stnrlo":null,"stnrhi":null,"nrind":null,"pos":null,"loc":null,"dtc":"2024-06-06","dy":"58","visit":"WEEK 8","visitnum":"4.0","epoch":"TREATMENT"},{"seq":"26","testcd":"HEIGHT","test":"Height","cat":null,"orres":"181.0","orresu":"cm","stresc":"181.0","stresn":"181.0","stresu":"cm","stnrlo":null,"stnrhi":null,"nrind":null,"pos":null,"loc":null,"dtc":"2024-06-06","dy":"58","visit":"WEEK 8","visitnum":"4.0","epoch":"TREATMENT"},{"seq":"27","testcd":"PULSE","test":"Pulse Rate","cat":null,"orres":"80.7","orresu":"beats/min","stresc":"80.7","stresn":"80.7","stresu":"beats/min","stnrlo":null,"stnrhi":null,"nrind":null,"pos":null,"loc":null,"dtc":"2024-06-06","dy":"58","visit":"WEEK 8","visitnum":"4.0","epoch":"TREATMENT"},{"seq":"28","testcd":"RESP","test":"Respiratory Rate","cat":null,"orres":"15.8","orresu":"breaths/min","stresc":"15.8","stresn":"15.8","stresu":"breaths/min","stnrlo":null,"stnrhi":null,"nrind":null,"pos":null,"loc":null,"dtc":"2024-06-06","dy":"58","visit":"WEEK 8","visitnum":"4.0","epoch":"TREATMENT"},{"seq":"29","testcd":"SYSBP","test":"Systolic Blood Pressure","cat":null,"orres":"115.4","orresu":"mmHg","stresc":"115.4","stresn":"115.4","stresu":"mmHg","stnrlo":null,"stnrhi":null,"nrind":null,"pos":null,"loc":null,"dtc":"2024-06-06","dy":"58","visit":"WEEK 8","visitnum":"4.0","epoch":"TREATMENT"},{"seq":"30","testcd":"TEMP","test":"Temperature","cat":null,"orres":"36.1","orresu":"C","stresc":"36.1","stresn":"36.1","stresu":"C","stnrlo":null,"stnrhi":null,"nrind":null,"pos":null,"loc":null,"dtc":"2024-06-06","dy":"58","visit":"WEEK 8","visitnum":"4.0","epoch":"TREATMENT"},{"seq":"31","testcd":"WEIGHT","test":"Weight","cat":null,"orres":"85.3","orresu":"kg","stresc":"85.3","stresn":"85.3","stresu":"kg","stnrlo":null,"stnrhi":null,"nrind":null,"pos":null,"loc":null,"dtc":"2024-06-06","dy":"58","visit":"WEEK 8","visitnum":"4.0","epoch":"TREATMENT"},{"seq":"32","testcd":"BMI","test":"BMI","cat":null,"orres":null,"orresu":null,"stresc":"25.9","stresn":"25.9","stresu":"kg/m2","stnrlo":null,"stnrhi":null,"nrind":null,"pos":null,"loc":null,"dtc":"2024-07-01","dy":"83","visit":"WEEK 12","visitnum":"5.0","epoch":"TREATMENT"},{"seq":"33","testcd":"DIABP","test":"Diastolic Blood Pressure","cat":null,"orres":"70.9","orresu":"mmHg","stresc":"70.9","stresn":"70.9","stresu":"mmHg","stnrlo":null,"stnrhi":null,"nrind":null,"pos":null,"loc":null,"dtc":"2024-07-01","dy":"83","visit":"WEEK 12","visitnum":"5.0","epoch":"TREATMENT"},{"seq":"34","testcd":"HEIGHT","test":"Height","cat":null,"orres":"181.2","orresu":"cm","stresc":"181.2","stresn":"181.2","stresu":"cm","stnrlo":null,"stnrhi":null,"nrind":null,"pos":null,"loc":null,"dtc":"2024-07-01","dy":"83","visit":"WEEK 12","visitnum":"5.0","epoch":"TREATMENT"},{"seq":"35","testcd":"PULSE","test":"Pulse Rate","cat":null,"orres":"69.5","orresu":"beats/min","stresc":"69.5","stresn":"69.5","stresu":"beats/min","stnrlo":null,"stnrhi":null,"nrind":null,"pos":null,"loc":null,"dtc":"2024-07-01","dy":"83","visit":"WEEK 12","visitnum":"5.0","epoch":"TREATMENT"},{"seq":"36","testcd":"RESP","test":"Respiratory Rate","cat":null,"orres":"15.9","orresu":"breaths/min","stresc":"15.9","stresn":"15.9","stresu":"breaths/min","stnrlo":null,"stnrhi":null,"nrind":null,"pos":null,"loc":null,"dtc":"2024-07-01","dy":"83","visit":"WEEK 12","visitnum":"5.0","epoch":"TREATMENT"},{"seq":"37","testcd":"SYSBP","test":"Systolic Blood Pressure","cat":null,"orres":"118.5","orresu":"mmHg","stresc":"118.5","stresn":"118.5","stresu":"mmHg","stnrlo":null,"stnrhi":null,"nrind":null,"pos":null,"loc":null,"dtc":"2024-07-01","dy":"83","visit":"WEEK 12","visitnum":"5.0","epoch":"TREATMENT"},{"seq":"38","testcd":"TEMP","test":"Temperature","cat":null,"orres":"36.2","orresu":"C","stresc":"36.2","stresn":"36.2","stresu":"C","stnrlo":null,"stnrhi":null,"nrind":null,"pos":null,"loc":null,"dtc":"2024-07-01","dy":"83","visit":"WEEK 12","visitnum":"5.0","epoch":"TREATMENT"},{"seq":"39","testcd":"WEIGHT","test":"Weight","cat":null,"orres":"85.2","orresu":"kg","stresc":"85.2","stresn":"85.2","stresu":"kg","stnrlo":null,"stnrhi":null,"nrind":null,"pos":null,"loc":null,"dtc":"2024-07-01","dy":"83","visit":"WEEK 12","visitnum":"5.0","epoch":"TREATMENT"},{"seq":"40","testcd":"BMI","test":"BMI","cat":null,"orres":null,"orresu":null,"stresc":"27.9","stresn":"27.9","stresu":"kg/m2","stnrlo":null,"stnrhi":null,"nrind":null,"pos":null,"loc":null,"dtc":"2024-07-31","dy":"113","visit":"WEEK 16","visitnum":"6.0","epoch":"TREATMENT"},{"seq":"41","testcd":"DIABP","test":"Diastolic Blood Pressure","cat":null,"orres":"71.4","orresu":"mmHg","stresc":"71.4","stresn":"71.4","stresu":"mmHg","stnrlo":null,"stnrhi":null,"nrind":null,"pos":null,"loc":null,"dtc":"2024-07-31","dy":"113","visit":"WEEK 16","visitnum":"6.0","epoch":"TREATMENT"},{"seq":"42","testcd":"HEIGHT","test":"Height","cat":null,"orres":"180.8","orresu":"cm","stresc":"180.8","stresn":"180.8","stresu":"cm","stnrlo":null,"stnrhi":null,"nrind":null,"pos":null,"loc":null,"dtc":"2024-07-31","dy":"113","visit":"WEEK 16","visitnum":"6.0","epoch":"TREATMENT"},{"seq":"43","testcd":"PULSE","test":"Pulse Rate","cat":null,"orres":"64.5","orresu":"beats/min","stresc":"64.5","stresn":"64.5","stresu":"beats/min","stnrlo":null,"stnrhi":null,"nrind":null,"pos":null,"loc":null,"dtc":"2024-07-31","dy":"113","visit":"WEEK 16","visitnum":"6.0","epoch":"TREATMENT"},{"seq":"44","testcd":"RESP","test":"Respiratory Rate","cat":null,"orres":"16.5","orresu":"breaths/min","stresc":"16.5","stresn":"16.5","stresu":"breaths/min","stnrlo":null,"stnrhi":null,"nrind":null,"pos":null,"loc":null,"dtc":"2024-07-31","dy":"113","visit":"WEEK 16","visitnum":"6.0","epoch":"TREATMENT"},{"seq":"45","testcd":"SYSBP","test":"Systolic Blood Pressure","cat":null,"orres":"119.9","orresu":"mmHg","stresc":"119.9","stresn":"119.9","stresu":"mmHg","stnrlo":null,"stnrhi":null,"nrind":null,"pos":null,"loc":null,"dtc":"2024-07-31","dy":"113","visit":"WEEK 16","visitnum":"6.0","epoch":"TREATMENT"},{"seq":"46","testcd":"TEMP","test":"Temperature","cat":null,"orres":"36.6","orresu":"C","stresc":"36.6","stresn":"36.6","stresu":"C","stnrlo":null,"stnrhi":null,"nrind":null,"pos":null,"loc":null,"dtc":"2024-07-31","dy":"113","visit":"WEEK 16","visitnum":"6.0","epoch":"TREATMENT"},{"seq":"47","testcd":"WEIGHT","test":"Weight","cat":null,"orres":"91.1","orresu":"kg","stresc":"91.1","stresn":"91.1","stresu":"kg","stnrlo":null,"stnrhi":null,"nrind":null,"pos":null,"loc":null,"dtc":"2024-07-31","dy":"113","visit":"WEEK 16","visitnum":"6.0","epoch":"TREATMENT"},{"seq":"48","testcd":"BMI","test":"BMI","cat":null,"orres":null,"orresu":null,"stresc":"27.3","stresn":"27.3","stresu":"kg/m2","stnrlo":null,"stnrhi":null,"nrind":null,"pos":null,"loc":null,"dtc":"2024-08-28","dy":"141","visit":"WEEK 20","visitnum":"7.0","epoch":"TREATMENT"},{"seq":"49","testcd":"DIABP","test":"Diastolic Blood Pressure","cat":null,"orres":"71.0","orresu":"mmHg","stresc":"71.0","stresn":"71.0","stresu":"mmHg","stnrlo":null,"stnrhi":null,"nrind":null,"pos":null,"loc":null,"dtc":"2024-08-28","dy":"141","visit":"WEEK 20","visitnum":"7.0","epoch":"TREATMENT"},{"seq":"50","testcd":"HEIGHT","test":"Height","cat":null,"orres":"180.9","orresu":"cm","stresc":"180.9","stresn":"180.9","stresu":"cm","stnrlo":null,"stnrhi":null,"nrind":null,"pos":null,"loc":null,"dtc":"2024-08-28","dy":"141","visit":"WEEK 20","visitnum":"7.0","epoch":"TREATMENT"},{"seq":"51","testcd":"PULSE","test":"Pulse Rate","cat":null,"orres":"65.8","orresu":"beats/min","stresc":"65.8","stresn":"65.8","stresu":"beats/min","stnrlo":null,"stnrhi":null,"nrind":null,"pos":null,"loc":null,"dtc":"2024-08-28","dy":"141","visit":"WEEK 20","visitnum":"7.0","epoch":"TREATMENT"},{"seq":"52","testcd":"RESP","test":"Respiratory Rate","cat":null,"orres":"16.8","orresu":"breaths/min","stresc":"16.8","stresn":"16.8","stresu":"breaths/min","stnrlo":null,"stnrhi":null,"nrind":null,"pos":null,"loc":null,"dtc":"2024-08-28","dy":"141","visit":"WEEK 20","visitnum":"7.0","epoch":"TREATMENT"},{"seq":"53","testcd":"SYSBP","test":"Systolic Blood Pressure","cat":null,"orres":"120.6","orresu":"mmHg","stresc":"120.6","stresn":"120.6","stresu":"mmHg","stnrlo":null,"stnrhi":null,"nrind":null,"pos":null,"loc":null,"dtc":"2024-08-28","dy":"141","visit":"WEEK 20","visitnum":"7.0","epoch":"TREATMENT"},{"seq":"54","testcd":"TEMP","test":"Temperature","cat":null,"orres":"36.7","orresu":"C","stresc":"36.7","stresn":"36.7","stresu":"C","stnrlo":null,"stnrhi":null,"nrind":null,"pos":null,"loc":null,"dtc":"2024-08-28","dy":"141","visit":"WEEK 20","visitnum":"7.0","epoch":"TREATMENT"},{"seq":"55","testcd":"WEIGHT","test":"Weight","cat":null,"orres":"89.5","orresu":"kg","stresc":"89.5","stresn":"89.5","stresu":"kg","stnrlo":null,"stnrhi":null,"nrind":null,"pos":null,"loc":null,"dtc":"2024-08-28","dy":"141","visit":"WEEK 20","visitnum":"7.0","epoch":"TREATMENT"},{"seq":"56","testcd":"BMI","test":"BMI","cat":null,"orres":null,"orresu":null,"stresc":"26.8","stresn":"26.8","stresu":"kg/m2","stnrlo":null,"stnrhi":null,"nrind":null,"pos":null,"loc":null,"dtc":"2024-09-30","dy":"174","visit":"WEEK 24","visitnum":"8.0","epoch":"TREATMENT"},{"seq":"57","testcd":"DIABP","test":"Diastolic Blood Pressure","cat":null,"orres":"70.7","orresu":"mmHg","stresc":"70.7","stresn":"70.7","stresu":"mmHg","stnrlo":null,"stnrhi":null,"nrind":null,"pos":null,"loc":null,"dtc":"2024-09-30","dy":"174","visit":"WEEK 24","visitnum":"8.0","epoch":"TREATMENT"},{"seq":"58","testcd":"HEIGHT","test":"Height","cat":null,"orres":"181.0","orresu":"cm","stresc":"181.0","stresn":"181.0","stresu":"cm","stnrlo":null,"stnrhi":null,"nrind":null,"pos":null,"loc":null,"dtc":"2024-09-30","dy":"174","visit":"WEEK 24","visitnum":"8.0","epoch":"TREATMENT"},{"seq":"59","testcd":"PULSE","test":"Pulse Rate","cat":null,"orres":"65.1","orresu":"beats/min","stresc":"65.1","stresn":"65.1","stresu":"beats/min","stnrlo":null,"stnrhi":null,"nrind":null,"pos":null,"loc":null,"dtc":"2024-09-30","dy":"174","visit":"WEEK 24","visitnum":"8.0","epoch":"TREATMENT"},{"seq":"60","testcd":"RESP","test":"Respiratory Rate","cat":null,"orres":"17.2","orresu":"breaths/min","stresc":"17.2","stresn":"17.2","stresu":"breaths/min","stnrlo":null,"stnrhi":null,"nrind":null,"pos":null,"loc":null,"dtc":"2024-09-30","dy":"174","visit":"WEEK 24","visitnum":"8.0","epoch":"TREATMENT"},{"seq":"61","testcd":"SYSBP","test":"Systolic Blood Pressure","cat":null,"orres":"117.8","orresu":"mmHg","stresc":"117.8","stresn":"117.8","stresu":"mmHg","stnrlo":null,"stnrhi":null,"nrind":null,"pos":null,"loc":null,"dtc":"2024-09-30","dy":"174","visit":"WEEK 24","visitnum":"8.0","epoch":"TREATMENT"},{"seq":"62","testcd":"TEMP","test":"Temperature","cat":null,"orres":"36.5","orresu":"C","stresc":"36.5","stresn":"36.5","stresu":"C","stnrlo":null,"stnrhi":null,"nrind":null,"pos":null,"loc":null,"dtc":"2024-09-30","dy":"174","visit":"WEEK 24","visitnum":"8.0","epoch":"TREATMENT"},{"seq":"63","testcd":"WEIGHT","test":"Weight","cat":null,"orres":"87.8","orresu":"kg","stresc":"87.8","stresn":"87.8","stresu":"kg","stnrlo":null,"stnrhi":null,"nrind":null,"pos":null,"loc":null,"dtc":"2024-09-30","dy":"174","visit":"WEEK 24","visitnum":"8.0","epoch":"TREATMENT"},{"seq":"64","testcd":"BMI","test":"BMI","cat":null,"orres":null,"orresu":null,"stresc":"28.1","stresn":"28.1","stresu":"kg/m2","stnrlo":null,"stnrhi":null,"nrind":null,"pos":null,"loc":null,"dtc":"2024-11-13","dy":"218","visit":"WEEK 32","visitnum":"9.0","epoch":"TREATMENT"},{"seq":"65","testcd":"DIABP","test":"Diastolic Blood Pressure","cat":null,"orres":"69.0","orresu":"mmHg","stresc":"69.0","stresn":"69.0","stresu":"mmHg","stnrlo":null,"stnrhi":null,"nrind":null,"pos":null,"loc":null,"dtc":"2024-11-13","dy":"218","visit":"WEEK 32","visitnum":"9.0","epoch":"TREATMENT"},{"seq":"66","testcd":"HEIGHT","test":"Height","cat":null,"orres":"180.3","orresu":"cm","stresc":"180.3","stresn":"180.3","stresu":"cm","stnrlo":null,"stnrhi":null,"nrind":null,"pos":null,"loc":null,"dtc":"2024-11-13","dy":"218","visit":"WEEK 32","visitnum":"9.0","epoch":"TREATMENT"},{"seq":"67","testcd":"PULSE","test":"Pulse Rate","cat":null,"orres":"71.5","orresu":"beats/min","stresc":"71.5","stresn":"71.5","stresu":"beats/min","stnrlo":null,"stnrhi":null,"nrind":null,"pos":null,"loc":null,"dtc":"2024-11-13","dy":"218","visit":"WEEK 32","visitnum":"9.0","epoch":"TREATMENT"},{"seq":"68","testcd":"RESP","test":"Respiratory Rate","cat":null,"orres":"17.2","orresu":"breaths/min","stresc":"17.2","stresn":"17.2","stresu":"breaths/min","stnrlo":null,"stnrhi":null,"nrind":null,"pos":null,"loc":null,"dtc":"2024-11-13","dy":"218","visit":"WEEK 32","visitnum":"9.0","epoch":"TREATMENT"},{"seq":"69","testcd":"SYSBP","test":"Systolic Blood Pressure","cat":null,"orres":"113.8","orresu":"mmHg","stresc":"113.8","stresn":"113.8","stresu":"mmHg","stnrlo":null,"stnrhi":null,"nrind":null,"pos":null,"loc":null,"dtc":"2024-11-13","dy":"218","visit":"WEEK 32","visitnum":"9.0","epoch":"TREATMENT"},{"seq":"70","testcd":"TEMP","test":"Temperature","cat":null,"orres":"36.4","orresu":"C","stresc":"36.4","stresn":"36.4","stresu":"C","stnrlo":null,"stnrhi":null,"nrind":null,"pos":null,"loc":null,"dtc":"2024-11-13","dy":"218","visit":"WEEK 32","visitnum":"9.0","epoch":"TREATMENT"},{"seq":"71","testcd":"WEIGHT","test":"Weight","cat":null,"orres":"91.4","orresu":"kg","stresc":"91.4","stresn":"91.4","stresu":"kg","stnrlo":null,"stnrhi":null,"nrind":null,"pos":null,"loc":null,"dtc":"2024-11-13","dy":"218","visit":"WEEK 32","visitnum":"9.0","epoch":"TREATMENT"},{"seq":"72","testcd":"BMI","test":"BMI","cat":null,"orres":null,"orresu":null,"stresc":"27.5","stresn":"27.5","stresu":"kg/m2","stnrlo":null,"stnrhi":null,"nrind":null,"pos":null,"loc":null,"dtc":"2025-01-17","dy":"283","visit":"WEEK 40","visitnum":"10.0","epoch":"TREATMENT"},{"seq":"73","testcd":"DIABP","test":"Diastolic Blood Pressure","cat":null,"orres":"69.9","orresu":"mmHg","stresc":"69.9","stresn":"69.9","stresu":"mmHg","stnrlo":null,"stnrhi":null,"nrind":null,"pos":null,"loc":null,"dtc":"2025-01-17","dy":"283","visit":"WEEK 40","visitnum":"10.0","epoch":"TREATMENT"},{"seq":"74","testcd":"HEIGHT","test":"Height","cat":null,"orres":"179.9","orresu":"cm","stresc":"179.9","stresn":"179.9","stresu":"cm","stnrlo":null,"stnrhi":null,"nrind":null,"pos":null,"loc":null,"dtc":"2025-01-17","dy":"283","visit":"WEEK 40","visitnum":"10.0","epoch":"TREATMENT"},{"seq":"75","testcd":"PULSE","test":"Pulse Rate","cat":null,"orres":"64.1","orresu":"beats/min","stresc":"64.1","stresn":"64.1","stresu":"beats/min","stnrlo":null,"stnrhi":null,"nrind":null,"pos":null,"loc":null,"dtc":"2025-01-17","dy":"283","visit":"WEEK 40","visitnum":"10.0","epoch":"TREATMENT"},{"seq":"76","testcd":"RESP","test":"Respiratory Rate","cat":null,"orres":"15.6","orresu":"breaths/min","stresc":"15.6","stresn":"15.6","stresu":"breaths/min","stnrlo":null,"stnrhi":null,"nrind":null,"pos":null,"loc":null,"dtc":"2025-01-17","dy":"283","visit":"WEEK 40","visitnum":"10.0","epoch":"TREATMENT"},{"seq":"77","testcd":"SYSBP","test":"Systolic Blood Pressure","cat":null,"orres":"113.5","orresu":"mmHg","stresc":"113.5","stresn":"113.5","stresu":"mmHg","stnrlo":null,"stnrhi":null,"nrind":null,"pos":null,"loc":null,"dtc":"2025-01-17","dy":"283","visit":"WEEK 40","visitnum":"10.0","epoch":"TREATMENT"},{"seq":"78","testcd":"TEMP","test":"Temperature","cat":null,"orres":"36.7","orresu":"C","stresc":"36.7","stresn":"36.7","stresu":"C","stnrlo":null,"stnrhi":null,"nrind":null,"pos":null,"loc":null,"dtc":"2025-01-17","dy":"283","visit":"WEEK 40","visitnum":"10.0","epoch":"TREATMENT"},{"seq":"79","testcd":"WEIGHT","test":"Weight","cat":null,"orres":"89.0","orresu":"kg","stresc":"89.0","stresn":"89.0","stresu":"kg","stnrlo":null,"stnrhi":null,"nrind":null,"pos":null,"loc":null,"dtc":"2025-01-17","dy":"283","visit":"WEEK 40","visitnum":"10.0","epoch":"TREATMENT"},{"seq":"80","testcd":"DIABP","test":"Diastolic Blood Pressure","cat":null,"orres":null,"orresu":null,"stresc":null,"stresn":null,"stresu":null,"stnrlo":null,"stnrhi":null,"nrind":null,"pos":null,"loc":null,"dtc":"2025-04-11","dy":"367","visit":"WEEK 52 EOT","visitnum":"11.0","epoch":"TREATMENT"},{"seq":"81","testcd":"HEIGHT","test":"Height","cat":null,"orres":null,"orresu":null,"stresc":null,"stresn":null,"stresu":null,"stnrlo":null,"stnrhi":null,"nrind":null,"pos":null,"loc":null,"dtc":"2025-04-11","dy":"367","visit":"WEEK 52 EOT","visitnum":"11.0","epoch":"TREATMENT"},{"seq":"82","testcd":"PULSE","test":"Pulse Rate","cat":null,"orres":"63.7","orresu":"beats/min","stresc":"63.7","stresn":"63.7","stresu":"beats/min","stnrlo":null,"stnrhi":null,"nrind":null,"pos":null,"loc":null,"dtc":"2025-04-11","dy":"367","visit":"WEEK 52 EOT","visitnum":"11.0","epoch":"TREATMENT"},{"seq":"83","testcd":"RESP","test":"Respiratory Rate","cat":null,"orres":"17.0","orresu":"breaths/min","stresc":"17.0","stresn":"17.0","stresu":"breaths/min","stnrlo":null,"stnrhi":null,"nrind":null,"pos":null,"loc":null,"dtc":"2025-04-11","dy":"367","visit":"WEEK 52 EOT","visitnum":"11.0","epoch":"TREATMENT"},{"seq":"84","testcd":"SYSBP","test":"Systolic Blood Pressure","cat":null,"orres":"114.0","orresu":"mmHg","stresc":"114.0","stresn":"114.0","stresu":"mmHg","stnrlo":null,"stnrhi":null,"nrind":null,"pos":null,"loc":null,"dtc":"2025-04-11","dy":"367","visit":"WEEK 52 EOT","visitnum":"11.0","epoch":"TREATMENT"},{"seq":"85","testcd":"TEMP","test":"Temperature","cat":null,"orres":"36.3","orresu":"C","stresc":"36.3","stresn":"36.3","stresu":"C","stnrlo":null,"stnrhi":null,"nrind":null,"pos":null,"loc":null,"dtc":"2025-04-11","dy":"367","visit":"WEEK 52 EOT","visitnum":"11.0","epoch":"TREATMENT"},{"seq":"86","testcd":"WEIGHT","test":"Weight","cat":null,"orres":"90.8","orresu":"kg","stresc":"90.8","stresn":"90.8","stresu":"kg","stnrlo":null,"stnrhi":null,"nrind":null,"pos":null,"loc":null,"dtc":"2025-04-11","dy":"367","visit":"WEEK 52 EOT","visitnum":"11.0","epoch":"TREATMENT"},{"seq":"87","testcd":"BMI","test":"BMI","cat":null,"orres":null,"orresu":null,"stresc":"28.5","stresn":"28.5","stresu":"kg/m2","stnrlo":null,"stnrhi":null,"nrind":null,"pos":null,"loc":null,"dtc":"2025-05-01","dy":"387","visit":"WEEK 56 SAFETY FU","visitnum":"12.0","epoch":"FOLLOW-UP"},{"seq":"88","testcd":"DIABP","test":"Diastolic Blood Pressure","cat":null,"orres":"69.4","orresu":"mmHg","stresc":"69.4","stresn":"69.4","stresu":"mmHg","stnrlo":null,"stnrhi":null,"nrind":null,"pos":null,"loc":null,"dtc":"2025-05-01","dy":"387","visit":"WEEK 56 SAFETY FU","visitnum":"12.0","epoch":"FOLLOW-UP"},{"seq":"89","testcd":"HEIGHT","test":"Height","cat":null,"orres":"179.1","orresu":"cm","stresc":"179.1","stresn":"179.1","stresu":"cm","stnrlo":null,"stnrhi":null,"nrind":null,"pos":null,"loc":null,"dtc":"2025-05-01","dy":"387","visit":"WEEK 56 SAFETY FU","visitnum":"12.0","epoch":"FOLLOW-UP"},{"seq":"90","testcd":"PULSE","test":"Pulse Rate","cat":null,"orres":"66.2","orresu":"beats/min","stresc":"66.2","stresn":"66.2","stresu":"beats/min","stnrlo":null,"stnrhi":null,"nrind":null,"pos":null,"loc":null,"dtc":"2025-05-01","dy":"387","visit":"WEEK 56 SAFETY FU","visitnum":"12.0","epoch":"FOLLOW-UP"},{"seq":"91","testcd":"RESP","test":"Respiratory Rate","cat":null,"orres":"15.9","orresu":"breaths/min","stresc":"15.9","stresn":"15.9","stresu":"breaths/min","stnrlo":null,"stnrhi":null,"nrind":null,"pos":null,"loc":null,"dtc":"2025-05-01","dy":"387","visit":"WEEK 56 SAFETY FU","visitnum":"12.0","epoch":"FOLLOW-UP"},{"seq":"92","testcd":"SYSBP","test":"Systolic Blood Pressure","cat":null,"orres":"110.9","orresu":"mmHg","stresc":"110.9","stresn":"110.9","stresu":"mmHg","stnrlo":null,"stnrhi":null,"nrind":null,"pos":null,"loc":null,"dtc":"2025-05-01","dy":"387","visit":"WEEK 56 SAFETY FU","visitnum":"12.0","epoch":"FOLLOW-UP"},{"seq":"93","testcd":"TEMP","test":"Temperature","cat":null,"orres":"36.6","orresu":"C","stresc":"36.6","stresn":"36.6","stresu":"C","stnrlo":null,"stnrhi":null,"nrind":null,"pos":null,"loc":null,"dtc":"2025-05-01","dy":"387","visit":"WEEK 56 SAFETY FU","visitnum":"12.0","epoch":"FOLLOW-UP"},{"seq":"94","testcd":"WEIGHT","test":"Weight","cat":null,"orres":"91.5","orresu":"kg","stresc":"91.5","stresn":"91.5","stresu":"kg","stnrlo":null,"stnrhi":null,"nrind":null,"pos":null,"loc":null,"dtc":"2025-05-01","dy":"387","visit":"WEEK 56 SAFETY FU","visitnum":"12.0","epoch":"FOLLOW-UP"}]},"section_10_questionnaires_and_scores":{"questionnaires":[],"findings_about":[]},"section_11_protocol_deviations":{"deviations":[{"seq":"1","term":"Visit WEEK 8 occurred 1 days late (Day 58 vs planned Day 57)","decod":"VISIT OCCURRED OUTSIDE VISIT WINDOW","cat":"MINOR","scat":"VISIT WINDOW","start_dtc":"2024-06-06","end_dtc":null,"visit":null},{"seq":"2","term":"Visit WEEK 20 occurred 0 days late (Day 141 vs planned Day 141)","decod":"VISIT OCCURRED OUTSIDE VISIT WINDOW","cat":"MINOR","scat":"VISIT WINDOW","start_dtc":"2024-08-28","end_dtc":null,"visit":null},{"seq":"3","term":"Missed DULAGLUTIDE dose on 2024-11-27","decod":"MISSED DOSE","cat":"MINOR","scat":"DOSING","start_dtc":"2024-11-27","end_dtc":null,"visit":null},{"seq":"4","term":"Visit WEEK 40 occurred 2 days late (Day 283 vs planned Day 281)","decod":"VISIT OCCURRED OUTSIDE VISIT WINDOW","cat":"MINOR","scat":"VISIT WINDOW","start_dtc":"2025-01-17","end_dtc":null,"visit":null},{"seq":"5","term":"Missed DULAGLUTIDE dose on 2025-02-12","decod":"MISSED DOSE","cat":"MINOR","scat":"DOSING","start_dtc":"2025-02-12","end_dtc":null,"visit":null},{"seq":"6","term":"Missed DULAGLUTIDE dose on 2025-03-12","decod":"MISSED DOSE","cat":"MINOR","scat":"DOSING","start_dtc":"2025-03-12","end_dtc":null,"visit":null},{"seq":"7","term":"Visit WEEK 56 SAFETY FU occurred 6 days early (Day 387 vs planned Day 393)","decod":"VISIT OCCURRED OUTSIDE VISIT WINDOW","cat":"MINOR","scat":"VISIT WINDOW","start_dtc":"2025-05-01","end_dtc":null,"visit":null}],"total":7},"section_12_disposition":{"completion_status":"COMPLETED","disposition_records":[{"seq":"1","term":"INFORMED CONSENT OBTAINED","decod":"INFORMED CONSENT OBTAINED","cat":"PROTOCOL MILESTONE","scat":null,"dtc":"2024-03-18","dy":null,"visit":null,"epoch":"SCREENING"},{"seq":"2","term":"RANDOMIZED","decod":"RANDOMIZED","cat":"PROTOCOL MILESTONE","scat":null,"dtc":"2024-04-10","dy":null,"visit":null,"epoch":"TREATMENT"},{"seq":"3","term":"COMPLETED","decod":"COMPLETED","cat":"DISPOSITION EVENT","scat":null,"dtc":"2025-06-03","dy":null,"visit":null,"epoch":"FOLLOW-UP"}],"death":null},"section_13_hospitalizations":{"items":[{"seq":"1","term":"Diarrhoea","decod":"Diarrhoea","cat":"HOSPITALIZATION","start_dtc":"2024-05-05","end_dtc":"2024-05-11","epoch":"TREATMENT"},{"seq":"2","term":"Diarrhoea","decod":"Diarrhoea","cat":"HOSPITALIZATION","start_dtc":"2024-05-12","end_dtc":"2024-05-18","epoch":"TREATMENT"},{"seq":"3","term":"Headache","decod":"Headache","cat":"HOSPITALIZATION","start_dtc":"2024-07-20","end_dtc":"2024-08-09","epoch":"TREATMENT"},{"seq":"4","term":"Dyspepsia","decod":"Dyspepsia","cat":"HOSPITALIZATION","start_dtc":"2024-08-25","end_dtc":"2024-09-04","epoch":"TREATMENT"},{"seq":"5","term":"Diarrhoea","decod":"Diarrhoea","cat":"EMERGENCY ROOM VISIT","start_dtc":"2024-11-10","end_dtc":"2024-11-25","epoch":"TREATMENT"},{"seq":"6","term":"Dyspepsia","decod":"Dyspepsia","cat":"HOSPITALIZATION","start_dtc":"2025-01-26","end_dtc":"2025-02-01","epoch":"TREATMENT"}],"total":6},"section_14_substance_use":{"items":[{"seq":"1","substance":"BEER/WINE/SPIRITS","decod":"ETHANOL","cat":"ALCOHOL","scat":null,"usage":"Y","dose":"3.0","dosu":"DRINKS/WEEK","freq":"QW","start_dtc":"1998-03-25","end_dtc":null},{"seq":"2","substance":"COFFEE","decod":"COFFEE","cat":"CAFFEINE","scat":null,"usage":"N","dose":null,"dosu":null,"freq":null,"start_dtc":null,"end_dtc":null},{"seq":"3","substance":"CIGARETTES","decod":"CIGARETTES","cat":"TOBACCO","scat":null,"usage":"Y","dose":"28.0","dosu":"CIGARETTES/DAY","freq":"QD","start_dtc":"2002-03-24","end_dtc":null}],"total":3},"section_15_subject_status":{"items":[{"seq":"1","testcd":"SURVSTAT","test":"Survival Status","orres":"ALIVE","stresc":"ALIVE","dtc":"2025-06-03","visit":null,"epoch":"FOLLOW-UP"}],"total":1}}