{"subject_id":"I8F-JE-GPGO-SURPASS-JPN_SENDAI01-0009","study_id":"I8F-JE-GPGO-SURPASS","generated_at":"2026-07-07T06:16:06.644525+00:00","sdtmig_version":"3.4","flags":{"has_serious_ae":true,"has_fatal_ae":false,"has_protocol_deviation":true,"n_protocol_deviations":18,"n_adverse_events":30,"n_concomitant_meds":20,"max_ae_severity":"SEVERE","screen_failure":false,"discontinued_early":false,"discontinuation_reason":null,"death":false,"exposure_days":350},"timeline":[{"dtc":"2024-01-31","dy":"-32","event":"VISIT: SCREENING","domain":"SV","category":"visit"},{"dtc":"2024-02-17","dy":"-15","event":"INFORMED CONSENT OBTAINED","domain":"DS","category":"milestone"},{"dtc":"2024-03-03","dy":"1","event":"RANDOMIZED","domain":"DS","category":"milestone"},{"dtc":"2024-03-03","dy":"1","event":"FIRST DOSE: TIRZEPATIDE","domain":"EX","category":"exposure"},{"dtc":"2024-03-03","dy":"1","event":"VISIT: BASELINE","domain":"SV","category":"visit"},{"dtc":"2024-03-10","dy":"8","event":"DEVIATION: DOSE MODIFICATION","domain":"DV","category":"deviation"},{"dtc":"2024-03-15","dy":"13","event":"AE: Diarrhoea (MILD)","domain":"AE","category":"adverse_event"},{"dtc":"2024-03-17","dy":"15","event":"DEVIATION: DOSE MODIFICATION","domain":"DV","category":"deviation"},{"dtc":"2024-03-31","dy":"29","event":"VISIT: WEEK 4","domain":"SV","category":"visit"},{"dtc":"2024-04-07","dy":"36","event":"DEVIATION: DOSE MODIFICATION","domain":"DV","category":"deviation"},{"dtc":"2024-04-12","dy":"41","event":"AE: Decreased appetite (MILD)","domain":"AE","category":"adverse_event"},{"dtc":"2024-04-12","dy":"41","event":"CM START: MEGESTROL","domain":"CM","category":"concomitant_med"},{"dtc":"2024-04-14","dy":"43","event":"DEVIATION: DOSE MODIFICATION","domain":"DV","category":"deviation"},{"dtc":"2024-05-01","dy":"60","event":"VISIT: WEEK 8","domain":"SV","category":"visit"},{"dtc":"2024-05-12","dy":"71","event":"AE: Nausea (MODERATE)","domain":"AE","category":"adverse_event"},{"dtc":"2024-05-12","dy":"71","event":"DEVIATION: DOSE MODIFICATION","domain":"DV","category":"deviation"},{"dtc":"2024-05-12","dy":"71","event":"CM START: ONDANSETRON","domain":"CM","category":"concomitant_med"},{"dtc":"2024-05-13","dy":"72","event":"AE: Abdominal pain (MODERATE)","domain":"AE","category":"adverse_event"},{"dtc":"2024-05-13","dy":"72","event":"CM START: PARACETAMOL","domain":"CM","category":"concomitant_med"},{"dtc":"2024-05-15","dy":"74","event":"AE: Cholelithiasis (SEVERE) [SERIOUS]","domain":"AE","category":"adverse_event"},{"dtc":"2024-05-15","dy":"74","event":"CM START: IBUPROFEN","domain":"CM","category":"concomitant_med"},{"dtc":"2024-05-16","dy":"75","event":"AE: Headache (MODERATE)","domain":"AE","category":"adverse_event"},{"dtc":"2024-05-16","dy":"75","event":"CM START: PARACETAMOL","domain":"CM","category":"concomitant_med"},{"dtc":"2024-05-19","dy":"78","event":"DEVIATION: DOSE MODIFICATION","domain":"DV","category":"deviation"},{"dtc":"2024-05-24","dy":"83","event":"DEVIATION: VISIT OCCURRED OUTSIDE VISIT WINDOW","domain":"DV","category":"deviation"},{"dtc":"2024-05-24","dy":"83","event":"VISIT: WEEK 12","domain":"SV","category":"visit"},{"dtc":"2024-05-31","dy":"90","event":"AE: Diarrhoea (MILD)","domain":"AE","category":"adverse_event"},{"dtc":"2024-06-02","dy":"92","event":"DEVIATION: DOSE MODIFICATION","domain":"DV","category":"deviation"},{"dtc":"2024-06-06","dy":"96","event":"AE: Diarrhoea (SEVERE) [SERIOUS]","domain":"AE","category":"adverse_event"},{"dtc":"2024-06-06","dy":"96","event":"CM START: LOPERAMIDE","domain":"CM","category":"concomitant_med"},{"dtc":"2024-06-11","dy":"101","event":"AE: Dyspepsia (SEVERE) [SERIOUS]","domain":"AE","category":"adverse_event"},{"dtc":"2024-06-11","dy":"101","event":"CM START: OMEPRAZOLE","domain":"CM","category":"concomitant_med"},{"dtc":"2024-06-13","dy":"103","event":"AE: Vomiting (MILD)","domain":"AE","category":"adverse_event"},{"dtc":"2024-06-16","dy":"106","event":"AE: Abdominal pain (MODERATE)","domain":"AE","category":"adverse_event"},{"dtc":"2024-06-16","dy":"106","event":"DEVIATION: DOSE MODIFICATION","domain":"DV","category":"deviation"},{"dtc":"2024-06-16","dy":"106","event":"CM START: HYOSCINE BUTYLBROMIDE","domain":"CM","category":"concomitant_med"},{"dtc":"2024-06-19","dy":"109","event":"AE: Flatulence (MILD)","domain":"AE","category":"adverse_event"},{"dtc":"2024-06-19","dy":"109","event":"VISIT: WEEK 16","domain":"SV","category":"visit"},{"dtc":"2024-06-20","dy":"110","event":"AE: Flatulence (MODERATE)","domain":"AE","category":"adverse_event"},{"dtc":"2024-06-23","dy":"113","event":"DEVIATION: DOSE MODIFICATION","domain":"DV","category":"deviation"},{"dtc":"2024-07-07","dy":"127","event":"DEVIATION: DOSE MODIFICATION","domain":"DV","category":"deviation"},{"dtc":"2024-07-10","dy":"130","event":"AE: Constipation (MILD)","domain":"AE","category":"adverse_event"},{"dtc":"2024-07-13","dy":"133","event":"AE: Abdominal pain (MILD)","domain":"AE","category":"adverse_event"},{"dtc":"2024-07-13","dy":"133","event":"CM START: PARACETAMOL","domain":"CM","category":"concomitant_med"},{"dtc":"2024-07-24","dy":"144","event":"DEVIATION: MISSED ASSESSMENT","domain":"DV","category":"deviation"},{"dtc":"2024-07-24","dy":"144","event":"VISIT: WEEK 20","domain":"SV","category":"visit"},{"dtc":"2024-07-30","dy":"150","event":"AE: Headache (SEVERE) [SERIOUS]","domain":"AE","category":"adverse_event"},{"dtc":"2024-07-30","dy":"150","event":"AE: Diarrhoea (MODERATE)","domain":"AE","category":"adverse_event"},{"dtc":"2024-07-30","dy":"150","event":"CM START: PARACETAMOL","domain":"CM","category":"concomitant_med"},{"dtc":"2024-07-30","dy":"150","event":"CM START: LOPERAMIDE","domain":"CM","category":"concomitant_med"},{"dtc":"2024-08-14","dy":"165","event":"AE: Nausea (MILD)","domain":"AE","category":"adverse_event"},{"dtc":"2024-08-14","dy":"165","event":"AE: Dyspepsia (MODERATE)","domain":"AE","category":"adverse_event"},{"dtc":"2024-08-14","dy":"165","event":"CM START: OMEPRAZOLE","domain":"CM","category":"concomitant_med"},{"dtc":"2024-08-17","dy":"168","event":"AE: Diarrhoea (SEVERE) [SERIOUS]","domain":"AE","category":"adverse_event"},{"dtc":"2024-08-17","dy":"168","event":"CM START: LOPERAMIDE","domain":"CM","category":"concomitant_med"},{"dtc":"2024-08-21","dy":"172","event":"VISIT: WEEK 24","domain":"SV","category":"visit"},{"dtc":"2024-09-02","dy":"184","event":"AE: Diarrhoea (MODERATE)","domain":"AE","category":"adverse_event"},{"dtc":"2024-09-02","dy":"184","event":"CM START: LOPERAMIDE","domain":"CM","category":"concomitant_med"},{"dtc":"2024-09-04","dy":"186","event":"AE: Fatigue (MILD)","domain":"AE","category":"adverse_event"},{"dtc":"2024-09-07","dy":"189","event":"AE: Diarrhoea (MODERATE)","domain":"AE","category":"adverse_event"},{"dtc":"2024-09-08","dy":"190","event":"DEVIATION: MISSED DOSE","domain":"DV","category":"deviation"},{"dtc":"2024-10-03","dy":"215","event":"AE: Injection site reaction (MODERATE)","domain":"AE","category":"adverse_event"},{"dtc":"2024-10-03","dy":"215","event":"CM START: HYDROCORTISONE CREAM","domain":"CM","category":"concomitant_med"},{"dtc":"2024-10-04","dy":"216","event":"AE: Abdominal pain (SEVERE) [SERIOUS]","domain":"AE","category":"adverse_event"},{"dtc":"2024-10-04","dy":"216","event":"CM START: PARACETAMOL","domain":"CM","category":"concomitant_med"},{"dtc":"2024-10-15","dy":"227","event":"VISIT: WEEK 32","domain":"SV","category":"visit"},{"dtc":"2024-10-26","dy":"238","event":"AE: Diarrhoea (SEVERE) [SERIOUS]","domain":"AE","category":"adverse_event"},{"dtc":"2024-10-26","dy":"238","event":"CM START: LOPERAMIDE","domain":"CM","category":"concomitant_med"},{"dtc":"2024-11-02","dy":"245","event":"AE: Headache (MODERATE)","domain":"AE","category":"adverse_event"},{"dtc":"2024-11-08","dy":"251","event":"AE: Lipase increased (MILD)","domain":"AE","category":"adverse_event"},{"dtc":"2024-11-10","dy":"253","event":"AE: Vomiting (SEVERE) [SERIOUS]","domain":"AE","category":"adverse_event"},{"dtc":"2024-11-10","dy":"253","event":"DEVIATION: MISSED DOSE","domain":"DV","category":"deviation"},{"dtc":"2024-11-10","dy":"253","event":"CM START: ONDANSETRON","domain":"CM","category":"concomitant_med"},{"dtc":"2024-11-13","dy":"256","event":"AE: Decreased appetite (SEVERE) [SERIOUS]","domain":"AE","category":"adverse_event"},{"dtc":"2024-11-13","dy":"256","event":"CM START: MEGESTROL","domain":"CM","category":"concomitant_med"},{"dtc":"2024-12-10","dy":"283","event":"VISIT: WEEK 40","domain":"SV","category":"visit"},{"dtc":"2024-12-29","dy":"302","event":"DEVIATION: MISSED DOSE","domain":"DV","category":"deviation"},{"dtc":"2025-02-09","dy":"344","event":"DEVIATION: MISSED DOSE","domain":"DV","category":"deviation"},{"dtc":"2025-02-15","dy":"350","event":"CM START: METFORMIN","domain":"CM","category":"concomitant_med"},{"dtc":"2025-02-16","dy":"351","event":"LAST DOSE: TIRZEPATIDE","domain":"EX","category":"exposure"},{"dtc":"2025-02-23","dy":"358","event":"DEVIATION: MISSED DOSE","domain":"DV","category":"deviation"},{"dtc":"2025-03-04","dy":"367","event":"DEVIATION: MISSED ASSESSMENT","domain":"DV","category":"deviation"},{"dtc":"2025-03-04","dy":"367","event":"VISIT: WEEK 52 EOT","domain":"SV","category":"visit"},{"dtc":"2025-03-29","dy":"392","event":"VISIT: WEEK 56 SAFETY FU","domain":"SV","category":"visit"},{"dtc":"2025-04-26","dy":"420","event":"COMPLETED","domain":"DS","category":"milestone"}],"section_1_demographics":{"usubjid":"I8F-JE-GPGO-SURPASS-JPN_SENDAI01-0009","subjid":"0009","siteid":"JPN_SENDAI01","age":"54","ageu":"YEARS","sex":"F","race":"ASIAN","ethnicity":"NOT HISPANIC OR LATINO","country":"JPN","arm":"Tirzepatide 15 mg QW SC (target)","armcd":"TIRZ_15","actarm":"Tirzepatide 15 mg QW SC (target)","actarmcd":"TIRZ_15","randomization_date":null,"informed_consent_date":"2024-02-17","reference_start_date":"2024-03-03","reference_end_date":"2025-04-26","screen_failure":false,"death_flag":null,"death_date":null,"subject_characteristics":[{"testcd":"ALCUSE","test":"Alcohol Use","orres":"CURRENT DRINKER","stresc":"CURRENT DRINKER","visit":null,"dtc":"2024-02-17"},{"testcd":"BMI","test":"Body Mass Index","orres":"27.8","stresc":"27.8","visit":null,"dtc":"2024-02-17"},{"testcd":"DURDIS","test":"Duration of Disease","orres":"109 months","stresc":"109","visit":null,"dtc":"2024-02-17"},{"testcd":"TOBPKYR","test":"Tobacco Pack-Years","orres":"5","stresc":"5","visit":null,"dtc":"2024-02-17"},{"testcd":"TOBUSE","test":"Tobacco Use","orres":"CURRENT SMOKER","stresc":"CURRENT SMOKER","visit":null,"dtc":"2024-02-17"}]},"section_2_medical_history":{"items":[{"seq":"1","term":"DEPRESSION","decod":"DEPRESSION","cat":"PSYCHIATRIC","scat":null,"presp":null,"occur":null,"status":null,"onset_dtc":"2021-02-17","end_dtc":"2022-04-18","visit":null},{"seq":"2","term":"HYPERTENSION","decod":"HYPERTENSION","cat":"CARDIOVASCULAR","scat":null,"presp":null,"occur":null,"status":null,"onset_dtc":"2015-02","end_dtc":"2017-04-04","visit":null},{"seq":"3","term":"OBESITY","decod":"OBESITY","cat":"METABOLIC","scat":null,"presp":null,"occur":null,"status":null,"onset_dtc":"2022-02-17","end_dtc":"2023-08-24","visit":null}]},"section_3_inclusion_exclusion":{"criteria":[]},"section_4_trial_participation":{"visits":[{"visitnum":"1.0","visit":"SCREENING","start_dtc":"2024-01-31","end_dtc":"2024-01-31","updes":null},{"visitnum":"2.0","visit":"BASELINE","start_dtc":"2024-03-03","end_dtc":"2024-03-03","updes":null},{"visitnum":"3.0","visit":"WEEK 4","start_dtc":"2024-03-31","end_dtc":"2024-03-31","updes":null},{"visitnum":"4.0","visit":"WEEK 8","start_dtc":"2024-05-01","end_dtc":"2024-05-01","updes":null},{"visitnum":"5.0","visit":"WEEK 12","start_dtc":"2024-05-24","end_dtc":"2024-05-24","updes":null},{"visitnum":"6.0","visit":"WEEK 16","start_dtc":"2024-06-19","end_dtc":"2024-06-19","updes":null},{"visitnum":"7.0","visit":"WEEK 20","start_dtc":"2024-07-24","end_dtc":"2024-07-24","updes":null},{"visitnum":"8.0","visit":"WEEK 24","start_dtc":"2024-08-21","end_dtc":"2024-08-21","updes":null},{"visitnum":"9.0","visit":"WEEK 32","start_dtc":"2024-10-15","end_dtc":"2024-10-15","updes":null},{"visitnum":"10.0","visit":"WEEK 40","start_dtc":"2024-12-10","end_dtc":"2024-12-10","updes":null},{"visitnum":"11.0","visit":"WEEK 52 EOT","start_dtc":"2025-03-04","end_dtc":"2025-03-04","updes":null},{"visitnum":"12.0","visit":"WEEK 56 SAFETY FU","start_dtc":"2025-03-29","end_dtc":"2025-03-29","updes":null}],"epochs":[{"seq":"1","etcd":"SCRN","element":"Screening","start_dtc":"2024-02-04","end_dtc":"2024-03-03","updes":null},{"seq":"2","etcd":"TRT","element":"Treatment","start_dtc":"2024-03-03","end_dtc":"2025-03-02","updes":null},{"seq":"3","etcd":"FU","element":"Safety follow-up","start_dtc":"2025-03-02","end_dtc":"2025-03-29","updes":null}],"visit_count":12},"section_5_concomitant_medications":{"medications":[{"seq":"1","trt":"MEGESTROL","decod":"MEGESTROL","cat":"CONCOMITANT","dose":"400.0","doseu":null,"dosef":"QD","route":"ORAL","indication":"DECREASED APPETITE","start_dtc":"2024-04-12","end_dtc":"2024-04-26","ongoing":null,"visit":null},{"seq":"2","trt":"ONDANSETRON","decod":"ONDANSETRON","cat":"CONCOMITANT","dose":"4","doseu":null,"dosef":"PRN","route":"ORAL","indication":"NAUSEA","start_dtc":"2024-05-12","end_dtc":"2024-05-27","ongoing":null,"visit":null},{"seq":"3","trt":"PARACETAMOL","decod":"PARACETAMOL","cat":"CONCOMITANT","dose":"500","doseu":null,"dosef":"PRN","route":"ORAL","indication":"ABDOMINAL PAIN","start_dtc":"2024-05-13","end_dtc":"2024-05-20","ongoing":null,"visit":null},{"seq":"4","trt":"IBUPROFEN","decod":"IBUPROFEN","cat":"CONCOMITANT","dose":"400","doseu":null,"dosef":"PRN","route":"ORAL","indication":"CHOLELITHIASIS","start_dtc":"2024-05-15","end_dtc":"2024-06-08","ongoing":null,"visit":null},{"seq":"5","trt":"PARACETAMOL","decod":"PARACETAMOL","cat":"CONCOMITANT","dose":"500","doseu":null,"dosef":"PRN","route":"ORAL","indication":"HEADACHE","start_dtc":"2024-05-16","end_dtc":"2024-05-24","ongoing":null,"visit":null},{"seq":"6","trt":"LOPERAMIDE","decod":"LOPERAMIDE","cat":"CONCOMITANT","dose":"2","doseu":null,"dosef":"PRN","route":"ORAL","indication":"DIARRHOEA","start_dtc":"2024-06-06","end_dtc":"2024-06-09","ongoing":null,"visit":null},{"seq":"7","trt":"OMEPRAZOLE","decod":"OMEPRAZOLE","cat":"CONCOMITANT","dose":"20.0","doseu":null,"dosef":"QD","route":"ORAL","indication":"DYSPEPSIA","start_dtc":"2024-06-11","end_dtc":"2024-07-06","ongoing":null,"visit":null},{"seq":"8","trt":"HYOSCINE BUTYLBROMIDE","decod":"HYOSCINE BUTYLBROMIDE","cat":"CONCOMITANT","dose":"10","doseu":null,"dosef":"TID","route":"ORAL","indication":"ABDOMINAL PAIN","start_dtc":"2024-06-16","end_dtc":"2024-06-22","ongoing":null,"visit":null},{"seq":"9","trt":"PARACETAMOL","decod":"PARACETAMOL","cat":"CONCOMITANT","dose":"500","doseu":null,"dosef":"PRN","route":"ORAL","indication":"ABDOMINAL PAIN","start_dtc":"2024-07-13","end_dtc":"2024-07-22","ongoing":null,"visit":null},{"seq":"10","trt":"PARACETAMOL","decod":"PARACETAMOL","cat":"CONCOMITANT","dose":"500","doseu":null,"dosef":"PRN","route":"ORAL","indication":"HEADACHE","start_dtc":"2024-07-30","end_dtc":"2024-08-11","ongoing":null,"visit":null},{"seq":"11","trt":"LOPERAMIDE","decod":"LOPERAMIDE","cat":"CONCOMITANT","dose":"2","doseu":null,"dosef":"PRN","route":"ORAL","indication":"DIARRHOEA","start_dtc":"2024-07-30","end_dtc":"2024-08-05","ongoing":null,"visit":null},{"seq":"12","trt":"OMEPRAZOLE","decod":"OMEPRAZOLE","cat":"CONCOMITANT","dose":"20.0","doseu":null,"dosef":"QD","route":"ORAL","indication":"DYSPEPSIA","start_dtc":"2024-08-14","end_dtc":"2024-09-10","ongoing":null,"visit":null},{"seq":"13","trt":"LOPERAMIDE","decod":"LOPERAMIDE","cat":"CONCOMITANT","dose":"2","doseu":null,"dosef":"PRN","route":"ORAL","indication":"DIARRHOEA","start_dtc":"2024-08-17","end_dtc":"2024-09-05","ongoing":null,"visit":null},{"seq":"14","trt":"LOPERAMIDE","decod":"LOPERAMIDE","cat":"CONCOMITANT","dose":"2","doseu":null,"dosef":"PRN","route":"ORAL","indication":"DIARRHOEA","start_dtc":"2024-09-02","end_dtc":"2024-09-20","ongoing":null,"visit":null},{"seq":"15","trt":"HYDROCORTISONE CREAM","decod":"HYDROCORTISONE CREAM","cat":"CONCOMITANT","dose":"1","doseu":null,"dosef":"BID","route":"TOPICAL","indication":"INJECTION SITE REACTION","start_dtc":"2024-10-03","end_dtc":"2024-10-19","ongoing":null,"visit":null},{"seq":"16","trt":"PARACETAMOL","decod":"PARACETAMOL","cat":"CONCOMITANT","dose":"500","doseu":null,"dosef":"PRN","route":"ORAL","indication":"ABDOMINAL PAIN","start_dtc":"2024-10-04","end_dtc":"2024-10-24","ongoing":null,"visit":null},{"seq":"17","trt":"LOPERAMIDE","decod":"LOPERAMIDE","cat":"CONCOMITANT","dose":"2","doseu":null,"dosef":"PRN","route":"ORAL","indication":"DIARRHOEA","start_dtc":"2024-10-26","end_dtc":"2024-11-05","ongoing":null,"visit":null},{"seq":"18","trt":"ONDANSETRON","decod":"ONDANSETRON","cat":"CONCOMITANT","dose":"8","doseu":null,"dosef":"BID","route":"ORAL","indication":"VOMITING","start_dtc":"2024-11-10","end_dtc":"2024-12-08","ongoing":null,"visit":null},{"seq":"19","trt":"MEGESTROL","decod":"MEGESTROL","cat":"CONCOMITANT","dose":"400.0","doseu":null,"dosef":"QD","route":"ORAL","indication":"DECREASED APPETITE","start_dtc":"2024-11-13","end_dtc":"2024-11-17","ongoing":null,"visit":null},{"seq":"20","trt":"METFORMIN","decod":"METFORMIN","cat":"CONCOMITANT","dose":null,"doseu":null,"dosef":"BID","route":"ORAL","indication":null,"start_dtc":"2025-02-15","end_dtc":"2025-04-26","ongoing":null,"visit":null}]},"section_6_exposure":{"exposure_as_administered":[{"seq":"1","trt":"TIRZEPATIDE","dose":"2.5","doseu":null,"dosef":"QW","route":"SUBCUTANEOUS","lot":null,"start_dtc":"2024-03-03","end_dtc":"2024-03-03","start_dy":"1","end_dy":"1","epoch":"TREATMENT","visit":null},{"seq":"2","trt":"TIRZEPATIDE","dose":"2.5","doseu":null,"dosef":"QW","route":"SUBCUTANEOUS","lot":null,"start_dtc":"2024-03-10","end_dtc":"2024-03-10","start_dy":"8","end_dy":"8","epoch":"TREATMENT","visit":null},{"seq":"3","trt":"TIRZEPATIDE","dose":"2.5","doseu":null,"dosef":"QW","route":"SUBCUTANEOUS","lot":null,"start_dtc":"2024-03-17","end_dtc":"2024-03-17","start_dy":"15","end_dy":"15","epoch":"TREATMENT","visit":null},{"seq":"4","trt":"TIRZEPATIDE","dose":"2.5","doseu":null,"dosef":"QW","route":"SUBCUTANEOUS","lot":null,"start_dtc":"2024-03-24","end_dtc":"2024-03-24","start_dy":"22","end_dy":"22","epoch":"TREATMENT","visit":null},{"seq":"5","trt":"TIRZEPATIDE","dose":"5.0","doseu":null,"dosef":"QW","route":"SUBCUTANEOUS","lot":null,"start_dtc":"2024-03-31","end_dtc":"2024-03-31","start_dy":"29","end_dy":"29","epoch":"TREATMENT","visit":null},{"seq":"6","trt":"TIRZEPATIDE","dose":"5.0","doseu":null,"dosef":"QW","route":"SUBCUTANEOUS","lot":null,"start_dtc":"2024-04-07","end_dtc":"2024-04-07","start_dy":"36","end_dy":"36","epoch":"TREATMENT","visit":null},{"seq":"7","trt":"TIRZEPATIDE","dose":"5.0","doseu":null,"dosef":"QW","route":"SUBCUTANEOUS","lot":null,"start_dtc":"2024-04-14","end_dtc":"2024-04-14","start_dy":"43","end_dy":"43","epoch":"TREATMENT","visit":null},{"seq":"8","trt":"TIRZEPATIDE","dose":"5.0","doseu":null,"dosef":"QW","route":"SUBCUTANEOUS","lot":null,"start_dtc":"2024-04-21","end_dtc":"2024-04-21","start_dy":"50","end_dy":"50","epoch":"TREATMENT","visit":null},{"seq":"9","trt":"TIRZEPATIDE","dose":"7.5","doseu":null,"dosef":"QW","route":"SUBCUTANEOUS","lot":null,"start_dtc":"2024-04-28","end_dtc":"2024-04-28","start_dy":"57","end_dy":"57","epoch":"TREATMENT","visit":null},{"seq":"10","trt":"TIRZEPATIDE","dose":"7.5","doseu":null,"dosef":"QW","route":"SUBCUTANEOUS","lot":null,"start_dtc":"2024-05-05","end_dtc":"2024-05-05","start_dy":"64","end_dy":"64","epoch":"TREATMENT","visit":null},{"seq":"11","trt":"TIRZEPATIDE","dose":"7.5","doseu":null,"dosef":"QW","route":"SUBCUTANEOUS","lot":null,"start_dtc":"2024-05-12","end_dtc":"2024-05-12","start_dy":"71","end_dy":"71","epoch":"TREATMENT","visit":null},{"seq":"12","trt":"TIRZEPATIDE","dose":"7.5","doseu":null,"dosef":"QW","route":"SUBCUTANEOUS","lot":null,"start_dtc":"2024-05-19","end_dtc":"2024-05-19","start_dy":"78","end_dy":"78","epoch":"TREATMENT","visit":null},{"seq":"13","trt":"TIRZEPATIDE","dose":"10.0","doseu":null,"dosef":"QW","route":"SUBCUTANEOUS","lot":null,"start_dtc":"2024-05-26","end_dtc":"2024-05-26","start_dy":"85","end_dy":"85","epoch":"TREATMENT","visit":null},{"seq":"14","trt":"TIRZEPATIDE","dose":"10.0","doseu":null,"dosef":"QW","route":"SUBCUTANEOUS","lot":null,"start_dtc":"2024-06-02","end_dtc":"2024-06-02","start_dy":"92","end_dy":"92","epoch":"TREATMENT","visit":null},{"seq":"15","trt":"TIRZEPATIDE","dose":"10.0","doseu":null,"dosef":"QW","route":"SUBCUTANEOUS","lot":null,"start_dtc":"2024-06-09","end_dtc":"2024-06-09","start_dy":"99","end_dy":"99","epoch":"TREATMENT","visit":null},{"seq":"16","trt":"TIRZEPATIDE","dose":"10.0","doseu":null,"dosef":"QW","route":"SUBCUTANEOUS","lot":null,"start_dtc":"2024-06-16","end_dtc":"2024-06-16","start_dy":"106","end_dy":"106","epoch":"TREATMENT","visit":null},{"seq":"17","trt":"TIRZEPATIDE","dose":"12.5","doseu":null,"dosef":"QW","route":"SUBCUTANEOUS","lot":null,"start_dtc":"2024-06-23","end_dtc":"2024-06-23","start_dy":"113","end_dy":"113","epoch":"TREATMENT","visit":null},{"seq":"18","trt":"TIRZEPATIDE","dose":"12.5","doseu":null,"dosef":"QW","route":"SUBCUTANEOUS","lot":null,"start_dtc":"2024-06-30","end_dtc":"2024-06-30","start_dy":"120","end_dy":"120","epoch":"TREATMENT","visit":null},{"seq":"19","trt":"TIRZEPATIDE","dose":"12.5","doseu":null,"dosef":"QW","route":"SUBCUTANEOUS","lot":null,"start_dtc":"2024-07-07","end_dtc":"2024-07-07","start_dy":"127","end_dy":"127","epoch":"TREATMENT","visit":null},{"seq":"20","trt":"TIRZEPATIDE","dose":"12.5","doseu":null,"dosef":"QW","route":"SUBCUTANEOUS","lot":null,"start_dtc":"2024-07-14","end_dtc":"2024-07-14","start_dy":"134","end_dy":"134","epoch":"TREATMENT","visit":null},{"seq":"21","trt":"TIRZEPATIDE","dose":"15.0","doseu":null,"dosef":"QW","route":"SUBCUTANEOUS","lot":null,"start_dtc":"2024-07-21","end_dtc":"2024-07-21","start_dy":"141","end_dy":"141","epoch":"TREATMENT","visit":null},{"seq":"22","trt":"TIRZEPATIDE","dose":"15.0","doseu":null,"dosef":"QW","route":"SUBCUTANEOUS","lot":null,"start_dtc":"2024-07-28","end_dtc":"2024-07-28","start_dy":"148","end_dy":"148","epoch":"TREATMENT","visit":null},{"seq":"23","trt":"TIRZEPATIDE","dose":"15.0","doseu":null,"dosef":"QW","route":"SUBCUTANEOUS","lot":null,"start_dtc":"2024-08-04","end_dtc":"2024-08-04","start_dy":"155","end_dy":"155","epoch":"TREATMENT","visit":null},{"seq":"24","trt":"TIRZEPATIDE","dose":"15.0","doseu":null,"dosef":"QW","route":"SUBCUTANEOUS","lot":null,"start_dtc":"2024-08-11","end_dtc":"2024-08-11","start_dy":"162","end_dy":"162","epoch":"TREATMENT","visit":null},{"seq":"25","trt":"TIRZEPATIDE","dose":"15.0","doseu":null,"dosef":"QW","route":"SUBCUTANEOUS","lot":null,"start_dtc":"2024-08-18","end_dtc":"2024-08-18","start_dy":"169","end_dy":"169","epoch":"TREATMENT","visit":null},{"seq":"26","trt":"TIRZEPATIDE","dose":"15.0","doseu":null,"dosef":"QW","route":"SUBCUTANEOUS","lot":null,"start_dtc":"2024-08-25","end_dtc":"2024-08-25","start_dy":"176","end_dy":"176","epoch":"TREATMENT","visit":null},{"seq":"27","trt":"TIRZEPATIDE","dose":"15.0","doseu":null,"dosef":"QW","route":"SUBCUTANEOUS","lot":null,"start_dtc":"2024-09-01","end_dtc":"2024-09-01","start_dy":"183","end_dy":"183","epoch":"TREATMENT","visit":null},{"seq":"28","trt":"TIRZEPATIDE","dose":"15.0","doseu":null,"dosef":"QW","route":"SUBCUTANEOUS","lot":null,"start_dtc":"2024-09-15","end_dtc":"2024-09-15","start_dy":"197","end_dy":"197","epoch":"TREATMENT","visit":null},{"seq":"29","trt":"TIRZEPATIDE","dose":"15.0","doseu":null,"dosef":"QW","route":"SUBCUTANEOUS","lot":null,"start_dtc":"2024-09-22","end_dtc":"2024-09-22","start_dy":"204","end_dy":"204","epoch":"TREATMENT","visit":null},{"seq":"30","trt":"TIRZEPATIDE","dose":"15.0","doseu":null,"dosef":"QW","route":"SUBCUTANEOUS","lot":null,"start_dtc":"2024-09-29","end_dtc":"2024-09-29","start_dy":"211","end_dy":"211","epoch":"TREATMENT","visit":null},{"seq":"31","trt":"TIRZEPATIDE","dose":"15.0","doseu":null,"dosef":"QW","route":"SUBCUTANEOUS","lot":null,"start_dtc":"2024-10-06","end_dtc":"2024-10-06","start_dy":"218","end_dy":"218","epoch":"TREATMENT","visit":null},{"seq":"32","trt":"TIRZEPATIDE","dose":"15.0","doseu":null,"dosef":"QW","route":"SUBCUTANEOUS","lot":null,"start_dtc":"2024-10-13","end_dtc":"2024-10-13","start_dy":"225","end_dy":"225","epoch":"TREATMENT","visit":null},{"seq":"33","trt":"TIRZEPATIDE","dose":"15.0","doseu":null,"dosef":"QW","route":"SUBCUTANEOUS","lot":null,"start_dtc":"2024-10-20","end_dtc":"2024-10-20","start_dy":"232","end_dy":"232","epoch":"TREATMENT","visit":null},{"seq":"34","trt":"TIRZEPATIDE","dose":"15.0","doseu":null,"dosef":"QW","route":"SUBCUTANEOUS","lot":null,"start_dtc":"2024-10-27","end_dtc":"2024-10-27","start_dy":"239","end_dy":"239","epoch":"TREATMENT","visit":null},{"seq":"35","trt":"TIRZEPATIDE","dose":"15.0","doseu":null,"dosef":"QW","route":"SUBCUTANEOUS","lot":null,"start_dtc":"2024-11-03","end_dtc":"2024-11-03","start_dy":"246","end_dy":"246","epoch":"TREATMENT","visit":null},{"seq":"36","trt":"TIRZEPATIDE","dose":"15.0","doseu":null,"dosef":"QW","route":"SUBCUTANEOUS","lot":null,"start_dtc":"2024-11-17","end_dtc":"2024-11-17","start_dy":"260","end_dy":"260","epoch":"TREATMENT","visit":null},{"seq":"37","trt":"TIRZEPATIDE","dose":"15.0","doseu":null,"dosef":"QW","route":"SUBCUTANEOUS","lot":null,"start_dtc":"2024-11-24","end_dtc":"2024-11-24","start_dy":"267","end_dy":"267","epoch":"TREATMENT","visit":null},{"seq":"38","trt":"TIRZEPATIDE","dose":"15.0","doseu":null,"dosef":"QW","route":"SUBCUTANEOUS","lot":null,"start_dtc":"2024-12-01","end_dtc":"2024-12-01","start_dy":"274","end_dy":"274","epoch":"TREATMENT","visit":null},{"seq":"39","trt":"TIRZEPATIDE","dose":"15.0","doseu":null,"dosef":"QW","route":"SUBCUTANEOUS","lot":null,"start_dtc":"2024-12-08","end_dtc":"2024-12-08","start_dy":"281","end_dy":"281","epoch":"TREATMENT","visit":null},{"seq":"40","trt":"TIRZEPATIDE","dose":"15.0","doseu":null,"dosef":"QW","route":"SUBCUTANEOUS","lot":null,"start_dtc":"2024-12-15","end_dtc":"2024-12-15","start_dy":"288","end_dy":"288","epoch":"TREATMENT","visit":null},{"seq":"41","trt":"TIRZEPATIDE","dose":"15.0","doseu":null,"dosef":"QW","route":"SUBCUTANEOUS","lot":null,"start_dtc":"2024-12-22","end_dtc":"2024-12-22","start_dy":"295","end_dy":"295","epoch":"TREATMENT","visit":null},{"seq":"42","trt":"TIRZEPATIDE","dose":"15.0","doseu":null,"dosef":"QW","route":"SUBCUTANEOUS","lot":null,"start_dtc":"2025-01-05","end_dtc":"2025-01-05","start_dy":"309","end_dy":"309","epoch":"TREATMENT","visit":null},{"seq":"43","trt":"TIRZEPATIDE","dose":"15.0","doseu":null,"dosef":"QW","route":"SUBCUTANEOUS","lot":null,"start_dtc":"2025-01-12","end_dtc":"2025-01-12","start_dy":"316","end_dy":"316","epoch":"TREATMENT","visit":null},{"seq":"44","trt":"TIRZEPATIDE","dose":"15.0","doseu":null,"dosef":"QW","route":"SUBCUTANEOUS","lot":null,"start_dtc":"2025-01-19","end_dtc":"2025-01-19","start_dy":"323","end_dy":"323","epoch":"TREATMENT","visit":null},{"seq":"45","trt":"TIRZEPATIDE","dose":"15.0","doseu":null,"dosef":"QW","route":"SUBCUTANEOUS","lot":null,"start_dtc":"2025-01-26","end_dtc":"2025-01-26","start_dy":"330","end_dy":"330","epoch":"TREATMENT","visit":null},{"seq":"46","trt":"TIRZEPATIDE","dose":"15.0","doseu":null,"dosef":"QW","route":"SUBCUTANEOUS","lot":null,"start_dtc":"2025-02-02","end_dtc":"2025-02-02","start_dy":"337","end_dy":"337","epoch":"TREATMENT","visit":null},{"seq":"47","trt":"TIRZEPATIDE","dose":"15.0","doseu":null,"dosef":"QW","route":"SUBCUTANEOUS","lot":null,"start_dtc":"2025-02-16","end_dtc":"2025-02-16","start_dy":"351","end_dy":"351","epoch":"TREATMENT","visit":null}],"exposure_as_collected":[{"seq":"1","trt":"TIRZEPATIDE","dose":"2.5","doseu":null,"dosef":"QW","route":"SUBCUTANEOUS","start_dtc":"2024-03-03","end_dtc":"2024-03-03","visit":"BASELINE"},{"seq":"2","trt":"TIRZEPATIDE","dose":"2.5","doseu":null,"dosef":"QW","route":"SUBCUTANEOUS","start_dtc":"2024-03-10","end_dtc":"2024-03-10","visit":null},{"seq":"3","trt":"TIRZEPATIDE","dose":"2.5","doseu":null,"dosef":"QW","route":"SUBCUTANEOUS","start_dtc":"2024-03-17","end_dtc":"2024-03-17","visit":null},{"seq":"4","trt":"TIRZEPATIDE","dose":"2.5","doseu":null,"dosef":"QW","route":"SUBCUTANEOUS","start_dtc":"2024-03-24","end_dtc":"2024-03-24","visit":null},{"seq":"5","trt":"TIRZEPATIDE","dose":"5.0","doseu":null,"dosef":"QW","route":"SUBCUTANEOUS","start_dtc":"2024-03-31","end_dtc":"2024-03-31","visit":"WEEK 4"},{"seq":"6","trt":"TIRZEPATIDE","dose":"5.0","doseu":null,"dosef":"QW","route":"SUBCUTANEOUS","start_dtc":"2024-04-07","end_dtc":"2024-04-07","visit":null},{"seq":"7","trt":"TIRZEPATIDE","dose":"5.0","doseu":null,"dosef":"QW","route":"SUBCUTANEOUS","start_dtc":"2024-04-14","end_dtc":"2024-04-14","visit":null},{"seq":"8","trt":"TIRZEPATIDE","dose":"5.0","doseu":null,"dosef":"QW","route":"SUBCUTANEOUS","start_dtc":"2024-04-21","end_dtc":"2024-04-21","visit":null},{"seq":"9","trt":"TIRZEPATIDE","dose":"7.5","doseu":null,"dosef":"QW","route":"SUBCUTANEOUS","start_dtc":"2024-04-28","end_dtc":"2024-04-28","visit":"WEEK 8"},{"seq":"10","trt":"TIRZEPATIDE","dose":"7.5","doseu":null,"dosef":"QW","route":"SUBCUTANEOUS","start_dtc":"2024-05-05","end_dtc":"2024-05-05","visit":null},{"seq":"11","trt":"TIRZEPATIDE","dose":"7.5","doseu":null,"dosef":"QW","route":"SUBCUTANEOUS","start_dtc":"2024-05-12","end_dtc":"2024-05-12","visit":null},{"seq":"12","trt":"TIRZEPATIDE","dose":"7.5","doseu":null,"dosef":"QW","route":"SUBCUTANEOUS","start_dtc":"2024-05-19","end_dtc":"2024-05-19","visit":null},{"seq":"13","trt":"TIRZEPATIDE","dose":"10.0","doseu":null,"dosef":"QW","route":"SUBCUTANEOUS","start_dtc":"2024-05-26","end_dtc":"2024-05-26","visit":"WEEK 12"},{"seq":"14","trt":"TIRZEPATIDE","dose":"10.0","doseu":null,"dosef":"QW","route":"SUBCUTANEOUS","start_dtc":"2024-06-02","end_dtc":"2024-06-02","visit":null},{"seq":"15","trt":"TIRZEPATIDE","dose":"10.0","doseu":null,"dosef":"QW","route":"SUBCUTANEOUS","start_dtc":"2024-06-09","end_dtc":"2024-06-09","visit":null},{"seq":"16","trt":"TIRZEPATIDE","dose":"10.0","doseu":null,"dosef":"QW","route":"SUBCUTANEOUS","start_dtc":"2024-06-16","end_dtc":"2024-06-16","visit":null},{"seq":"17","trt":"TIRZEPATIDE","dose":"12.5","doseu":null,"dosef":"QW","route":"SUBCUTANEOUS","start_dtc":"2024-06-23","end_dtc":"2024-06-23","visit":"WEEK 16"},{"seq":"18","trt":"TIRZEPATIDE","dose":"12.5","doseu":null,"dosef":"QW","route":"SUBCUTANEOUS","start_dtc":"2024-06-30","end_dtc":"2024-06-30","visit":null},{"seq":"19","trt":"TIRZEPATIDE","dose":"12.5","doseu":null,"dosef":"QW","route":"SUBCUTANEOUS","start_dtc":"2024-07-07","end_dtc":"2024-07-07","visit":null},{"seq":"20","trt":"TIRZEPATIDE","dose":"12.5","doseu":null,"dosef":"QW","route":"SUBCUTANEOUS","start_dtc":"2024-07-14","end_dtc":"2024-07-14","visit":null},{"seq":"21","trt":"TIRZEPATIDE","dose":"15.0","doseu":null,"dosef":"QW","route":"SUBCUTANEOUS","start_dtc":"2024-07-21","end_dtc":"2024-07-21","visit":"WEEK 20"},{"seq":"22","trt":"TIRZEPATIDE","dose":"15.0","doseu":null,"dosef":"QW","route":"SUBCUTANEOUS","start_dtc":"2024-07-28","end_dtc":"2024-07-28","visit":null},{"seq":"23","trt":"TIRZEPATIDE","dose":"15.0","doseu":null,"dosef":"QW","route":"SUBCUTANEOUS","start_dtc":"2024-08-04","end_dtc":"2024-08-04","visit":null},{"seq":"24","trt":"TIRZEPATIDE","dose":"15.0","doseu":null,"dosef":"QW","route":"SUBCUTANEOUS","start_dtc":"2024-08-11","end_dtc":"2024-08-11","visit":null},{"seq":"25","trt":"TIRZEPATIDE","dose":"15.0","doseu":null,"dosef":"QW","route":"SUBCUTANEOUS","start_dtc":"2024-08-18","end_dtc":"2024-08-18","visit":"WEEK 24"},{"seq":"26","trt":"TIRZEPATIDE","dose":"15.0","doseu":null,"dosef":"QW","route":"SUBCUTANEOUS","start_dtc":"2024-08-25","end_dtc":"2024-08-25","visit":null},{"seq":"27","trt":"TIRZEPATIDE","dose":"15.0","doseu":null,"dosef":"QW","route":"SUBCUTANEOUS","start_dtc":"2024-09-01","end_dtc":"2024-09-01","visit":null},{"seq":"28","trt":"TIRZEPATIDE","dose":null,"doseu":null,"dosef":"QW","route":"SUBCUTANEOUS","start_dtc":"2024-09-08","end_dtc":"2024-09-08","visit":null},{"seq":"29","trt":"TIRZEPATIDE","dose":"15.0","doseu":null,"dosef":"QW","route":"SUBCUTANEOUS","start_dtc":"2024-09-15","end_dtc":"2024-09-15","visit":null},{"seq":"30","trt":"TIRZEPATIDE","dose":"15.0","doseu":null,"dosef":"QW","route":"SUBCUTANEOUS","start_dtc":"2024-09-22","end_dtc":"2024-09-22","visit":null},{"seq":"31","trt":"TIRZEPATIDE","dose":"15.0","doseu":null,"dosef":"QW","route":"SUBCUTANEOUS","start_dtc":"2024-09-29","end_dtc":"2024-09-29","visit":null},{"seq":"32","trt":"TIRZEPATIDE","dose":"15.0","doseu":null,"dosef":"QW","route":"SUBCUTANEOUS","start_dtc":"2024-10-06","end_dtc":"2024-10-06","visit":null},{"seq":"33","trt":"TIRZEPATIDE","dose":"15.0","doseu":null,"dosef":"QW","route":"SUBCUTANEOUS","start_dtc":"2024-10-13","end_dtc":"2024-10-13","visit":"WEEK 32"},{"seq":"34","trt":"TIRZEPATIDE","dose":"15.0","doseu":null,"dosef":"QW","route":"SUBCUTANEOUS","start_dtc":"2024-10-20","end_dtc":"2024-10-20","visit":null},{"seq":"35","trt":"TIRZEPATIDE","dose":"15.0","doseu":null,"dosef":"QW","route":"SUBCUTANEOUS","start_dtc":"2024-10-27","end_dtc":"2024-10-27","visit":null},{"seq":"36","trt":"TIRZEPATIDE","dose":"15.0","doseu":null,"dosef":"QW","route":"SUBCUTANEOUS","start_dtc":"2024-11-03","end_dtc":"2024-11-03","visit":null},{"seq":"37","trt":"TIRZEPATIDE","dose":null,"doseu":null,"dosef":"QW","route":"SUBCUTANEOUS","start_dtc":"2024-11-10","end_dtc":"2024-11-10","visit":null},{"seq":"38","trt":"TIRZEPATIDE","dose":"15.0","doseu":null,"dosef":"QW","route":"SUBCUTANEOUS","start_dtc":"2024-11-17","end_dtc":"2024-11-17","visit":null},{"seq":"39","trt":"TIRZEPATIDE","dose":"15.0","doseu":null,"dosef":"QW","route":"SUBCUTANEOUS","start_dtc":"2024-11-24","end_dtc":"2024-11-24","visit":null},{"seq":"40","trt":"TIRZEPATIDE","dose":"15.0","doseu":null,"dosef":"QW","route":"SUBCUTANEOUS","start_dtc":"2024-12-01","end_dtc":"2024-12-01","visit":null},{"seq":"41","trt":"TIRZEPATIDE","dose":"15.0","doseu":null,"dosef":"QW","route":"SUBCUTANEOUS","start_dtc":"2024-12-08","end_dtc":"2024-12-08","visit":"WEEK 40"},{"seq":"42","trt":"TIRZEPATIDE","dose":"15.0","doseu":null,"dosef":"QW","route":"SUBCUTANEOUS","start_dtc":"2024-12-15","end_dtc":"2024-12-15","visit":null},{"seq":"43","trt":"TIRZEPATIDE","dose":"15.0","doseu":null,"dosef":"QW","route":"SUBCUTANEOUS","start_dtc":"2024-12-22","end_dtc":"2024-12-22","visit":null},{"seq":"44","trt":"TIRZEPATIDE","dose":null,"doseu":null,"dosef":"QW","route":"SUBCUTANEOUS","start_dtc":"2024-12-29","end_dtc":"2024-12-29","visit":null},{"seq":"45","trt":"TIRZEPATIDE","dose":"15.0","doseu":null,"dosef":"QW","route":"SUBCUTANEOUS","start_dtc":"2025-01-05","end_dtc":"2025-01-05","visit":null},{"seq":"46","trt":"TIRZEPATIDE","dose":"15.0","doseu":null,"dosef":"QW","route":"SUBCUTANEOUS","start_dtc":"2025-01-12","end_dtc":"2025-01-12","visit":null},{"seq":"47","trt":"TIRZEPATIDE","dose":"15.0","doseu":null,"dosef":"QW","route":"SUBCUTANEOUS","start_dtc":"2025-01-19","end_dtc":"2025-01-19","visit":null},{"seq":"48","trt":"TIRZEPATIDE","dose":"15.0","doseu":null,"dosef":"QW","route":"SUBCUTANEOUS","start_dtc":"2025-01-26","end_dtc":"2025-01-26","visit":null},{"seq":"49","trt":"TIRZEPATIDE","dose":"15.0","doseu":null,"dosef":"QW","route":"SUBCUTANEOUS","start_dtc":"2025-02-02","end_dtc":"2025-02-02","visit":null},{"seq":"50","trt":"TIRZEPATIDE","dose":null,"doseu":null,"dosef":"QW","route":"SUBCUTANEOUS","start_dtc":"2025-02-09","end_dtc":"2025-02-09","visit":null},{"seq":"51","trt":"TIRZEPATIDE","dose":"15.0","doseu":null,"dosef":"QW","route":"SUBCUTANEOUS","start_dtc":"2025-02-16","end_dtc":"2025-02-16","visit":null},{"seq":"52","trt":"TIRZEPATIDE","dose":null,"doseu":null,"dosef":"QW","route":"SUBCUTANEOUS","start_dtc":"2025-02-23","end_dtc":"2025-02-23","visit":null}]},"section_7_adverse_events":{"summary":{"total_aes":30,"serious_aes":9,"fatal_aes":0,"by_severity":{"MILD":10,"MODERATE":11,"SEVERE":9},"by_soc":{"Gastrointestinal disorders":21,"Metabolism and nutrition disorders":2,"Hepatobiliary disorders":1,"Nervous system disorders":3,"General disorders and administration site conditions":2,"Investigations":1}},"events":[{"seq":"1","term":"DIARRHOEA","decod":"Diarrhoea","llt":"Diarrhoea","hlt":"Diarrhoea (excl infective)","hlgt":"Gastrointestinal motility and defaecation conditions","soc":"Gastrointestinal disorders","bodsys":"Gastrointestinal disorders","severity":"MILD","serious":"N","causality":"UNLIKELY RELATED","action_taken":"DOSE NOT CHANGED","outcome":"RECOVERED/RESOLVED","fatal":"N","hospitalization":"N","life_threatening":"N","onset_dtc":"2024-03-15","end_dtc":"2024-03-16","onset_dy":"13","end_dy":"14","duration":null,"epoch":"TREATMENT","visit":null,"supplemental":{"AETRTEM":"Y"}},{"seq":"2","term":"DECREASED APPETITE","decod":"Decreased appetite","llt":"Decreased appetite","hlt":"Appetite disorders","hlgt":"Eating disorders and disturbances","soc":"Metabolism and nutrition disorders","bodsys":"Metabolism and nutrition disorders","severity":"MILD","serious":"N","causality":"NOT RELATED","action_taken":"DOSE NOT CHANGED","outcome":"RECOVERED/RESOLVED","fatal":"N","hospitalization":"N","life_threatening":"N","onset_dtc":"2024-04-12","end_dtc":"2024-04-23","onset_dy":"41","end_dy":"52","duration":null,"epoch":"TREATMENT","visit":null,"supplemental":{"AETRTEM":"Y"}},{"seq":"3","term":"NAUSEA","decod":"Nausea","llt":"Nausea","hlt":"Nausea and vomiting symptoms","hlgt":"Gastrointestinal signs and symptoms","soc":"Gastrointestinal disorders","bodsys":"Gastrointestinal disorders","severity":"MODERATE","serious":"N","causality":"UNLIKELY RELATED","action_taken":"DOSE NOT CHANGED","outcome":"RECOVERING/RESOLVING","fatal":"N","hospitalization":"N","life_threatening":"N","onset_dtc":"2024-05-12","end_dtc":"2024-05-17","onset_dy":"71","end_dy":"76","duration":null,"epoch":"TREATMENT","visit":null,"supplemental":{"AETRTEM":"Y"}},{"seq":"4","term":"ABDOMINAL PAIN","decod":"Abdominal pain","llt":"Abdominal pain","hlt":"Gastrointestinal and abdominal pains (excl oral and throat)","hlgt":"Gastrointestinal signs and symptoms","soc":"Gastrointestinal disorders","bodsys":"Gastrointestinal disorders","severity":"MODERATE","serious":"N","causality":"NOT RELATED","action_taken":"DOSE NOT CHANGED","outcome":"RECOVERED/RESOLVED","fatal":"N","hospitalization":"N","life_threatening":"N","onset_dtc":"2024-05-13","end_dtc":"2024-06-11","onset_dy":"72","end_dy":"101","duration":null,"epoch":"TREATMENT","visit":null,"supplemental":{"AETRTEM":"Y"}},{"seq":"5","term":"CHOLELITHIASIS","decod":"Cholelithiasis","llt":"Cholelithiasis","hlt":"Gallbladder disorders","hlgt":"Hepatobiliary disorders NEC","soc":"Hepatobiliary disorders","bodsys":"Hepatobiliary disorders","severity":"SEVERE","serious":"Y","causality":"NOT RELATED","action_taken":"DOSE NOT CHANGED","outcome":"RECOVERING/RESOLVING","fatal":"N","hospitalization":"N","life_threatening":"N","onset_dtc":"2024-05-15","end_dtc":"2024-05-22","onset_dy":"74","end_dy":"81","duration":null,"epoch":"TREATMENT","visit":null,"supplemental":{"AETRTEM":"Y"}},{"seq":"6","term":"HEADACHE","decod":"Headache","llt":"Headache","hlt":"Headaches NEC","hlgt":"Headaches","soc":"Nervous system disorders","bodsys":"Nervous system disorders","severity":"MODERATE","serious":"N","causality":"NOT RELATED","action_taken":"DOSE NOT CHANGED","outcome":"RECOVERED/RESOLVED WITH SEQUELAE","fatal":"N","hospitalization":"N","life_threatening":"N","onset_dtc":"2024-05-16","end_dtc":"2024-05-20","onset_dy":"75","end_dy":"79","duration":null,"epoch":"TREATMENT","visit":null,"supplemental":{"AETRTEM":"Y"}},{"seq":"7","term":"DIARRHOEA","decod":"Diarrhoea","llt":"Diarrhoea","hlt":"Diarrhoea (excl infective)","hlgt":"Gastrointestinal motility and defaecation conditions","soc":"Gastrointestinal disorders","bodsys":"Gastrointestinal disorders","severity":"MILD","serious":"N","causality":"NOT RELATED","action_taken":"DOSE NOT CHANGED","outcome":"NOT RECOVERED/NOT RESOLVED","fatal":"N","hospitalization":"N","life_threatening":"N","onset_dtc":"2024-05-31","end_dtc":null,"onset_dy":"90","end_dy":null,"duration":null,"epoch":"TREATMENT","visit":null,"supplemental":{"AETRTEM":"Y"}},{"seq":"8","term":"DIARRHOEA","decod":"Diarrhoea","llt":"Diarrhoea","hlt":"Diarrhoea (excl infective)","hlgt":"Gastrointestinal motility and defaecation conditions","soc":"Gastrointestinal disorders","bodsys":"Gastrointestinal disorders","severity":"SEVERE","serious":"Y","causality":"NOT RELATED","action_taken":"DOSE NOT CHANGED","outcome":"RECOVERED/RESOLVED","fatal":"N","hospitalization":"Y","life_threatening":"N","onset_dtc":"2024-06-06","end_dtc":"2024-06-17","onset_dy":"96","end_dy":"107","duration":null,"epoch":"TREATMENT","visit":null,"supplemental":{"AETRTEM":"Y"}},{"seq":"9","term":"DYSPEPSIA","decod":"Dyspepsia","llt":"Dyspepsia","hlt":"Dyspeptic signs and symptoms","hlgt":"Gastrointestinal signs and symptoms","soc":"Gastrointestinal disorders","bodsys":"Gastrointestinal disorders","severity":"SEVERE","serious":"Y","causality":"NOT RELATED","action_taken":"DOSE NOT CHANGED","outcome":"RECOVERED/RESOLVED","fatal":"N","hospitalization":"Y","life_threatening":"N","onset_dtc":"2024-06-11","end_dtc":"2024-06-28","onset_dy":"101","end_dy":"118","duration":null,"epoch":"TREATMENT","visit":null,"supplemental":{"AETRTEM":"Y"}},{"seq":"10","term":"VOMITING","decod":"Vomiting","llt":"Vomiting","hlt":"Nausea and vomiting symptoms","hlgt":"Gastrointestinal signs and symptoms","soc":"Gastrointestinal disorders","bodsys":"Gastrointestinal disorders","severity":"MILD","serious":"N","causality":"NOT RELATED","action_taken":"DOSE NOT CHANGED","outcome":"RECOVERED/RESOLVED","fatal":"N","hospitalization":"N","life_threatening":"N","onset_dtc":"2024-06-13","end_dtc":"2024-06-15","onset_dy":"103","end_dy":"105","duration":null,"epoch":"TREATMENT","visit":null,"supplemental":{"AETRTEM":"Y"}},{"seq":"11","term":"ABDOMINAL PAIN","decod":"Abdominal pain","llt":"Abdominal pain","hlt":"Gastrointestinal and abdominal pains (excl oral and throat)","hlgt":"Gastrointestinal signs and symptoms","soc":"Gastrointestinal disorders","bodsys":"Gastrointestinal disorders","severity":"MODERATE","serious":"N","causality":"PROBABLY RELATED","action_taken":"DRUG INTERRUPTED","outcome":"RECOVERED/RESOLVED","fatal":"N","hospitalization":"N","life_threatening":"N","onset_dtc":"2024-06-16","end_dtc":"2024-06-29","onset_dy":"106","end_dy":"119","duration":null,"epoch":"TREATMENT","visit":null,"supplemental":{"AETRTEM":"Y"}},{"seq":"12","term":"FLATULENCE","decod":"Flatulence","llt":"Flatulence","hlt":"Flatulence, bloating and distension","hlgt":"Gastrointestinal signs and symptoms","soc":"Gastrointestinal disorders","bodsys":"Gastrointestinal disorders","severity":"MILD","serious":"N","causality":"NOT RELATED","action_taken":"DOSE NOT CHANGED","outcome":"RECOVERED/RESOLVED","fatal":"N","hospitalization":"N","life_threatening":"N","onset_dtc":"2024-06-19","end_dtc":"2024-06-21","onset_dy":"109","end_dy":"111","duration":null,"epoch":"TREATMENT","visit":null,"supplemental":{"AETRTEM":"Y"}},{"seq":"13","term":"FLATULENCE","decod":"Flatulence","llt":"Flatulence","hlt":"Flatulence, bloating and distension","hlgt":"Gastrointestinal signs and symptoms","soc":"Gastrointestinal disorders","bodsys":"Gastrointestinal disorders","severity":"MODERATE","serious":"N","causality":"NOT RELATED","action_taken":"DOSE NOT CHANGED","outcome":"RECOVERED/RESOLVED","fatal":"N","hospitalization":"N","life_threatening":"N","onset_dtc":"2024-06-20","end_dtc":"2024-07-07","onset_dy":"110","end_dy":"127","duration":null,"epoch":"TREATMENT","visit":null,"supplemental":{"AETRTEM":"Y"}},{"seq":"14","term":"CONSTIPATION","decod":"Constipation","llt":"Constipation","hlt":"Gastrointestinal motility and defaecation conditions NEC","hlgt":"Gastrointestinal motility and defaecation conditions","soc":"Gastrointestinal disorders","bodsys":"Gastrointestinal disorders","severity":"MILD","serious":"N","causality":"NOT RELATED","action_taken":"DOSE NOT CHANGED","outcome":"RECOVERED/RESOLVED","fatal":"N","hospitalization":"N","life_threatening":"N","onset_dtc":"2024-07-10","end_dtc":"2024-07-19","onset_dy":"130","end_dy":"139","duration":null,"epoch":"TREATMENT","visit":null,"supplemental":{"AETRTEM":"Y"}},{"seq":"15","term":"ABDOMINAL PAIN","decod":"Abdominal pain","llt":"Abdominal pain","hlt":"Gastrointestinal and abdominal pains (excl oral and throat)","hlgt":"Gastrointestinal signs and symptoms","soc":"Gastrointestinal disorders","bodsys":"Gastrointestinal disorders","severity":"MILD","serious":"N","causality":"NOT RELATED","action_taken":"DOSE NOT CHANGED","outcome":"RECOVERED/RESOLVED","fatal":"N","hospitalization":"N","life_threatening":"N","onset_dtc":"2024-07-13","end_dtc":"2024-07-21","onset_dy":"133","end_dy":"141","duration":null,"epoch":"TREATMENT","visit":null,"supplemental":{"AETRTEM":"Y"}},{"seq":"16","term":"HEADACHE","decod":"Headache","llt":"Headache","hlt":"Headaches NEC","hlgt":"Headaches","soc":"Nervous system disorders","bodsys":"Nervous system disorders","severity":"SEVERE","serious":"Y","causality":"NOT RELATED","action_taken":"DOSE NOT CHANGED","outcome":"RECOVERED/RESOLVED","fatal":"N","hospitalization":"N","life_threatening":"N","onset_dtc":"2024-07-30","end_dtc":"2024-08-08","onset_dy":"150","end_dy":"159","duration":null,"epoch":"TREATMENT","visit":null,"supplemental":{"AETRTEM":"Y"}},{"seq":"17","term":"DIARRHOEA","decod":"Diarrhoea","llt":"Diarrhoea","hlt":"Diarrhoea (excl infective)","hlgt":"Gastrointestinal motility and defaecation conditions","soc":"Gastrointestinal disorders","bodsys":"Gastrointestinal disorders","severity":"MODERATE","serious":"N","causality":"NOT RELATED","action_taken":"DOSE NOT CHANGED","outcome":"RECOVERED/RESOLVED","fatal":"N","hospitalization":"N","life_threatening":"N","onset_dtc":"2024-07-30","end_dtc":"2024-08-13","onset_dy":"150","end_dy":"164","duration":null,"epoch":"TREATMENT","visit":null,"supplemental":{"AETRTEM":"Y"}},{"seq":"18","term":"NAUSEA","decod":"Nausea","llt":"Nausea","hlt":"Nausea and vomiting symptoms","hlgt":"Gastrointestinal signs and symptoms","soc":"Gastrointestinal disorders","bodsys":"Gastrointestinal disorders","severity":"MILD","serious":"N","causality":"UNLIKELY RELATED","action_taken":"DOSE NOT CHANGED","outcome":"RECOVERED/RESOLVED","fatal":"N","hospitalization":"N","life_threatening":"N","onset_dtc":"2024-08-14","end_dtc":"2024-08-15","onset_dy":"165","end_dy":"166","duration":null,"epoch":"TREATMENT","visit":null,"supplemental":{"AETRTEM":"Y"}},{"seq":"19","term":"DYSPEPSIA","decod":"Dyspepsia","llt":"Dyspepsia","hlt":"Dyspeptic signs and symptoms","hlgt":"Gastrointestinal signs and symptoms","soc":"Gastrointestinal disorders","bodsys":"Gastrointestinal disorders","severity":"MODERATE","serious":"N","causality":"NOT RELATED","action_taken":"DOSE NOT CHANGED","outcome":"RECOVERED/RESOLVED","fatal":"N","hospitalization":"N","life_threatening":"N","onset_dtc":"2024-08-14","end_dtc":"2024-08-23","onset_dy":"165","end_dy":"174","duration":null,"epoch":"TREATMENT","visit":null,"supplemental":{"AETRTEM":"Y"}},{"seq":"20","term":"DIARRHOEA","decod":"Diarrhoea","llt":"Diarrhoea","hlt":"Diarrhoea (excl infective)","hlgt":"Gastrointestinal motility and defaecation conditions","soc":"Gastrointestinal disorders","bodsys":"Gastrointestinal disorders","severity":"SEVERE","serious":"Y","causality":"UNLIKELY RELATED","action_taken":"DOSE NOT CHANGED","outcome":"RECOVERED/RESOLVED","fatal":"N","hospitalization":"Y","life_threatening":"N","onset_dtc":"2024-08-17","end_dtc":"2024-09-12","onset_dy":"168","end_dy":"194","duration":null,"epoch":"TREATMENT","visit":null,"supplemental":{"AETRTEM":"Y"}},{"seq":"21","term":"DIARRHOEA","decod":"Diarrhoea","llt":"Diarrhoea","hlt":"Diarrhoea (excl infective)","hlgt":"Gastrointestinal motility and defaecation conditions","soc":"Gastrointestinal disorders","bodsys":"Gastrointestinal disorders","severity":"MODERATE","serious":"N","causality":"POSSIBLY RELATED","action_taken":"DOSE REDUCED","outcome":"RECOVERED/RESOLVED","fatal":"N","hospitalization":"N","life_threatening":"N","onset_dtc":"2024-09-02","end_dtc":"2024-09-11","onset_dy":"184","end_dy":"193","duration":null,"epoch":"TREATMENT","visit":null,"supplemental":{"AETRTEM":"Y"}},{"seq":"22","term":"FATIGUE","decod":"Fatigue","llt":"Fatigue","hlt":"Asthenic conditions","hlgt":"General system disorders NEC","soc":"General disorders and administration site conditions","bodsys":"General disorders and administration site conditions","severity":"MILD","serious":"N","causality":"NOT RELATED","action_taken":"DOSE NOT CHANGED","outcome":"RECOVERING/RESOLVING","fatal":"N","hospitalization":"N","life_threatening":"N","onset_dtc":"2024-09-04","end_dtc":"2024-09-08","onset_dy":"186","end_dy":"190","duration":null,"epoch":"TREATMENT","visit":null,"supplemental":{"AETRTEM":"Y"}},{"seq":"23","term":"DIARRHOEA","decod":"Diarrhoea","llt":"Diarrhoea","hlt":"Diarrhoea (excl infective)","hlgt":"Gastrointestinal motility and defaecation conditions","soc":"Gastrointestinal disorders","bodsys":"Gastrointestinal disorders","severity":"MODERATE","serious":"N","causality":"UNLIKELY RELATED","action_taken":"DOSE NOT CHANGED","outcome":"RECOVERED/RESOLVED","fatal":"N","hospitalization":"N","life_threatening":"N","onset_dtc":"2024-09-07","end_dtc":"2024-09-17","onset_dy":"189","end_dy":"199","duration":null,"epoch":"TREATMENT","visit":null,"supplemental":{"AETRTEM":"Y"}},{"seq":"24","term":"INJECTION SITE REACTION","decod":"Injection site reaction","llt":"Injection site reaction","hlt":"Injection site reactions","hlgt":"Administration site reactions","soc":"General disorders and administration site conditions","bodsys":"General disorders and administration site conditions","severity":"MODERATE","serious":"N","causality":"NOT RELATED","action_taken":"DOSE NOT CHANGED","outcome":"RECOVERING/RESOLVING","fatal":"N","hospitalization":"N","life_threatening":"N","onset_dtc":"2024-10-03","end_dtc":"2024-10-18","onset_dy":"215","end_dy":"230","duration":null,"epoch":"TREATMENT","visit":null,"supplemental":{"AETRTEM":"Y"}},{"seq":"25","term":"ABDOMINAL PAIN","decod":"Abdominal pain","llt":"Abdominal pain","hlt":"Gastrointestinal and abdominal pains (excl oral and throat)","hlgt":"Gastrointestinal signs and symptoms","soc":"Gastrointestinal disorders","bodsys":"Gastrointestinal disorders","severity":"SEVERE","serious":"Y","causality":"NOT RELATED","action_taken":"DOSE NOT CHANGED","outcome":"RECOVERING/RESOLVING","fatal":"N","hospitalization":"N","life_threatening":"N","onset_dtc":"2024-10-04","end_dtc":"2024-11-13","onset_dy":"216","end_dy":"256","duration":null,"epoch":"TREATMENT","visit":null,"supplemental":{"AETRTEM":"Y"}},{"seq":"26","term":"DIARRHOEA","decod":"Diarrhoea","llt":"Diarrhoea","hlt":"Diarrhoea (excl infective)","hlgt":"Gastrointestinal motility and defaecation conditions","soc":"Gastrointestinal disorders","bodsys":"Gastrointestinal disorders","severity":"SEVERE","serious":"Y","causality":"NOT RELATED","action_taken":"DOSE NOT CHANGED","outcome":"NOT RECOVERED/NOT RESOLVED","fatal":"N","hospitalization":"N","life_threatening":"N","onset_dtc":"2024-10-26","end_dtc":null,"onset_dy":"238","end_dy":null,"duration":null,"epoch":"TREATMENT","visit":null,"supplemental":{"AETRTEM":"Y"}},{"seq":"27","term":"HEADACHE","decod":"Headache","llt":"Headache","hlt":"Headaches NEC","hlgt":"Headaches","soc":"Nervous system disorders","bodsys":"Nervous system disorders","severity":"MODERATE","serious":"N","causality":"NOT RELATED","action_taken":"DOSE NOT CHANGED","outcome":"RECOVERED/RESOLVED","fatal":"N","hospitalization":"N","life_threatening":"N","onset_dtc":"2024-11-02","end_dtc":"2024-11-09","onset_dy":"245","end_dy":"252","duration":null,"epoch":"TREATMENT","visit":null,"supplemental":{"AETRTEM":"Y"}},{"seq":"28","term":"LIPASE INCREASED","decod":"Lipase increased","llt":"Lipase increased","hlt":"Pancreatic enzymes","hlgt":"Gastrointestinal investigations","soc":"Investigations","bodsys":"Investigations","severity":"MILD","serious":"N","causality":"NOT RELATED","action_taken":"DOSE NOT CHANGED","outcome":"RECOVERED/RESOLVED","fatal":"N","hospitalization":"N","life_threatening":"N","onset_dtc":"2024-11-08","end_dtc":"2024-11-22","onset_dy":"251","end_dy":"265","duration":null,"epoch":"TREATMENT","visit":null,"supplemental":{"AETRTEM":"Y"}},{"seq":"29","term":"VOMITING","decod":"Vomiting","llt":"Vomiting","hlt":"Nausea and vomiting symptoms","hlgt":"Gastrointestinal signs and symptoms","soc":"Gastrointestinal disorders","bodsys":"Gastrointestinal disorders","severity":"SEVERE","serious":"Y","causality":"UNLIKELY RELATED","action_taken":"DOSE NOT CHANGED","outcome":"RECOVERED/RESOLVED","fatal":"N","hospitalization":"N","life_threatening":"N","onset_dtc":"2024-11-10","end_dtc":"2024-11-17","onset_dy":"253","end_dy":"260","duration":null,"epoch":"TREATMENT","visit":null,"supplemental":{"AETRTEM":"Y"}},{"seq":"30","term":"DECREASED APPETITE","decod":"Decreased appetite","llt":"Decreased appetite","hlt":"Appetite disorders","hlgt":"Eating disorders and disturbances","soc":"Metabolism and nutrition disorders","bodsys":"Metabolism and nutrition disorders","severity":"SEVERE","serious":"Y","causality":"UNLIKELY RELATED","action_taken":"DOSE NOT CHANGED","outcome":"RECOVERED/RESOLVED WITH SEQUELAE","fatal":"N","hospitalization":"Y","life_threatening":"N","onset_dtc":"2024-11-13","end_dtc":"2024-12-22","onset_dy":"256","end_dy":"295","duration":null,"epoch":"TREATMENT","visit":null,"supplemental":{"AETRTEM":"Y"}}]},"section_8_laboratory_results":{"summary":{"total_records":77,"abnormal_count":27,"abnormal_pct":35.1},"shift_summary":[{"testcd":"ALT","baseline_value":29.22,"baseline_nrind":"NORMAL","worst_post_baseline_value":33.03,"worst_post_baseline_nrind":"NORMAL","worst_visit":"WEEK 52 EOT"},{"testcd":"AST","baseline_value":22.94,"baseline_nrind":"NORMAL","worst_post_baseline_value":22.11,"worst_post_baseline_nrind":"NORMAL","worst_visit":"WEEK 4"},{"testcd":"CREAT","baseline_value":33.07,"baseline_nrind":"LOW","worst_post_baseline_value":34.4,"worst_post_baseline_nrind":"LOW","worst_visit":"WEEK 4"},{"testcd":"GLUC","baseline_value":9.62,"baseline_nrind":"HIGH","worst_post_baseline_value":9.78,"worst_post_baseline_nrind":"HIGH","worst_visit":"WEEK 32"},{"testcd":"HGB","baseline_value":116.62,"baseline_nrind":"LOW","worst_post_baseline_value":117.32,"worst_post_baseline_nrind":"LOW","worst_visit":"WEEK 40"},{"testcd":"PLAT","baseline_value":172.28,"baseline_nrind":"NORMAL","worst_post_baseline_value":189.6,"worst_post_baseline_nrind":"NORMAL","worst_visit":"WEEK 24"},{"testcd":"WBC","baseline_value":8.29,"baseline_nrind":"NORMAL","worst_post_baseline_value":8.75,"worst_post_baseline_nrind":"NORMAL","worst_visit":"WEEK 12"}],"results":[{"seq":"1","testcd":"ALT","test":"Alanine Aminotransferase","cat":"CHEMISTRY","orres":"29.22","orresu":"U/L","stresc":"29.22","stresn":"29.22","stresu":"U/L","stnrlo":"7","stnrhi":"56","nrind":"NORMAL","fast":null,"dtc":"2024-01-31","dy":"-32","visit":"SCREENING","visitnum":"1.0","epoch":"SCREENING","spec":null,"method":null},{"seq":"2","testcd":"AST","test":"Aspartate Aminotransferase","cat":"CHEMISTRY","orres":"22.94","orresu":"U/L","stresc":"22.94","stresn":"22.94","stresu":"U/L","stnrlo":"10","stnrhi":"40","nrind":"NORMAL","fast":null,"dtc":"2024-01-31","dy":"-32","visit":"SCREENING","visitnum":"1.0","epoch":"SCREENING","spec":null,"method":null},{"seq":"3","testcd":"CREAT","test":"Creatinine","cat":"CHEMISTRY","orres":"33.07","orresu":"umol/L","stresc":"33.07","stresn":"33.07","stresu":"umol/L","stnrlo":"44","stnrhi":"80","nrind":"LOW","fast":null,"dtc":"2024-01-31","dy":"-32","visit":"SCREENING","visitnum":"1.0","epoch":"SCREENING","spec":null,"method":null},{"seq":"4","testcd":"GLUC","test":"Glucose","cat":"CHEMISTRY","orres":"9.62","orresu":"mmol/L","stresc":"9.62","stresn":"9.62","stresu":"mmol/L","stnrlo":"3.9","stnrhi":"5.6","nrind":"HIGH","fast":null,"dtc":"2024-01-31","dy":"-32","visit":"SCREENING","visitnum":"1.0","epoch":"SCREENING","spec":null,"method":null},{"seq":"5","testcd":"HGB","test":"Hemoglobin","cat":"HEMATOLOGY","orres":"116.62","orresu":"g/L","stresc":"116.62","stresn":"116.62","stresu":"g/L","stnrlo":"120","stnrhi":"155","nrind":"LOW","fast":null,"dtc":"2024-01-31","dy":"-32","visit":"SCREENING","visitnum":"1.0","epoch":"SCREENING","spec":null,"method":null},{"seq":"6","testcd":"PLAT","test":"Platelets","cat":"HEMATOLOGY","orres":"172.28","orresu":"10^9/L","stresc":"172.28","stresn":"172.28","stresu":"10^9/L","stnrlo":"150","stnrhi":"400","nrind":"NORMAL","fast":null,"dtc":"2024-01-31","dy":"-32","visit":"SCREENING","visitnum":"1.0","epoch":"SCREENING","spec":null,"method":null},{"seq":"7","testcd":"WBC","test":"Leukocytes","cat":"HEMATOLOGY","orres":"8.29","orresu":"10^9/L","stresc":"8.29","stresn":"8.29","stresu":"10^9/L","stnrlo":"4.0","stnrhi":"11.0","nrind":"NORMAL","fast":null,"dtc":"2024-01-31","dy":"-32","visit":"SCREENING","visitnum":"1.0","epoch":"SCREENING","spec":null,"method":null},{"seq":"8","testcd":"ALT","test":"Alanine Aminotransferase","cat":"CHEMISTRY","orres":"30.02","orresu":"U/L","stresc":"30.02","stresn":"30.02","stresu":"U/L","stnrlo":"7","stnrhi":"56","nrind":"NORMAL","fast":null,"dtc":"2024-03-03","dy":"1","visit":"BASELINE","visitnum":"2.0","epoch":"TREATMENT","spec":null,"method":null},{"seq":"9","testcd":"AST","test":"Aspartate Aminotransferase","cat":"CHEMISTRY","orres":"21.48","orresu":"U/L","stresc":"21.48","stresn":"21.48","stresu":"U/L","stnrlo":"10","stnrhi":"40","nrind":"NORMAL","fast":null,"dtc":"2024-03-03","dy":"1","visit":"BASELINE","visitnum":"2.0","epoch":"TREATMENT","spec":null,"method":null},{"seq":"10","testcd":"CREAT","test":"Creatinine","cat":"CHEMISTRY","orres":"32.52","orresu":"umol/L","stresc":"32.52","stresn":"32.52","stresu":"umol/L","stnrlo":"44","stnrhi":"80","nrind":"LOW","fast":null,"dtc":"2024-03-03","dy":"1","visit":"BASELINE","visitnum":"2.0","epoch":"TREATMENT","spec":null,"method":null},{"seq":"11","testcd":"GLUC","test":"Glucose","cat":"CHEMISTRY","orres":null,"orresu":null,"stresc":null,"stresn":null,"stresu":null,"stnrlo":null,"stnrhi":null,"nrind":null,"fast":null,"dtc":"2024-03-03","dy":"1","visit":"BASELINE","visitnum":"2.0","epoch":"TREATMENT","spec":null,"method":null},{"seq":"12","testcd":"HGB","test":"Hemoglobin","cat":"HEMATOLOGY","orres":"119.5","orresu":"g/L","stresc":"119.5","stresn":"119.5","stresu":"g/L","stnrlo":"120","stnrhi":"155","nrind":"LOW","fast":null,"dtc":"2024-03-03","dy":"1","visit":"BASELINE","visitnum":"2.0","epoch":"TREATMENT","spec":null,"method":null},{"seq":"13","testcd":"PLAT","test":"Platelets","cat":"HEMATOLOGY","orres":"182.3","orresu":"10^9/L","stresc":"182.3","stresn":"182.3","stresu":"10^9/L","stnrlo":"150","stnrhi":"400","nrind":"NORMAL","fast":null,"dtc":"2024-03-03","dy":"1","visit":"BASELINE","visitnum":"2.0","epoch":"TREATMENT","spec":null,"method":null},{"seq":"14","testcd":"WBC","test":"Leukocytes","cat":"HEMATOLOGY","orres":"7.78","orresu":"10^9/L","stresc":"7.78","stresn":"7.78","stresu":"10^9/L","stnrlo":"4.0","stnrhi":"11.0","nrind":"NORMAL","fast":null,"dtc":"2024-03-03","dy":"1","visit":"BASELINE","visitnum":"2.0","epoch":"TREATMENT","spec":null,"method":null},{"seq":"15","testcd":"ALT","test":"Alanine Aminotransferase","cat":"CHEMISTRY","orres":"26.77","orresu":"U/L","stresc":"26.77","stresn":"26.77","stresu":"U/L","stnrlo":"7","stnrhi":"56","nrind":"NORMAL","fast":null,"dtc":"2024-03-31","dy":"29","visit":"WEEK 4","visitnum":"3.0","epoch":"TREATMENT","spec":null,"method":null},{"seq":"16","testcd":"AST","test":"Aspartate Aminotransferase","cat":"CHEMISTRY","orres":"22.11","orresu":"U/L","stresc":"22.11","stresn":"22.11","stresu":"U/L","stnrlo":"10","stnrhi":"40","nrind":"NORMAL","fast":null,"dtc":"2024-03-31","dy":"29","visit":"WEEK 4","visitnum":"3.0","epoch":"TREATMENT","spec":null,"method":null},{"seq":"17","testcd":"CREAT","test":"Creatinine","cat":"CHEMISTRY","orres":"34.4","orresu":"umol/L","stresc":"34.4","stresn":"34.4","stresu":"umol/L","stnrlo":"44","stnrhi":"80","nrind":"LOW","fast":null,"dtc":"2024-03-31","dy":"29","visit":"WEEK 4","visitnum":"3.0","epoch":"TREATMENT","spec":null,"method":null},{"seq":"18","testcd":"GLUC","test":"Glucose","cat":"CHEMISTRY","orres":"9.6","orresu":"mmol/L","stresc":"9.6","stresn":"9.6","stresu":"mmol/L","stnrlo":"3.9","stnrhi":"5.6","nrind":"HIGH","fast":null,"dtc":"2024-03-31","dy":"29","visit":"WEEK 4","visitnum":"3.0","epoch":"TREATMENT","spec":null,"method":null},{"seq":"19","testcd":"HGB","test":"Hemoglobin","cat":"HEMATOLOGY","orres":"119.37","orresu":"g/L","stresc":"119.37","stresn":"119.37","stresu":"g/L","stnrlo":"120","stnrhi":"155","nrind":"LOW","fast":null,"dtc":"2024-03-31","dy":"29","visit":"WEEK 4","visitnum":"3.0","epoch":"TREATMENT","spec":null,"method":null},{"seq":"20","testcd":"PLAT","test":"Platelets","cat":"HEMATOLOGY","orres":"188.28","orresu":"10^9/L","stresc":"188.28","stresn":"188.28","stresu":"10^9/L","stnrlo":"150","stnrhi":"400","nrind":"NORMAL","fast":null,"dtc":"2024-03-31","dy":"29","visit":"WEEK 4","visitnum":"3.0","epoch":"TREATMENT","spec":null,"method":null},{"seq":"21","testcd":"WBC","test":"Leukocytes","cat":"HEMATOLOGY","orres":"8.21","orresu":"10^9/L","stresc":"8.21","stresn":"8.21","stresu":"10^9/L","stnrlo":"4.0","stnrhi":"11.0","nrind":"NORMAL","fast":null,"dtc":"2024-03-31","dy":"29","visit":"WEEK 4","visitnum":"3.0","epoch":"TREATMENT","spec":null,"method":null},{"seq":"22","testcd":"ALT","test":"Alanine Aminotransferase","cat":"CHEMISTRY","orres":null,"orresu":null,"stresc":null,"stresn":null,"stresu":null,"stnrlo":null,"stnrhi":null,"nrind":null,"fast":null,"dtc":"2024-05-24","dy":"83","visit":"WEEK 12","visitnum":"5.0","epoch":"TREATMENT","spec":null,"method":null},{"seq":"23","testcd":"AST","test":"Aspartate Aminotransferase","cat":"CHEMISTRY","orres":"21.16","orresu":"U/L","stresc":"21.16","stresn":"21.16","stresu":"U/L","stnrlo":"10","stnrhi":"40","nrind":"NORMAL","fast":null,"dtc":"2024-05-24","dy":"83","visit":"WEEK 12","visitnum":"5.0","epoch":"TREATMENT","spec":null,"method":null},{"seq":"24","testcd":"CREAT","test":"Creatinine","cat":"CHEMISTRY","orres":"32.0","orresu":"umol/L","stresc":"32.0","stresn":"32.0","stresu":"umol/L","stnrlo":"44","stnrhi":"80","nrind":"LOW","fast":null,"dtc":"2024-05-24","dy":"83","visit":"WEEK 12","visitnum":"5.0","epoch":"TREATMENT","spec":null,"method":null},{"seq":"25","testcd":"GLUC","test":"Glucose","cat":"CHEMISTRY","orres":"9.68","orresu":"mmol/L","stresc":"9.68","stresn":"9.68","stresu":"mmol/L","stnrlo":"3.9","stnrhi":"5.6","nrind":"HIGH","fast":null,"dtc":"2024-05-24","dy":"83","visit":"WEEK 12","visitnum":"5.0","epoch":"TREATMENT","spec":null,"method":null},{"seq":"26","testcd":"HGB","test":"Hemoglobin","cat":"HEMATOLOGY","orres":"119.0","orresu":"g/L","stresc":"119.0","stresn":"119.0","stresu":"g/L","stnrlo":"120","stnrhi":"155","nrind":"LOW","fast":null,"dtc":"2024-05-24","dy":"83","visit":"WEEK 12","visitnum":"5.0","epoch":"TREATMENT","spec":null,"method":null},{"seq":"27","testcd":"PLAT","test":"Platelets","cat":"HEMATOLOGY","orres":"182.95","orresu":"10^9/L","stresc":"182.95","stresn":"182.95","stresu":"10^9/L","stnrlo":"150","stnrhi":"400","nrind":"NORMAL","fast":null,"dtc":"2024-05-24","dy":"83","visit":"WEEK 12","visitnum":"5.0","epoch":"TREATMENT","spec":null,"method":null},{"seq":"28","testcd":"WBC","test":"Leukocytes","cat":"HEMATOLOGY","orres":"8.75","orresu":"10^9/L","stresc":"8.75","stresn":"8.75","stresu":"10^9/L","stnrlo":"4.0","stnrhi":"11.0","nrind":"NORMAL","fast":null,"dtc":"2024-05-24","dy":"83","visit":"WEEK 12","visitnum":"5.0","epoch":"TREATMENT","spec":null,"method":null},{"seq":"29","testcd":"ALT","test":"Alanine Aminotransferase","cat":"CHEMISTRY","orres":"25.78","orresu":"U/L","stresc":"25.78","stresn":"25.78","stresu":"U/L","stnrlo":"7","stnrhi":"56","nrind":"NORMAL","fast":null,"dtc":"2024-06-19","dy":"109","visit":"WEEK 16","visitnum":"6.0","epoch":"TREATMENT","spec":null,"method":null},{"seq":"30","testcd":"AST","test":"Aspartate Aminotransferase","cat":"CHEMISTRY","orres":"18.71","orresu":"U/L","stresc":"18.71","stresn":"18.71","stresu":"U/L","stnrlo":"10","stnrhi":"40","nrind":"NORMAL","fast":null,"dtc":"2024-06-19","dy":"109","visit":"WEEK 16","visitnum":"6.0","epoch":"TREATMENT","spec":null,"method":null},{"seq":"31","testcd":"CREAT","test":"Creatinine","cat":"CHEMISTRY","orres":"30.44","orresu":"umol/L","stresc":"30.44","stresn":"30.44","stresu":"umol/L","stnrlo":"44","stnrhi":"80","nrind":"LOW","fast":null,"dtc":"2024-06-19","dy":"109","visit":"WEEK 16","visitnum":"6.0","epoch":"TREATMENT","spec":null,"method":null},{"seq":"32","testcd":"GLUC","test":"Glucose","cat":"CHEMISTRY","orres":"9.77","orresu":"mmol/L","stresc":"9.77","stresn":"9.77","stresu":"mmol/L","stnrlo":"3.9","stnrhi":"5.6","nrind":"HIGH","fast":null,"dtc":"2024-06-19","dy":"109","visit":"WEEK 16","visitnum":"6.0","epoch":"TREATMENT","spec":null,"method":null},{"seq":"33","testcd":"HGB","test":"Hemoglobin","cat":"HEMATOLOGY","orres":"119.36","orresu":"g/L","stresc":"119.36","stresn":"119.36","stresu":"g/L","stnrlo":"120","stnrhi":"155","nrind":"LOW","fast":null,"dtc":"2024-06-19","dy":"109","visit":"WEEK 16","visitnum":"6.0","epoch":"TREATMENT","spec":null,"method":null},{"seq":"34","testcd":"PLAT","test":"Platelets","cat":"HEMATOLOGY","orres":"175.02","orresu":"10^9/L","stresc":"175.02","stresn":"175.02","stresu":"10^9/L","stnrlo":"150","stnrhi":"400","nrind":"NORMAL","fast":null,"dtc":"2024-06-19","dy":"109","visit":"WEEK 16","visitnum":"6.0","epoch":"TREATMENT","spec":null,"method":null},{"seq":"35","testcd":"WBC","test":"Leukocytes","cat":"HEMATOLOGY","orres":"7.97","orresu":"10^9/L","stresc":"7.97","stresn":"7.97","stresu":"10^9/L","stnrlo":"4.0","stnrhi":"11.0","nrind":"NORMAL","fast":null,"dtc":"2024-06-19","dy":"109","visit":"WEEK 16","visitnum":"6.0","epoch":"TREATMENT","spec":null,"method":null},{"seq":"36","testcd":"ALT","test":"Alanine Aminotransferase","cat":"CHEMISTRY","orres":"28.2","orresu":"U/L","stresc":"28.2","stresn":"28.2","stresu":"U/L","stnrlo":"7","stnrhi":"56","nrind":"NORMAL","fast":null,"dtc":"2024-07-24","dy":"144","visit":"WEEK 20","visitnum":"7.0","epoch":"TREATMENT","spec":null,"method":null},{"seq":"37","testcd":"AST","test":"Aspartate Aminotransferase","cat":"CHEMISTRY","orres":"19.14","orresu":"U/L","stresc":"19.14","stresn":"19.14","stresu":"U/L","stnrlo":"10","stnrhi":"40","nrind":"NORMAL","fast":null,"dtc":"2024-07-24","dy":"144","visit":"WEEK 20","visitnum":"7.0","epoch":"TREATMENT","spec":null,"method":null},{"seq":"38","testcd":"CREAT","test":"Creatinine","cat":"CHEMISTRY","orres":"32.56","orresu":"umol/L","stresc":"32.56","stresn":"32.56","stresu":"umol/L","stnrlo":"44","stnrhi":"80","nrind":"LOW","fast":null,"dtc":"2024-07-24","dy":"144","visit":"WEEK 20","visitnum":"7.0","epoch":"TREATMENT","spec":null,"method":null},{"seq":"39","testcd":"GLUC","test":"Glucose","cat":"CHEMISTRY","orres":"9.74","orresu":"mmol/L","stresc":"9.74","stresn":"9.74","stresu":"mmol/L","stnrlo":"3.9","stnrhi":"5.6","nrind":"HIGH","fast":null,"dtc":"2024-07-24","dy":"144","visit":"WEEK 20","visitnum":"7.0","epoch":"TREATMENT","spec":null,"method":null},{"seq":"40","testcd":"HGB","test":"Hemoglobin","cat":"HEMATOLOGY","orres":"121.09","orresu":"g/L","stresc":"121.09","stresn":"121.09","stresu":"g/L","stnrlo":"120","stnrhi":"155","nrind":"NORMAL","fast":null,"dtc":"2024-07-24","dy":"144","visit":"WEEK 20","visitnum":"7.0","epoch":"TREATMENT","spec":null,"method":null},{"seq":"41","testcd":"PLAT","test":"Platelets","cat":"HEMATOLOGY","orres":"181.21","orresu":"10^9/L","stresc":"181.21","stresn":"181.21","stresu":"10^9/L","stnrlo":"150","stnrhi":"400","nrind":"NORMAL","fast":null,"dtc":"2024-07-24","dy":"144","visit":"WEEK 20","visitnum":"7.0","epoch":"TREATMENT","spec":null,"method":null},{"seq":"42","testcd":"WBC","test":"Leukocytes","cat":"HEMATOLOGY","orres":"8.42","orresu":"10^9/L","stresc":"8.42","stresn":"8.42","stresu":"10^9/L","stnrlo":"4.0","stnrhi":"11.0","nrind":"NORMAL","fast":null,"dtc":"2024-07-24","dy":"144","visit":"WEEK 20","visitnum":"7.0","epoch":"TREATMENT","spec":null,"method":null},{"seq":"43","testcd":"ALT","test":"Alanine Aminotransferase","cat":"CHEMISTRY","orres":"27.33","orresu":"U/L","stresc":"27.33","stresn":"27.33","stresu":"U/L","stnrlo":"7","stnrhi":"56","nrind":"NORMAL","fast":null,"dtc":"2024-08-21","dy":"172","visit":"WEEK 24","visitnum":"8.0","epoch":"TREATMENT","spec":null,"method":null},{"seq":"44","testcd":"AST","test":"Aspartate Aminotransferase","cat":"CHEMISTRY","orres":"21.41","orresu":"U/L","stresc":"21.41","stresn":"21.41","stresu":"U/L","stnrlo":"10","stnrhi":"40","nrind":"NORMAL","fast":null,"dtc":"2024-08-21","dy":"172","visit":"WEEK 24","visitnum":"8.0","epoch":"TREATMENT","spec":null,"method":null},{"seq":"45","testcd":"CREAT","test":"Creatinine","cat":"CHEMISTRY","orres":"30.81","orresu":"umol/L","stresc":"30.81","stresn":"30.81","stresu":"umol/L","stnrlo":"44","stnrhi":"80","nrind":"LOW","fast":null,"dtc":"2024-08-21","dy":"172","visit":"WEEK 24","visitnum":"8.0","epoch":"TREATMENT","spec":null,"method":null},{"seq":"46","testcd":"GLUC","test":"Glucose","cat":"CHEMISTRY","orres":"9.74","orresu":"mmol/L","stresc":"9.74","stresn":"9.74","stresu":"mmol/L","stnrlo":"3.9","stnrhi":"5.6","nrind":"HIGH","fast":null,"dtc":"2024-08-21","dy":"172","visit":"WEEK 24","visitnum":"8.0","epoch":"TREATMENT","spec":null,"method":null},{"seq":"47","testcd":"HGB","test":"Hemoglobin","cat":"HEMATOLOGY","orres":"120.26","orresu":"g/L","stresc":"120.26","stresn":"120.26","stresu":"g/L","stnrlo":"120","stnrhi":"155","nrind":"NORMAL","fast":null,"dtc":"2024-08-21","dy":"172","visit":"WEEK 24","visitnum":"8.0","epoch":"TREATMENT","spec":null,"method":null},{"seq":"48","testcd":"PLAT","test":"Platelets","cat":"HEMATOLOGY","orres":"189.6","orresu":"10^9/L","stresc":"189.6","stresn":"189.6","stresu":"10^9/L","stnrlo":"150","stnrhi":"400","nrind":"NORMAL","fast":null,"dtc":"2024-08-21","dy":"172","visit":"WEEK 24","visitnum":"8.0","epoch":"TREATMENT","spec":null,"method":null},{"seq":"49","testcd":"WBC","test":"Leukocytes","cat":"HEMATOLOGY","orres":"7.79","orresu":"10^9/L","stresc":"7.79","stresn":"7.79","stresu":"10^9/L","stnrlo":"4.0","stnrhi":"11.0","nrind":"NORMAL","fast":null,"dtc":"2024-08-21","dy":"172","visit":"WEEK 24","visitnum":"8.0","epoch":"TREATMENT","spec":null,"method":null},{"seq":"50","testcd":"ALT","test":"Alanine Aminotransferase","cat":"CHEMISTRY","orres":"31.37","orresu":"U/L","stresc":"31.37","stresn":"31.37","stresu":"U/L","stnrlo":"7","stnrhi":"56","nrind":"NORMAL","fast":null,"dtc":"2024-10-15","dy":"227","visit":"WEEK 32","visitnum":"9.0","epoch":"TREATMENT","spec":null,"method":null},{"seq":"51","testcd":"AST","test":"Aspartate Aminotransferase","cat":"CHEMISTRY","orres":"20.23","orresu":"U/L","stresc":"20.23","stresn":"20.23","stresu":"U/L","stnrlo":"10","stnrhi":"40","nrind":"NORMAL","fast":null,"dtc":"2024-10-15","dy":"227","visit":"WEEK 32","visitnum":"9.0","epoch":"TREATMENT","spec":null,"method":null},{"seq":"52","testcd":"CREAT","test":"Creatinine","cat":"CHEMISTRY","orres":"32.93","orresu":"umol/L","stresc":"32.93","stresn":"32.93","stresu":"umol/L","stnrlo":"44","stnrhi":"80","nrind":"LOW","fast":null,"dtc":"2024-10-15","dy":"227","visit":"WEEK 32","visitnum":"9.0","epoch":"TREATMENT","spec":null,"method":null},{"seq":"53","testcd":"GLUC","test":"Glucose","cat":"CHEMISTRY","orres":"9.78","orresu":"mmol/L","stresc":"9.78","stresn":"9.78","stresu":"mmol/L","stnrlo":"3.9","stnrhi":"5.6","nrind":"HIGH","fast":null,"dtc":"2024-10-15","dy":"227","visit":"WEEK 32","visitnum":"9.0","epoch":"TREATMENT","spec":null,"method":null},{"seq":"54","testcd":"HGB","test":"Hemoglobin","cat":"HEMATOLOGY","orres":"120.65","orresu":"g/L","stresc":"120.65","stresn":"120.65","stresu":"g/L","stnrlo":"120","stnrhi":"155","nrind":"NORMAL","fast":null,"dtc":"2024-10-15","dy":"227","visit":"WEEK 32","visitnum":"9.0","epoch":"TREATMENT","spec":null,"method":null},{"seq":"55","testcd":"PLAT","test":"Platelets","cat":"HEMATOLOGY","orres":"184.62","orresu":"10^9/L","stresc":"184.62","stresn":"184.62","stresu":"10^9/L","stnrlo":"150","stnrhi":"400","nrind":"NORMAL","fast":null,"dtc":"2024-10-15","dy":"227","visit":"WEEK 32","visitnum":"9.0","epoch":"TREATMENT","spec":null,"method":null},{"seq":"56","testcd":"WBC","test":"Leukocytes","cat":"HEMATOLOGY","orres":"7.65","orresu":"10^9/L","stresc":"7.65","stresn":"7.65","stresu":"10^9/L","stnrlo":"4.0","stnrhi":"11.0","nrind":"NORMAL","fast":null,"dtc":"2024-10-15","dy":"227","visit":"WEEK 32","visitnum":"9.0","epoch":"TREATMENT","spec":null,"method":null},{"seq":"57","testcd":"ALT","test":"Alanine Aminotransferase","cat":"CHEMISTRY","orres":"32.26","orresu":"U/L","stresc":"32.26","stresn":"32.26","stresu":"U/L","stnrlo":"7","stnrhi":"56","nrind":"NORMAL","fast":null,"dtc":"2024-12-10","dy":"283","visit":"WEEK 40","visitnum":"10.0","epoch":"TREATMENT","spec":null,"method":null},{"seq":"58","testcd":"AST","test":"Aspartate Aminotransferase","cat":"CHEMISTRY","orres":"19.37","orresu":"U/L","stresc":"19.37","stresn":"19.37","stresu":"U/L","stnrlo":"10","stnrhi":"40","nrind":"NORMAL","fast":null,"dtc":"2024-12-10","dy":"283","visit":"WEEK 40","visitnum":"10.0","epoch":"TREATMENT","spec":null,"method":null},{"seq":"59","testcd":"CREAT","test":"Creatinine","cat":"CHEMISTRY","orres":"30.21","orresu":"umol/L","stresc":"30.21","stresn":"30.21","stresu":"umol/L","stnrlo":"44","stnrhi":"80","nrind":"LOW","fast":null,"dtc":"2024-12-10","dy":"283","visit":"WEEK 40","visitnum":"10.0","epoch":"TREATMENT","spec":null,"method":null},{"seq":"60","testcd":"GLUC","test":"Glucose","cat":"CHEMISTRY","orres":"9.73","orresu":"mmol/L","stresc":"9.73","stresn":"9.73","stresu":"mmol/L","stnrlo":"3.9","stnrhi":"5.6","nrind":"HIGH","fast":null,"dtc":"2024-12-10","dy":"283","visit":"WEEK 40","visitnum":"10.0","epoch":"TREATMENT","spec":null,"method":null},{"seq":"61","testcd":"HGB","test":"Hemoglobin","cat":"HEMATOLOGY","orres":"117.32","orresu":"g/L","stresc":"117.32","stresn":"117.32","stresu":"g/L","stnrlo":"120","stnrhi":"155","nrind":"LOW","fast":null,"dtc":"2024-12-10","dy":"283","visit":"WEEK 40","visitnum":"10.0","epoch":"TREATMENT","spec":null,"method":null},{"seq":"62","testcd":"PLAT","test":"Platelets","cat":"HEMATOLOGY","orres":"163.05","orresu":"10^9/L","stresc":"163.05","stresn":"163.05","stresu":"10^9/L","stnrlo":"150","stnrhi":"400","nrind":"NORMAL","fast":null,"dtc":"2024-12-10","dy":"283","visit":"WEEK 40","visitnum":"10.0","epoch":"TREATMENT","spec":null,"method":null},{"seq":"63","testcd":"WBC","test":"Leukocytes","cat":"HEMATOLOGY","orres":"7.24","orresu":"10^9/L","stresc":"7.24","stresn":"7.24","stresu":"10^9/L","stnrlo":"4.0","stnrhi":"11.0","nrind":"NORMAL","fast":null,"dtc":"2024-12-10","dy":"283","visit":"WEEK 40","visitnum":"10.0","epoch":"TREATMENT","spec":null,"method":null},{"seq":"64","testcd":"ALT","test":"Alanine Aminotransferase","cat":"CHEMISTRY","orres":"33.03","orresu":"U/L","stresc":"33.03","stresn":"33.03","stresu":"U/L","stnrlo":"7","stnrhi":"56","nrind":"NORMAL","fast":null,"dtc":"2025-03-04","dy":"367","visit":"WEEK 52 EOT","visitnum":"11.0","epoch":"TREATMENT","spec":null,"method":null},{"seq":"65","testcd":"AST","test":"Aspartate Aminotransferase","cat":"CHEMISTRY","orres":"20.37","orresu":"U/L","stresc":"20.37","stresn":"20.37","stresu":"U/L","stnrlo":"10","stnrhi":"40","nrind":"NORMAL","fast":null,"dtc":"2025-03-04","dy":"367","visit":"WEEK 52 EOT","visitnum":"11.0","epoch":"TREATMENT","spec":null,"method":null},{"seq":"66","testcd":"CREAT","test":"Creatinine","cat":"CHEMISTRY","orres":"31.51","orresu":"umol/L","stresc":"31.51","stresn":"31.51","stresu":"umol/L","stnrlo":"44","stnrhi":"80","nrind":"LOW","fast":null,"dtc":"2025-03-04","dy":"367","visit":"WEEK 52 EOT","visitnum":"11.0","epoch":"TREATMENT","spec":null,"method":null},{"seq":"67","testcd":"GLUC","test":"Glucose","cat":"CHEMISTRY","orres":"9.68","orresu":"mmol/L","stresc":"9.68","stresn":"9.68","stresu":"mmol/L","stnrlo":"3.9","stnrhi":"5.6","nrind":"HIGH","fast":null,"dtc":"2025-03-04","dy":"367","visit":"WEEK 52 EOT","visitnum":"11.0","epoch":"TREATMENT","spec":null,"method":null},{"seq":"68","testcd":"HGB","test":"Hemoglobin","cat":"HEMATOLOGY","orres":"120.34","orresu":"g/L","stresc":"120.34","stresn":"120.34","stresu":"g/L","stnrlo":"120","stnrhi":"155","nrind":"NORMAL","fast":null,"dtc":"2025-03-04","dy":"367","visit":"WEEK 52 EOT","visitnum":"11.0","epoch":"TREATMENT","spec":null,"method":null},{"seq":"69","testcd":"PLAT","test":"Platelets","cat":"HEMATOLOGY","orres":"161.09","orresu":"10^9/L","stresc":"161.09","stresn":"161.09","stresu":"10^9/L","stnrlo":"150","stnrhi":"400","nrind":"NORMAL","fast":null,"dtc":"2025-03-04","dy":"367","visit":"WEEK 52 EOT","visitnum":"11.0","epoch":"TREATMENT","spec":null,"method":null},{"seq":"70","testcd":"WBC","test":"Leukocytes","cat":"HEMATOLOGY","orres":"7.01","orresu":"10^9/L","stresc":"7.01","stresn":"7.01","stresu":"10^9/L","stnrlo":"4.0","stnrhi":"11.0","nrind":"NORMAL","fast":null,"dtc":"2025-03-04","dy":"367","visit":"WEEK 52 EOT","visitnum":"11.0","epoch":"TREATMENT","spec":null,"method":null},{"seq":"71","testcd":"ALT","test":"Alanine Aminotransferase","cat":"CHEMISTRY","orres":"32.8","orresu":"U/L","stresc":"32.8","stresn":"32.8","stresu":"U/L","stnrlo":"7","stnrhi":"56","nrind":"NORMAL","fast":null,"dtc":"2025-03-29","dy":"392","visit":"WEEK 56 SAFETY FU","visitnum":"12.0","epoch":"FOLLOW-UP","spec":null,"method":null},{"seq":"72","testcd":"AST","test":"Aspartate Aminotransferase","cat":"CHEMISTRY","orres":"22.02","orresu":"U/L","stresc":"22.02","stresn":"22.02","stresu":"U/L","stnrlo":"10","stnrhi":"40","nrind":"NORMAL","fast":null,"dtc":"2025-03-29","dy":"392","visit":"WEEK 56 SAFETY FU","visitnum":"12.0","epoch":"FOLLOW-UP","spec":null,"method":null},{"seq":"73","testcd":"CREAT","test":"Creatinine","cat":"CHEMISTRY","orres":"32.48","orresu":"umol/L","stresc":"32.48","stresn":"32.48","stresu":"umol/L","stnrlo":"44","stnrhi":"80","nrind":"LOW","fast":null,"dtc":"2025-03-29","dy":"392","visit":"WEEK 56 SAFETY FU","visitnum":"12.0","epoch":"FOLLOW-UP","spec":null,"method":null},{"seq":"74","testcd":"GLUC","test":"Glucose","cat":"CHEMISTRY","orres":"9.77","orresu":"mmol/L","stresc":"9.77","stresn":"9.77","stresu":"mmol/L","stnrlo":"3.9","stnrhi":"5.6","nrind":"HIGH","fast":null,"dtc":"2025-03-29","dy":"392","visit":"WEEK 56 SAFETY FU","visitnum":"12.0","epoch":"FOLLOW-UP","spec":null,"method":null},{"seq":"75","testcd":"HGB","test":"Hemoglobin","cat":"HEMATOLOGY","orres":"120.14","orresu":"g/L","stresc":"120.14","stresn":"120.14","stresu":"g/L","stnrlo":"120","stnrhi":"155","nrind":"NORMAL","fast":null,"dtc":"2025-03-29","dy":"392","visit":"WEEK 56 SAFETY FU","visitnum":"12.0","epoch":"FOLLOW-UP","spec":null,"method":null},{"seq":"76","testcd":"PLAT","test":"Platelets","cat":"HEMATOLOGY","orres":"164.57","orresu":"10^9/L","stresc":"164.57","stresn":"164.57","stresu":"10^9/L","stnrlo":"150","stnrhi":"400","nrind":"NORMAL","fast":null,"dtc":"2025-03-29","dy":"392","visit":"WEEK 56 SAFETY FU","visitnum":"12.0","epoch":"FOLLOW-UP","spec":null,"method":null},{"seq":"77","testcd":"WBC","test":"Leukocytes","cat":"HEMATOLOGY","orres":"7.73","orresu":"10^9/L","stresc":"7.73","stresn":"7.73","stresu":"10^9/L","stnrlo":"4.0","stnrhi":"11.0","nrind":"NORMAL","fast":null,"dtc":"2025-03-29","dy":"392","visit":"WEEK 56 SAFETY FU","visitnum":"12.0","epoch":"FOLLOW-UP","spec":null,"method":null}]},"section_9_vital_signs":{"summary":{"total_records":96},"trends":{"BMI":[{"visit":"SCREENING","visitnum":"1.0","dtc":"2024-01-31","value":"27.8","unit":"kg/m2"},{"visit":"BASELINE","visitnum":"2.0","dtc":"2024-03-03","value":"28.1","unit":"kg/m2"},{"visit":"WEEK 4","visitnum":"3.0","dtc":"2024-03-31","value":"29.7","unit":"kg/m2"},{"visit":"WEEK 8","visitnum":"4.0","dtc":"2024-05-01","value":"29.9","unit":"kg/m2"},{"visit":"WEEK 12","visitnum":"5.0","dtc":"2024-05-24","value":"30.7","unit":"kg/m2"},{"visit":"WEEK 16","visitnum":"6.0","dtc":"2024-06-19","value":"29.1","unit":"kg/m2"},{"visit":"WEEK 20","visitnum":"7.0","dtc":"2024-07-24","value":"29.2","unit":"kg/m2"},{"visit":"WEEK 24","visitnum":"8.0","dtc":"2024-08-21","value":"28.4","unit":"kg/m2"},{"visit":"WEEK 32","visitnum":"9.0","dtc":"2024-10-15","value":"29.2","unit":"kg/m2"},{"visit":"WEEK 40","visitnum":"10.0","dtc":"2024-12-10","value":"27.4","unit":"kg/m2"},{"visit":"WEEK 52 EOT","visitnum":"11.0","dtc":"2025-03-04","value":"26.6","unit":"kg/m2"},{"visit":"WEEK 56 SAFETY FU","visitnum":"12.0","dtc":"2025-03-29","value":"26.5","unit":"kg/m2"}],"DIABP":[{"visit":"SCREENING","visitnum":"1.0","dtc":"2024-01-31","value":"91.1","unit":"mmHg"},{"visit":"BASELINE","visitnum":"2.0","dtc":"2024-03-03","value":"87.5","unit":"mmHg"},{"visit":"WEEK 4","visitnum":"3.0","dtc":"2024-03-31","value":"88.2","unit":"mmHg"},{"visit":"WEEK 8","visitnum":"4.0","dtc":"2024-05-01","value":"87.7","unit":"mmHg"},{"visit":"WEEK 12","visitnum":"5.0","dtc":"2024-05-24","value":"85.3","unit":"mmHg"},{"visit":"WEEK 16","visitnum":"6.0","dtc":"2024-06-19","value":"87.9","unit":"mmHg"},{"visit":"WEEK 24","visitnum":"8.0","dtc":"2024-08-21","value":"89.7","unit":"mmHg"},{"visit":"WEEK 32","visitnum":"9.0","dtc":"2024-10-15","value":"90.1","unit":"mmHg"},{"visit":"WEEK 40","visitnum":"10.0","dtc":"2024-12-10","value":"92.0","unit":"mmHg"},{"visit":"WEEK 52 EOT","visitnum":"11.0","dtc":"2025-03-04","value":"91.7","unit":"mmHg"},{"visit":"WEEK 56 SAFETY FU","visitnum":"12.0","dtc":"2025-03-29","value":"90.3","unit":"mmHg"}],"HEIGHT":[{"visit":"SCREENING","visitnum":"1.0","dtc":"2024-01-31","value":"140.0","unit":"cm"},{"visit":"BASELINE","visitnum":"2.0","dtc":"2024-03-03","value":"140.0","unit":"cm"},{"visit":"WEEK 4","visitnum":"3.0","dtc":"2024-03-31","value":"140.0","unit":"cm"},{"visit":"WEEK 8","visitnum":"4.0","dtc":"2024-05-01","value":"140.0","unit":"cm"},{"visit":"WEEK 12","visitnum":"5.0","dtc":"2024-05-24","value":"140.0","unit":"cm"},{"visit":"WEEK 16","visitnum":"6.0","dtc":"2024-06-19","value":"140.0","unit":"cm"},{"visit":"WEEK 20","visitnum":"7.0","dtc":"2024-07-24","value":"140.0","unit":"cm"},{"visit":"WEEK 24","visitnum":"8.0","dtc":"2024-08-21","value":"140.0","unit":"cm"},{"visit":"WEEK 32","visitnum":"9.0","dtc":"2024-10-15","value":"140.0","unit":"cm"},{"visit":"WEEK 40","visitnum":"10.0","dtc":"2024-12-10","value":"140.0","unit":"cm"},{"visit":"WEEK 52 EOT","visitnum":"11.0","dtc":"2025-03-04","value":"140.0","unit":"cm"},{"visit":"WEEK 56 SAFETY FU","visitnum":"12.0","dtc":"2025-03-29","value":"140.0","unit":"cm"}],"PULSE":[{"visit":"SCREENING","visitnum":"1.0","dtc":"2024-01-31","value":"77.7","unit":"beats/min"},{"visit":"BASELINE","visitnum":"2.0","dtc":"2024-03-03","value":"74.8","unit":"beats/min"},{"visit":"WEEK 4","visitnum":"3.0","dtc":"2024-03-31","value":"80.7","unit":"beats/min"},{"visit":"WEEK 8","visitnum":"4.0","dtc":"2024-05-01","value":"80.1","unit":"beats/min"},{"visit":"WEEK 12","visitnum":"5.0","dtc":"2024-05-24","value":"75.4","unit":"beats/min"},{"visit":"WEEK 16","visitnum":"6.0","dtc":"2024-06-19","value":"79.8","unit":"beats/min"},{"visit":"WEEK 20","visitnum":"7.0","dtc":"2024-07-24","value":"74.3","unit":"beats/min"},{"visit":"WEEK 24","visitnum":"8.0","dtc":"2024-08-21","value":"78.5","unit":"beats/min"},{"visit":"WEEK 32","visitnum":"9.0","dtc":"2024-10-15","value":"74.8","unit":"beats/min"},{"visit":"WEEK 40","visitnum":"10.0","dtc":"2024-12-10","value":"77.8","unit":"beats/min"},{"visit":"WEEK 52 EOT","visitnum":"11.0","dtc":"2025-03-04","value":"80.6","unit":"beats/min"},{"visit":"WEEK 56 SAFETY FU","visitnum":"12.0","dtc":"2025-03-29","value":"76.1","unit":"beats/min"}],"RESP":[{"visit":"SCREENING","visitnum":"1.0","dtc":"2024-01-31","value":"15.2","unit":"breaths/min"},{"visit":"BASELINE","visitnum":"2.0","dtc":"2024-03-03","value":"15.9","unit":"breaths/min"},{"visit":"WEEK 4","visitnum":"3.0","dtc":"2024-03-31","value":"15.6","unit":"breaths/min"},{"visit":"WEEK 8","visitnum":"4.0","dtc":"2024-05-01","value":"13.6","unit":"breaths/min"},{"visit":"WEEK 12","visitnum":"5.0","dtc":"2024-05-24","value":"12.5","unit":"breaths/min"},{"visit":"WEEK 16","visitnum":"6.0","dtc":"2024-06-19","value":"13.8","unit":"breaths/min"},{"visit":"WEEK 20","visitnum":"7.0","dtc":"2024-07-24","value":"15.0","unit":"breaths/min"},{"visit":"WEEK 24","visitnum":"8.0","dtc":"2024-08-21","value":"14.4","unit":"breaths/min"},{"visit":"WEEK 32","visitnum":"9.0","dtc":"2024-10-15","value":"15.5","unit":"breaths/min"},{"visit":"WEEK 40","visitnum":"10.0","dtc":"2024-12-10","value":"14.5","unit":"breaths/min"},{"visit":"WEEK 52 EOT","visitnum":"11.0","dtc":"2025-03-04","value":"12.5","unit":"breaths/min"},{"visit":"WEEK 56 SAFETY FU","visitnum":"12.0","dtc":"2025-03-29","value":"13.1","unit":"breaths/min"}],"SYSBP":[{"visit":"BASELINE","visitnum":"2.0","dtc":"2024-03-03","value":"109.8","unit":"mmHg"},{"visit":"WEEK 4","visitnum":"3.0","dtc":"2024-03-31","value":"110.3","unit":"mmHg"},{"visit":"WEEK 8","visitnum":"4.0","dtc":"2024-05-01","value":"112.3","unit":"mmHg"},{"visit":"WEEK 12","visitnum":"5.0","dtc":"2024-05-24","value":"111.5","unit":"mmHg"},{"visit":"WEEK 16","visitnum":"6.0","dtc":"2024-06-19","value":"111.9","unit":"mmHg"},{"visit":"WEEK 20","visitnum":"7.0","dtc":"2024-07-24","value":"114.4","unit":"mmHg"},{"visit":"WEEK 24","visitnum":"8.0","dtc":"2024-08-21","value":"114.0","unit":"mmHg"},{"visit":"WEEK 32","visitnum":"9.0","dtc":"2024-10-15","value":"113.7","unit":"mmHg"},{"visit":"WEEK 40","visitnum":"10.0","dtc":"2024-12-10","value":"116.5","unit":"mmHg"},{"visit":"WEEK 52 EOT","visitnum":"11.0","dtc":"2025-03-04","value":"117.9","unit":"mmHg"},{"visit":"WEEK 56 SAFETY FU","visitnum":"12.0","dtc":"2025-03-29","value":"116.2","unit":"mmHg"}],"TEMP":[{"visit":"SCREENING","visitnum":"1.0","dtc":"2024-01-31","value":"37.0","unit":"C"},{"visit":"BASELINE","visitnum":"2.0","dtc":"2024-03-03","value":"37.3","unit":"C"},{"visit":"WEEK 4","visitnum":"3.0","dtc":"2024-03-31","value":"37.0","unit":"C"},{"visit":"WEEK 8","visitnum":"4.0","dtc":"2024-05-01","value":"37.0","unit":"C"},{"visit":"WEEK 12","visitnum":"5.0","dtc":"2024-05-24","value":"37.1","unit":"C"},{"visit":"WEEK 16","visitnum":"6.0","dtc":"2024-06-19","value":"37.1","unit":"C"},{"visit":"WEEK 20","visitnum":"7.0","dtc":"2024-07-24","value":"37.0","unit":"C"},{"visit":"WEEK 24","visitnum":"8.0","dtc":"2024-08-21","value":"37.1","unit":"C"},{"visit":"WEEK 32","visitnum":"9.0","dtc":"2024-10-15","value":"36.8","unit":"C"},{"visit":"WEEK 40","visitnum":"10.0","dtc":"2024-12-10","value":"37.1","unit":"C"},{"visit":"WEEK 56 SAFETY FU","visitnum":"12.0","dtc":"2025-03-29","value":"36.8","unit":"C"}],"WEIGHT":[{"visit":"SCREENING","visitnum":"1.0","dtc":"2024-01-31","value":"54.4","unit":"kg"},{"visit":"BASELINE","visitnum":"2.0","dtc":"2024-03-03","value":"55.0","unit":"kg"},{"visit":"WEEK 4","visitnum":"3.0","dtc":"2024-03-31","value":"58.3","unit":"kg"},{"visit":"WEEK 8","visitnum":"4.0","dtc":"2024-05-01","value":"58.7","unit":"kg"},{"visit":"WEEK 12","visitnum":"5.0","dtc":"2024-05-24","value":"60.1","unit":"kg"},{"visit":"WEEK 16","visitnum":"6.0","dtc":"2024-06-19","value":"57.1","unit":"kg"},{"visit":"WEEK 20","visitnum":"7.0","dtc":"2024-07-24","value":"57.2","unit":"kg"},{"visit":"WEEK 24","visitnum":"8.0","dtc":"2024-08-21","value":"55.6","unit":"kg"},{"visit":"WEEK 32","visitnum":"9.0","dtc":"2024-10-15","value":"57.3","unit":"kg"},{"visit":"WEEK 40","visitnum":"10.0","dtc":"2024-12-10","value":"53.8","unit":"kg"},{"visit":"WEEK 52 EOT","visitnum":"11.0","dtc":"2025-03-04","value":"52.1","unit":"kg"},{"visit":"WEEK 56 SAFETY FU","visitnum":"12.0","dtc":"2025-03-29","value":"52.0","unit":"kg"}]},"results":[{"seq":"1","testcd":"BMI","test":"BMI","cat":null,"orres":null,"orresu":null,"stresc":"27.8","stresn":"27.8","stresu":"kg/m2","stnrlo":null,"stnrhi":null,"nrind":null,"pos":null,"loc":null,"dtc":"2024-01-31","dy":"-32","visit":"SCREENING","visitnum":"1.0","epoch":"SCREENING"},{"seq":"2","testcd":"DIABP","test":"Diastolic Blood Pressure","cat":null,"orres":"91.1","orresu":"mmHg","stresc":"91.1","stresn":"91.1","stresu":"mmHg","stnrlo":null,"stnrhi":null,"nrind":null,"pos":null,"loc":null,"dtc":"2024-01-31","dy":"-32","visit":"SCREENING","visitnum":"1.0","epoch":"SCREENING"},{"seq":"3","testcd":"HEIGHT","test":"Height","cat":null,"orres":"140.0","orresu":"cm","stresc":"140.0","stresn":"140.0","stresu":"cm","stnrlo":null,"stnrhi":null,"nrind":null,"pos":null,"loc":null,"dtc":"2024-01-31","dy":"-32","visit":"SCREENING","visitnum":"1.0","epoch":"SCREENING"},{"seq":"4","testcd":"PULSE","test":"Pulse Rate","cat":null,"orres":"77.7","orresu":"beats/min","stresc":"77.7","stresn":"77.7","stresu":"beats/min","stnrlo":null,"stnrhi":null,"nrind":null,"pos":null,"loc":null,"dtc":"2024-01-31","dy":"-32","visit":"SCREENING","visitnum":"1.0","epoch":"SCREENING"},{"seq":"5","testcd":"RESP","test":"Respiratory Rate","cat":null,"orres":"15.2","orresu":"breaths/min","stresc":"15.2","stresn":"15.2","stresu":"breaths/min","stnrlo":null,"stnrhi":null,"nrind":null,"pos":null,"loc":null,"dtc":"2024-01-31","dy":"-32","visit":"SCREENING","visitnum":"1.0","epoch":"SCREENING"},{"seq":"6","testcd":"SYSBP","test":"Systolic Blood Pressure","cat":null,"orres":null,"orresu":null,"stresc":null,"stresn":null,"stresu":null,"stnrlo":null,"stnrhi":null,"nrind":null,"pos":null,"loc":null,"dtc":"2024-01-31","dy":"-32","visit":"SCREENING","visitnum":"1.0","epoch":"SCREENING"},{"seq":"7","testcd":"TEMP","test":"Temperature","cat":null,"orres":"37.0","orresu":"C","stresc":"37.0","stresn":"37.0","stresu":"C","stnrlo":null,"stnrhi":null,"nrind":null,"pos":null,"loc":null,"dtc":"2024-01-31","dy":"-32","visit":"SCREENING","visitnum":"1.0","epoch":"SCREENING"},{"seq":"8","testcd":"WEIGHT","test":"Weight","cat":null,"orres":"54.4","orresu":"kg","stresc":"54.4","stresn":"54.4","stresu":"kg","stnrlo":null,"stnrhi":null,"nrind":null,"pos":null,"loc":null,"dtc":"2024-01-31","dy":"-32","visit":"SCREENING","visitnum":"1.0","epoch":"SCREENING"},{"seq":"9","testcd":"BMI","test":"BMI","cat":null,"orres":null,"orresu":null,"stresc":"28.1","stresn":"28.1","stresu":"kg/m2","stnrlo":null,"stnrhi":null,"nrind":null,"pos":null,"loc":null,"dtc":"2024-03-03","dy":"1","visit":"BASELINE","visitnum":"2.0","epoch":"TREATMENT"},{"seq":"10","testcd":"DIABP","test":"Diastolic Blood Pressure","cat":null,"orres":"87.5","orresu":"mmHg","stresc":"87.5","stresn":"87.5","stresu":"mmHg","stnrlo":null,"stnrhi":null,"nrind":null,"pos":null,"loc":null,"dtc":"2024-03-03","dy":"1","visit":"BASELINE","visitnum":"2.0","epoch":"TREATMENT"},{"seq":"11","testcd":"HEIGHT","test":"Height","cat":null,"orres":"140.0","orresu":"cm","stresc":"140.0","stresn":"140.0","stresu":"cm","stnrlo":null,"stnrhi":null,"nrind":null,"pos":null,"loc":null,"dtc":"2024-03-03","dy":"1","visit":"BASELINE","visitnum":"2.0","epoch":"TREATMENT"},{"seq":"12","testcd":"PULSE","test":"Pulse Rate","cat":null,"orres":"74.8","orresu":"beats/min","stresc":"74.8","stresn":"74.8","stresu":"beats/min","stnrlo":null,"stnrhi":null,"nrind":null,"pos":null,"loc":null,"dtc":"2024-03-03","dy":"1","visit":"BASELINE","visitnum":"2.0","epoch":"TREATMENT"},{"seq":"13","testcd":"RESP","test":"Respiratory Rate","cat":null,"orres":"15.9","orresu":"breaths/min","stresc":"15.9","stresn":"15.9","stresu":"breaths/min","stnrlo":null,"stnrhi":null,"nrind":null,"pos":null,"loc":null,"dtc":"2024-03-03","dy":"1","visit":"BASELINE","visitnum":"2.0","epoch":"TREATMENT"},{"seq":"14","testcd":"SYSBP","test":"Systolic Blood Pressure","cat":null,"orres":"109.8","orresu":"mmHg","stresc":"109.8","stresn":"109.8","stresu":"mmHg","stnrlo":null,"stnrhi":null,"nrind":null,"pos":null,"loc":null,"dtc":"2024-03-03","dy":"1","visit":"BASELINE","visitnum":"2.0","epoch":"TREATMENT"},{"seq":"15","testcd":"TEMP","test":"Temperature","cat":null,"orres":"37.3","orresu":"C","stresc":"37.3","stresn":"37.3","stresu":"C","stnrlo":null,"stnrhi":null,"nrind":null,"pos":null,"loc":null,"dtc":"2024-03-03","dy":"1","visit":"BASELINE","visitnum":"2.0","epoch":"TREATMENT"},{"seq":"16","testcd":"WEIGHT","test":"Weight","cat":null,"orres":"55.0","orresu":"kg","stresc":"55.0","stresn":"55.0","stresu":"kg","stnrlo":null,"stnrhi":null,"nrind":null,"pos":null,"loc":null,"dtc":"2024-03-03","dy":"1","visit":"BASELINE","visitnum":"2.0","epoch":"TREATMENT"},{"seq":"17","testcd":"BMI","test":"BMI","cat":null,"orres":null,"orresu":null,"stresc":"29.7","stresn":"29.7","stresu":"kg/m2","stnrlo":null,"stnrhi":null,"nrind":null,"pos":null,"loc":null,"dtc":"2024-03-31","dy":"29","visit":"WEEK 4","visitnum":"3.0","epoch":"TREATMENT"},{"seq":"18","testcd":"DIABP","test":"Diastolic Blood Pressure","cat":null,"orres":"88.2","orresu":"mmHg","stresc":"88.2","stresn":"88.2","stresu":"mmHg","stnrlo":null,"stnrhi":null,"nrind":null,"pos":null,"loc":null,"dtc":"2024-03-31","dy":"29","visit":"WEEK 4","visitnum":"3.0","epoch":"TREATMENT"},{"seq":"19","testcd":"HEIGHT","test":"Height","cat":null,"orres":"140.0","orresu":"cm","stresc":"140.0","stresn":"140.0","stresu":"cm","stnrlo":null,"stnrhi":null,"nrind":null,"pos":null,"loc":null,"dtc":"2024-03-31","dy":"29","visit":"WEEK 4","visitnum":"3.0","epoch":"TREATMENT"},{"seq":"20","testcd":"PULSE","test":"Pulse Rate","cat":null,"orres":"80.7","orresu":"beats/min","stresc":"80.7","stresn":"80.7","stresu":"beats/min","stnrlo":null,"stnrhi":null,"nrind":null,"pos":null,"loc":null,"dtc":"2024-03-31","dy":"29","visit":"WEEK 4","visitnum":"3.0","epoch":"TREATMENT"},{"seq":"21","testcd":"RESP","test":"Respiratory Rate","cat":null,"orres":"15.6","orresu":"breaths/min","stresc":"15.6","stresn":"15.6","stresu":"breaths/min","stnrlo":null,"stnrhi":null,"nrind":null,"pos":null,"loc":null,"dtc":"2024-03-31","dy":"29","visit":"WEEK 4","visitnum":"3.0","epoch":"TREATMENT"},{"seq":"22","testcd":"SYSBP","test":"Systolic Blood Pressure","cat":null,"orres":"110.3","orresu":"mmHg","stresc":"110.3","stresn":"110.3","stresu":"mmHg","stnrlo":null,"stnrhi":null,"nrind":null,"pos":null,"loc":null,"dtc":"2024-03-31","dy":"29","visit":"WEEK 4","visitnum":"3.0","epoch":"TREATMENT"},{"seq":"23","testcd":"TEMP","test":"Temperature","cat":null,"orres":"37.0","orresu":"C","stresc":"37.0","stresn":"37.0","stresu":"C","stnrlo":null,"stnrhi":null,"nrind":null,"pos":null,"loc":null,"dtc":"2024-03-31","dy":"29","visit":"WEEK 4","visitnum":"3.0","epoch":"TREATMENT"},{"seq":"24","testcd":"WEIGHT","test":"Weight","cat":null,"orres":"58.3","orresu":"kg","stresc":"58.3","stresn":"58.3","stresu":"kg","stnrlo":null,"stnrhi":null,"nrind":null,"pos":null,"loc":null,"dtc":"2024-03-31","dy":"29","visit":"WEEK 4","visitnum":"3.0","epoch":"TREATMENT"},{"seq":"25","testcd":"BMI","test":"BMI","cat":null,"orres":null,"orresu":null,"stresc":"29.9","stresn":"29.9","stresu":"kg/m2","stnrlo":null,"stnrhi":null,"nrind":null,"pos":null,"loc":null,"dtc":"2024-05-01","dy":"60","visit":"WEEK 8","visitnum":"4.0","epoch":"TREATMENT"},{"seq":"26","testcd":"DIABP","test":"Diastolic Blood Pressure","cat":null,"orres":"87.7","orresu":"mmHg","stresc":"87.7","stresn":"87.7","stresu":"mmHg","stnrlo":null,"stnrhi":null,"nrind":null,"pos":null,"loc":null,"dtc":"2024-05-01","dy":"60","visit":"WEEK 8","visitnum":"4.0","epoch":"TREATMENT"},{"seq":"27","testcd":"HEIGHT","test":"Height","cat":null,"orres":"140.0","orresu":"cm","stresc":"140.0","stresn":"140.0","stresu":"cm","stnrlo":null,"stnrhi":null,"nrind":null,"pos":null,"loc":null,"dtc":"2024-05-01","dy":"60","visit":"WEEK 8","visitnum":"4.0","epoch":"TREATMENT"},{"seq":"28","testcd":"PULSE","test":"Pulse Rate","cat":null,"orres":"80.1","orresu":"beats/min","stresc":"80.1","stresn":"80.1","stresu":"beats/min","stnrlo":null,"stnrhi":null,"nrind":null,"pos":null,"loc":null,"dtc":"2024-05-01","dy":"60","visit":"WEEK 8","visitnum":"4.0","epoch":"TREATMENT"},{"seq":"29","testcd":"RESP","test":"Respiratory Rate","cat":null,"orres":"13.6","orresu":"breaths/min","stresc":"13.6","stresn":"13.6","stresu":"breaths/min","stnrlo":null,"stnrhi":null,"nrind":null,"pos":null,"loc":null,"dtc":"2024-05-01","dy":"60","visit":"WEEK 8","visitnum":"4.0","epoch":"TREATMENT"},{"seq":"30","testcd":"SYSBP","test":"Systolic Blood Pressure","cat":null,"orres":"112.3","orresu":"mmHg","stresc":"112.3","stresn":"112.3","stresu":"mmHg","stnrlo":null,"stnrhi":null,"nrind":null,"pos":null,"loc":null,"dtc":"2024-05-01","dy":"60","visit":"WEEK 8","visitnum":"4.0","epoch":"TREATMENT"},{"seq":"31","testcd":"TEMP","test":"Temperature","cat":null,"orres":"37.0","orresu":"C","stresc":"37.0","stresn":"37.0","stresu":"C","stnrlo":null,"stnrhi":null,"nrind":null,"pos":null,"loc":null,"dtc":"2024-05-01","dy":"60","visit":"WEEK 8","visitnum":"4.0","epoch":"TREATMENT"},{"seq":"32","testcd":"WEIGHT","test":"Weight","cat":null,"orres":"58.7","orresu":"kg","stresc":"58.7","stresn":"58.7","stresu":"kg","stnrlo":null,"stnrhi":null,"nrind":null,"pos":null,"loc":null,"dtc":"2024-05-01","dy":"60","visit":"WEEK 8","visitnum":"4.0","epoch":"TREATMENT"},{"seq":"33","testcd":"BMI","test":"BMI","cat":null,"orres":null,"orresu":null,"stresc":"30.7","stresn":"30.7","stresu":"kg/m2","stnrlo":null,"stnrhi":null,"nrind":null,"pos":null,"loc":null,"dtc":"2024-05-24","dy":"83","visit":"WEEK 12","visitnum":"5.0","epoch":"TREATMENT"},{"seq":"34","testcd":"DIABP","test":"Diastolic Blood Pressure","cat":null,"orres":"85.3","orresu":"mmHg","stresc":"85.3","stresn":"85.3","stresu":"mmHg","stnrlo":null,"stnrhi":null,"nrind":null,"pos":null,"loc":null,"dtc":"2024-05-24","dy":"83","visit":"WEEK 12","visitnum":"5.0","epoch":"TREATMENT"},{"seq":"35","testcd":"HEIGHT","test":"Height","cat":null,"orres":"140.0","orresu":"cm","stresc":"140.0","stresn":"140.0","stresu":"cm","stnrlo":null,"stnrhi":null,"nrind":null,"pos":null,"loc":null,"dtc":"2024-05-24","dy":"83","visit":"WEEK 12","visitnum":"5.0","epoch":"TREATMENT"},{"seq":"36","testcd":"PULSE","test":"Pulse Rate","cat":null,"orres":"75.4","orresu":"beats/min","stresc":"75.4","stresn":"75.4","stresu":"beats/min","stnrlo":null,"stnrhi":null,"nrind":null,"pos":null,"loc":null,"dtc":"2024-05-24","dy":"83","visit":"WEEK 12","visitnum":"5.0","epoch":"TREATMENT"},{"seq":"37","testcd":"RESP","test":"Respiratory Rate","cat":null,"orres":"12.5","orresu":"breaths/min","stresc":"12.5","stresn":"12.5","stresu":"breaths/min","stnrlo":null,"stnrhi":null,"nrind":null,"pos":null,"loc":null,"dtc":"2024-05-24","dy":"83","visit":"WEEK 12","visitnum":"5.0","epoch":"TREATMENT"},{"seq":"38","testcd":"SYSBP","test":"Systolic Blood Pressure","cat":null,"orres":"111.5","orresu":"mmHg","stresc":"111.5","stresn":"111.5","stresu":"mmHg","stnrlo":null,"stnrhi":null,"nrind":null,"pos":null,"loc":null,"dtc":"2024-05-24","dy":"83","visit":"WEEK 12","visitnum":"5.0","epoch":"TREATMENT"},{"seq":"39","testcd":"TEMP","test":"Temperature","cat":null,"orres":"37.1","orresu":"C","stresc":"37.1","stresn":"37.1","stresu":"C","stnrlo":null,"stnrhi":null,"nrind":null,"pos":null,"loc":null,"dtc":"2024-05-24","dy":"83","visit":"WEEK 12","visitnum":"5.0","epoch":"TREATMENT"},{"seq":"40","testcd":"WEIGHT","test":"Weight","cat":null,"orres":"60.1","orresu":"kg","stresc":"60.1","stresn":"60.1","stresu":"kg","stnrlo":null,"stnrhi":null,"nrind":null,"pos":null,"loc":null,"dtc":"2024-05-24","dy":"83","visit":"WEEK 12","visitnum":"5.0","epoch":"TREATMENT"},{"seq":"41","testcd":"BMI","test":"BMI","cat":null,"orres":null,"orresu":null,"stresc":"29.1","stresn":"29.1","stresu":"kg/m2","stnrlo":null,"stnrhi":null,"nrind":null,"pos":null,"loc":null,"dtc":"2024-06-19","dy":"109","visit":"WEEK 16","visitnum":"6.0","epoch":"TREATMENT"},{"seq":"42","testcd":"DIABP","test":"Diastolic Blood Pressure","cat":null,"orres":"87.9","orresu":"mmHg","stresc":"87.9","stresn":"87.9","stresu":"mmHg","stnrlo":null,"stnrhi":null,"nrind":null,"pos":null,"loc":null,"dtc":"2024-06-19","dy":"109","visit":"WEEK 16","visitnum":"6.0","epoch":"TREATMENT"},{"seq":"43","testcd":"HEIGHT","test":"Height","cat":null,"orres":"140.0","orresu":"cm","stresc":"140.0","stresn":"140.0","stresu":"cm","stnrlo":null,"stnrhi":null,"nrind":null,"pos":null,"loc":null,"dtc":"2024-06-19","dy":"109","visit":"WEEK 16","visitnum":"6.0","epoch":"TREATMENT"},{"seq":"44","testcd":"PULSE","test":"Pulse Rate","cat":null,"orres":"79.8","orresu":"beats/min","stresc":"79.8","stresn":"79.8","stresu":"beats/min","stnrlo":null,"stnrhi":null,"nrind":null,"pos":null,"loc":null,"dtc":"2024-06-19","dy":"109","visit":"WEEK 16","visitnum":"6.0","epoch":"TREATMENT"},{"seq":"45","testcd":"RESP","test":"Respiratory Rate","cat":null,"orres":"13.8","orresu":"breaths/min","stresc":"13.8","stresn":"13.8","stresu":"breaths/min","stnrlo":null,"stnrhi":null,"nrind":null,"pos":null,"loc":null,"dtc":"2024-06-19","dy":"109","visit":"WEEK 16","visitnum":"6.0","epoch":"TREATMENT"},{"seq":"46","testcd":"SYSBP","test":"Systolic Blood Pressure","cat":null,"orres":"111.9","orresu":"mmHg","stresc":"111.9","stresn":"111.9","stresu":"mmHg","stnrlo":null,"stnrhi":null,"nrind":null,"pos":null,"loc":null,"dtc":"2024-06-19","dy":"109","visit":"WEEK 16","visitnum":"6.0","epoch":"TREATMENT"},{"seq":"47","testcd":"TEMP","test":"Temperature","cat":null,"orres":"37.1","orresu":"C","stresc":"37.1","stresn":"37.1","stresu":"C","stnrlo":null,"stnrhi":null,"nrind":null,"pos":null,"loc":null,"dtc":"2024-06-19","dy":"109","visit":"WEEK 16","visitnum":"6.0","epoch":"TREATMENT"},{"seq":"48","testcd":"WEIGHT","test":"Weight","cat":null,"orres":"57.1","orresu":"kg","stresc":"57.1","stresn":"57.1","stresu":"kg","stnrlo":null,"stnrhi":null,"nrind":null,"pos":null,"loc":null,"dtc":"2024-06-19","dy":"109","visit":"WEEK 16","visitnum":"6.0","epoch":"TREATMENT"},{"seq":"49","testcd":"BMI","test":"BMI","cat":null,"orres":null,"orresu":null,"stresc":"29.2","stresn":"29.2","stresu":"kg/m2","stnrlo":null,"stnrhi":null,"nrind":null,"pos":null,"loc":null,"dtc":"2024-07-24","dy":"144","visit":"WEEK 20","visitnum":"7.0","epoch":"TREATMENT"},{"seq":"50","testcd":"DIABP","test":"Diastolic Blood Pressure","cat":null,"orres":null,"orresu":null,"stresc":null,"stresn":null,"stresu":null,"stnrlo":null,"stnrhi":null,"nrind":null,"pos":null,"loc":null,"dtc":"2024-07-24","dy":"144","visit":"WEEK 20","visitnum":"7.0","epoch":"TREATMENT"},{"seq":"51","testcd":"HEIGHT","test":"Height","cat":null,"orres":"140.0","orresu":"cm","stresc":"140.0","stresn":"140.0","stresu":"cm","stnrlo":null,"stnrhi":null,"nrind":null,"pos":null,"loc":null,"dtc":"2024-07-24","dy":"144","visit":"WEEK 20","visitnum":"7.0","epoch":"TREATMENT"},{"seq":"52","testcd":"PULSE","test":"Pulse Rate","cat":null,"orres":"74.3","orresu":"beats/min","stresc":"74.3","stresn":"74.3","stresu":"beats/min","stnrlo":null,"stnrhi":null,"nrind":null,"pos":null,"loc":null,"dtc":"2024-07-24","dy":"144","visit":"WEEK 20","visitnum":"7.0","epoch":"TREATMENT"},{"seq":"53","testcd":"RESP","test":"Respiratory Rate","cat":null,"orres":"15.0","orresu":"breaths/min","stresc":"15.0","stresn":"15.0","stresu":"breaths/min","stnrlo":null,"stnrhi":null,"nrind":null,"pos":null,"loc":null,"dtc":"2024-07-24","dy":"144","visit":"WEEK 20","visitnum":"7.0","epoch":"TREATMENT"},{"seq":"54","testcd":"SYSBP","test":"Systolic Blood Pressure","cat":null,"orres":"114.4","orresu":"mmHg","stresc":"114.4","stresn":"114.4","stresu":"mmHg","stnrlo":null,"stnrhi":null,"nrind":null,"pos":null,"loc":null,"dtc":"2024-07-24","dy":"144","visit":"WEEK 20","visitnum":"7.0","epoch":"TREATMENT"},{"seq":"55","testcd":"TEMP","test":"Temperature","cat":null,"orres":"37.0","orresu":"C","stresc":"37.0","stresn":"37.0","stresu":"C","stnrlo":null,"stnrhi":null,"nrind":null,"pos":null,"loc":null,"dtc":"2024-07-24","dy":"144","visit":"WEEK 20","visitnum":"7.0","epoch":"TREATMENT"},{"seq":"56","testcd":"WEIGHT","test":"Weight","cat":null,"orres":"57.2","orresu":"kg","stresc":"57.2","stresn":"57.2","stresu":"kg","stnrlo":null,"stnrhi":null,"nrind":null,"pos":null,"loc":null,"dtc":"2024-07-24","dy":"144","visit":"WEEK 20","visitnum":"7.0","epoch":"TREATMENT"},{"seq":"57","testcd":"BMI","test":"BMI","cat":null,"orres":null,"orresu":null,"stresc":"28.4","stresn":"28.4","stresu":"kg/m2","stnrlo":null,"stnrhi":null,"nrind":null,"pos":null,"loc":null,"dtc":"2024-08-21","dy":"172","visit":"WEEK 24","visitnum":"8.0","epoch":"TREATMENT"},{"seq":"58","testcd":"DIABP","test":"Diastolic Blood Pressure","cat":null,"orres":"89.7","orresu":"mmHg","stresc":"89.7","stresn":"89.7","stresu":"mmHg","stnrlo":null,"stnrhi":null,"nrind":null,"pos":null,"loc":null,"dtc":"2024-08-21","dy":"172","visit":"WEEK 24","visitnum":"8.0","epoch":"TREATMENT"},{"seq":"59","testcd":"HEIGHT","test":"Height","cat":null,"orres":"140.0","orresu":"cm","stresc":"140.0","stresn":"140.0","stresu":"cm","stnrlo":null,"stnrhi":null,"nrind":null,"pos":null,"loc":null,"dtc":"2024-08-21","dy":"172","visit":"WEEK 24","visitnum":"8.0","epoch":"TREATMENT"},{"seq":"60","testcd":"PULSE","test":"Pulse Rate","cat":null,"orres":"78.5","orresu":"beats/min","stresc":"78.5","stresn":"78.5","stresu":"beats/min","stnrlo":null,"stnrhi":null,"nrind":null,"pos":null,"loc":null,"dtc":"2024-08-21","dy":"172","visit":"WEEK 24","visitnum":"8.0","epoch":"TREATMENT"},{"seq":"61","testcd":"RESP","test":"Respiratory Rate","cat":null,"orres":"14.4","orresu":"breaths/min","stresc":"14.4","stresn":"14.4","stresu":"breaths/min","stnrlo":null,"stnrhi":null,"nrind":null,"pos":null,"loc":null,"dtc":"2024-08-21","dy":"172","visit":"WEEK 24","visitnum":"8.0","epoch":"TREATMENT"},{"seq":"62","testcd":"SYSBP","test":"Systolic Blood Pressure","cat":null,"orres":"114.0","orresu":"mmHg","stresc":"114.0","stresn":"114.0","stresu":"mmHg","stnrlo":null,"stnrhi":null,"nrind":null,"pos":null,"loc":null,"dtc":"2024-08-21","dy":"172","visit":"WEEK 24","visitnum":"8.0","epoch":"TREATMENT"},{"seq":"63","testcd":"TEMP","test":"Temperature","cat":null,"orres":"37.1","orresu":"C","stresc":"37.1","stresn":"37.1","stresu":"C","stnrlo":null,"stnrhi":null,"nrind":null,"pos":null,"loc":null,"dtc":"2024-08-21","dy":"172","visit":"WEEK 24","visitnum":"8.0","epoch":"TREATMENT"},{"seq":"64","testcd":"WEIGHT","test":"Weight","cat":null,"orres":"55.6","orresu":"kg","stresc":"55.6","stresn":"55.6","stresu":"kg","stnrlo":null,"stnrhi":null,"nrind":null,"pos":null,"loc":null,"dtc":"2024-08-21","dy":"172","visit":"WEEK 24","visitnum":"8.0","epoch":"TREATMENT"},{"seq":"65","testcd":"BMI","test":"BMI","cat":null,"orres":null,"orresu":null,"stresc":"29.2","stresn":"29.2","stresu":"kg/m2","stnrlo":null,"stnrhi":null,"nrind":null,"pos":null,"loc":null,"dtc":"2024-10-15","dy":"227","visit":"WEEK 32","visitnum":"9.0","epoch":"TREATMENT"},{"seq":"66","testcd":"DIABP","test":"Diastolic Blood Pressure","cat":null,"orres":"90.1","orresu":"mmHg","stresc":"90.1","stresn":"90.1","stresu":"mmHg","stnrlo":null,"stnrhi":null,"nrind":null,"pos":null,"loc":null,"dtc":"2024-10-15","dy":"227","visit":"WEEK 32","visitnum":"9.0","epoch":"TREATMENT"},{"seq":"67","testcd":"HEIGHT","test":"Height","cat":null,"orres":"140.0","orresu":"cm","stresc":"140.0","stresn":"140.0","stresu":"cm","stnrlo":null,"stnrhi":null,"nrind":null,"pos":null,"loc":null,"dtc":"2024-10-15","dy":"227","visit":"WEEK 32","visitnum":"9.0","epoch":"TREATMENT"},{"seq":"68","testcd":"PULSE","test":"Pulse Rate","cat":null,"orres":"74.8","orresu":"beats/min","stresc":"74.8","stresn":"74.8","stresu":"beats/min","stnrlo":null,"stnrhi":null,"nrind":null,"pos":null,"loc":null,"dtc":"2024-10-15","dy":"227","visit":"WEEK 32","visitnum":"9.0","epoch":"TREATMENT"},{"seq":"69","testcd":"RESP","test":"Respiratory Rate","cat":null,"orres":"15.5","orresu":"breaths/min","stresc":"15.5","stresn":"15.5","stresu":"breaths/min","stnrlo":null,"stnrhi":null,"nrind":null,"pos":null,"loc":null,"dtc":"2024-10-15","dy":"227","visit":"WEEK 32","visitnum":"9.0","epoch":"TREATMENT"},{"seq":"70","testcd":"SYSBP","test":"Systolic Blood Pressure","cat":null,"orres":"113.7","orresu":"mmHg","stresc":"113.7","stresn":"113.7","stresu":"mmHg","stnrlo":null,"stnrhi":null,"nrind":null,"pos":null,"loc":null,"dtc":"2024-10-15","dy":"227","visit":"WEEK 32","visitnum":"9.0","epoch":"TREATMENT"},{"seq":"71","testcd":"TEMP","test":"Temperature","cat":null,"orres":"36.8","orresu":"C","stresc":"36.8","stresn":"36.8","stresu":"C","stnrlo":null,"stnrhi":null,"nrind":null,"pos":null,"loc":null,"dtc":"2024-10-15","dy":"227","visit":"WEEK 32","visitnum":"9.0","epoch":"TREATMENT"},{"seq":"72","testcd":"WEIGHT","test":"Weight","cat":null,"orres":"57.3","orresu":"kg","stresc":"57.3","stresn":"57.3","stresu":"kg","stnrlo":null,"stnrhi":null,"nrind":null,"pos":null,"loc":null,"dtc":"2024-10-15","dy":"227","visit":"WEEK 32","visitnum":"9.0","epoch":"TREATMENT"},{"seq":"73","testcd":"BMI","test":"BMI","cat":null,"orres":null,"orresu":null,"stresc":"27.4","stresn":"27.4","stresu":"kg/m2","stnrlo":null,"stnrhi":null,"nrind":null,"pos":null,"loc":null,"dtc":"2024-12-10","dy":"283","visit":"WEEK 40","visitnum":"10.0","epoch":"TREATMENT"},{"seq":"74","testcd":"DIABP","test":"Diastolic Blood Pressure","cat":null,"orres":"92.0","orresu":"mmHg","stresc":"92.0","stresn":"92.0","stresu":"mmHg","stnrlo":null,"stnrhi":null,"nrind":null,"pos":null,"loc":null,"dtc":"2024-12-10","dy":"283","visit":"WEEK 40","visitnum":"10.0","epoch":"TREATMENT"},{"seq":"75","testcd":"HEIGHT","test":"Height","cat":null,"orres":"140.0","orresu":"cm","stresc":"140.0","stresn":"140.0","stresu":"cm","stnrlo":null,"stnrhi":null,"nrind":null,"pos":null,"loc":null,"dtc":"2024-12-10","dy":"283","visit":"WEEK 40","visitnum":"10.0","epoch":"TREATMENT"},{"seq":"76","testcd":"PULSE","test":"Pulse Rate","cat":null,"orres":"77.8","orresu":"beats/min","stresc":"77.8","stresn":"77.8","stresu":"beats/min","stnrlo":null,"stnrhi":null,"nrind":null,"pos":null,"loc":null,"dtc":"2024-12-10","dy":"283","visit":"WEEK 40","visitnum":"10.0","epoch":"TREATMENT"},{"seq":"77","testcd":"RESP","test":"Respiratory Rate","cat":null,"orres":"14.5","orresu":"breaths/min","stresc":"14.5","stresn":"14.5","stresu":"breaths/min","stnrlo":null,"stnrhi":null,"nrind":null,"pos":null,"loc":null,"dtc":"2024-12-10","dy":"283","visit":"WEEK 40","visitnum":"10.0","epoch":"TREATMENT"},{"seq":"78","testcd":"SYSBP","test":"Systolic Blood Pressure","cat":null,"orres":"116.5","orresu":"mmHg","stresc":"116.5","stresn":"116.5","stresu":"mmHg","stnrlo":null,"stnrhi":null,"nrind":null,"pos":null,"loc":null,"dtc":"2024-12-10","dy":"283","visit":"WEEK 40","visitnum":"10.0","epoch":"TREATMENT"},{"seq":"79","testcd":"TEMP","test":"Temperature","cat":null,"orres":"37.1","orresu":"C","stresc":"37.1","stresn":"37.1","stresu":"C","stnrlo":null,"stnrhi":null,"nrind":null,"pos":null,"loc":null,"dtc":"2024-12-10","dy":"283","visit":"WEEK 40","visitnum":"10.0","epoch":"TREATMENT"},{"seq":"80","testcd":"WEIGHT","test":"Weight","cat":null,"orres":"53.8","orresu":"kg","stresc":"53.8","stresn":"53.8","stresu":"kg","stnrlo":null,"stnrhi":null,"nrind":null,"pos":null,"loc":null,"dtc":"2024-12-10","dy":"283","visit":"WEEK 40","visitnum":"10.0","epoch":"TREATMENT"},{"seq":"81","testcd":"BMI","test":"BMI","cat":null,"orres":null,"orresu":null,"stresc":"26.6","stresn":"26.6","stresu":"kg/m2","stnrlo":null,"stnrhi":null,"nrind":null,"pos":null,"loc":null,"dtc":"2025-03-04","dy":"367","visit":"WEEK 52 EOT","visitnum":"11.0","epoch":"TREATMENT"},{"seq":"82","testcd":"DIABP","test":"Diastolic Blood Pressure","cat":null,"orres":"91.7","orresu":"mmHg","stresc":"91.7","stresn":"91.7","stresu":"mmHg","stnrlo":null,"stnrhi":null,"nrind":null,"pos":null,"loc":null,"dtc":"2025-03-04","dy":"367","visit":"WEEK 52 EOT","visitnum":"11.0","epoch":"TREATMENT"},{"seq":"83","testcd":"HEIGHT","test":"Height","cat":null,"orres":"140.0","orresu":"cm","stresc":"140.0","stresn":"140.0","stresu":"cm","stnrlo":null,"stnrhi":null,"nrind":null,"pos":null,"loc":null,"dtc":"2025-03-04","dy":"367","visit":"WEEK 52 EOT","visitnum":"11.0","epoch":"TREATMENT"},{"seq":"84","testcd":"PULSE","test":"Pulse Rate","cat":null,"orres":"80.6","orresu":"beats/min","stresc":"80.6","stresn":"80.6","stresu":"beats/min","stnrlo":null,"stnrhi":null,"nrind":null,"pos":null,"loc":null,"dtc":"2025-03-04","dy":"367","visit":"WEEK 52 EOT","visitnum":"11.0","epoch":"TREATMENT"},{"seq":"85","testcd":"RESP","test":"Respiratory Rate","cat":null,"orres":"12.5","orresu":"breaths/min","stresc":"12.5","stresn":"12.5","stresu":"breaths/min","stnrlo":null,"stnrhi":null,"nrind":null,"pos":null,"loc":null,"dtc":"2025-03-04","dy":"367","visit":"WEEK 52 EOT","visitnum":"11.0","epoch":"TREATMENT"},{"seq":"86","testcd":"SYSBP","test":"Systolic Blood Pressure","cat":null,"orres":"117.9","orresu":"mmHg","stresc":"117.9","stresn":"117.9","stresu":"mmHg","stnrlo":null,"stnrhi":null,"nrind":null,"pos":null,"loc":null,"dtc":"2025-03-04","dy":"367","visit":"WEEK 52 EOT","visitnum":"11.0","epoch":"TREATMENT"},{"seq":"87","testcd":"TEMP","test":"Temperature","cat":null,"orres":null,"orresu":null,"stresc":null,"stresn":null,"stresu":null,"stnrlo":null,"stnrhi":null,"nrind":null,"pos":null,"loc":null,"dtc":"2025-03-04","dy":"367","visit":"WEEK 52 EOT","visitnum":"11.0","epoch":"TREATMENT"},{"seq":"88","testcd":"WEIGHT","test":"Weight","cat":null,"orres":"52.1","orresu":"kg","stresc":"52.1","stresn":"52.1","stresu":"kg","stnrlo":null,"stnrhi":null,"nrind":null,"pos":null,"loc":null,"dtc":"2025-03-04","dy":"367","visit":"WEEK 52 EOT","visitnum":"11.0","epoch":"TREATMENT"},{"seq":"89","testcd":"BMI","test":"BMI","cat":null,"orres":null,"orresu":null,"stresc":"26.5","stresn":"26.5","stresu":"kg/m2","stnrlo":null,"stnrhi":null,"nrind":null,"pos":null,"loc":null,"dtc":"2025-03-29","dy":"392","visit":"WEEK 56 SAFETY FU","visitnum":"12.0","epoch":"FOLLOW-UP"},{"seq":"90","testcd":"DIABP","test":"Diastolic Blood Pressure","cat":null,"orres":"90.3","orresu":"mmHg","stresc":"90.3","stresn":"90.3","stresu":"mmHg","stnrlo":null,"stnrhi":null,"nrind":null,"pos":null,"loc":null,"dtc":"2025-03-29","dy":"392","visit":"WEEK 56 SAFETY FU","visitnum":"12.0","epoch":"FOLLOW-UP"},{"seq":"91","testcd":"HEIGHT","test":"Height","cat":null,"orres":"140.0","orresu":"cm","stresc":"140.0","stresn":"140.0","stresu":"cm","stnrlo":null,"stnrhi":null,"nrind":null,"pos":null,"loc":null,"dtc":"2025-03-29","dy":"392","visit":"WEEK 56 SAFETY FU","visitnum":"12.0","epoch":"FOLLOW-UP"},{"seq":"92","testcd":"PULSE","test":"Pulse Rate","cat":null,"orres":"76.1","orresu":"beats/min","stresc":"76.1","stresn":"76.1","stresu":"beats/min","stnrlo":null,"stnrhi":null,"nrind":null,"pos":null,"loc":null,"dtc":"2025-03-29","dy":"392","visit":"WEEK 56 SAFETY FU","visitnum":"12.0","epoch":"FOLLOW-UP"},{"seq":"93","testcd":"RESP","test":"Respiratory Rate","cat":null,"orres":"13.1","orresu":"breaths/min","stresc":"13.1","stresn":"13.1","stresu":"breaths/min","stnrlo":null,"stnrhi":null,"nrind":null,"pos":null,"loc":null,"dtc":"2025-03-29","dy":"392","visit":"WEEK 56 SAFETY FU","visitnum":"12.0","epoch":"FOLLOW-UP"},{"seq":"94","testcd":"SYSBP","test":"Systolic Blood Pressure","cat":null,"orres":"116.2","orresu":"mmHg","stresc":"116.2","stresn":"116.2","stresu":"mmHg","stnrlo":null,"stnrhi":null,"nrind":null,"pos":null,"loc":null,"dtc":"2025-03-29","dy":"392","visit":"WEEK 56 SAFETY FU","visitnum":"12.0","epoch":"FOLLOW-UP"},{"seq":"95","testcd":"TEMP","test":"Temperature","cat":null,"orres":"36.8","orresu":"C","stresc":"36.8","stresn":"36.8","stresu":"C","stnrlo":null,"stnrhi":null,"nrind":null,"pos":null,"loc":null,"dtc":"2025-03-29","dy":"392","visit":"WEEK 56 SAFETY FU","visitnum":"12.0","epoch":"FOLLOW-UP"},{"seq":"96","testcd":"WEIGHT","test":"Weight","cat":null,"orres":"52.0","orresu":"kg","stresc":"52.0","stresn":"52.0","stresu":"kg","stnrlo":null,"stnrhi":null,"nrind":null,"pos":null,"loc":null,"dtc":"2025-03-29","dy":"392","visit":"WEEK 56 SAFETY FU","visitnum":"12.0","epoch":"FOLLOW-UP"}]},"section_10_questionnaires_and_scores":{"questionnaires":[],"findings_about":[]},"section_11_protocol_deviations":{"deviations":[{"seq":"1","term":"Dose modified from 15.0 to 2.5 mg","decod":"DOSE MODIFICATION","cat":"MINOR","scat":"DOSING","start_dtc":"2024-03-10","end_dtc":null,"visit":null},{"seq":"2","term":"Dose modified from 15.0 to 2.5 mg","decod":"DOSE MODIFICATION","cat":"MINOR","scat":"DOSING","start_dtc":"2024-03-17","end_dtc":null,"visit":null},{"seq":"3","term":"Dose modified from 15.0 to 5.0 mg","decod":"DOSE MODIFICATION","cat":"MINOR","scat":"DOSING","start_dtc":"2024-04-07","end_dtc":null,"visit":null},{"seq":"4","term":"Dose modified from 15.0 to 5.0 mg","decod":"DOSE MODIFICATION","cat":"MINOR","scat":"DOSING","start_dtc":"2024-04-14","end_dtc":null,"visit":null},{"seq":"5","term":"Dose modified from 15.0 to 7.5 mg","decod":"DOSE MODIFICATION","cat":"MINOR","scat":"DOSING","start_dtc":"2024-05-12","end_dtc":null,"visit":null},{"seq":"6","term":"Dose modified from 15.0 to 7.5 mg","decod":"DOSE MODIFICATION","cat":"MINOR","scat":"DOSING","start_dtc":"2024-05-19","end_dtc":null,"visit":null},{"seq":"7","term":"Visit WEEK 12 occurred 2 days early (Day 83 vs planned Day 85)","decod":"VISIT OCCURRED OUTSIDE VISIT WINDOW","cat":"MINOR","scat":"VISIT WINDOW","start_dtc":"2024-05-24","end_dtc":null,"visit":null},{"seq":"8","term":"Dose modified from 15.0 to 10.0 mg","decod":"DOSE MODIFICATION","cat":"MINOR","scat":"DOSING","start_dtc":"2024-06-02","end_dtc":null,"visit":null},{"seq":"9","term":"Dose modified from 15.0 to 10.0 mg","decod":"DOSE MODIFICATION","cat":"MINOR","scat":"DOSING","start_dtc":"2024-06-16","end_dtc":null,"visit":null},{"seq":"10","term":"Dose modified from 15.0 to 12.5 mg","decod":"DOSE MODIFICATION","cat":"MINOR","scat":"DOSING","start_dtc":"2024-06-23","end_dtc":null,"visit":null},{"seq":"11","term":"Dose modified from 15.0 to 12.5 mg","decod":"DOSE MODIFICATION","cat":"MINOR","scat":"DOSING","start_dtc":"2024-07-07","end_dtc":null,"visit":null},{"seq":"12","term":"Vital signs assessment not performed at WEEK 20","decod":"MISSED ASSESSMENT","cat":"MINOR","scat":"ASSESSMENT","start_dtc":"2024-07-24","end_dtc":null,"visit":null},{"seq":"13","term":"Missed TIRZEPATIDE dose on 2024-09-08","decod":"MISSED DOSE","cat":"MINOR","scat":"DOSING","start_dtc":"2024-09-08","end_dtc":null,"visit":null},{"seq":"14","term":"Missed TIRZEPATIDE dose on 2024-11-10","decod":"MISSED DOSE","cat":"MINOR","scat":"DOSING","start_dtc":"2024-11-10","end_dtc":null,"visit":null},{"seq":"15","term":"Missed TIRZEPATIDE dose on 2024-12-29","decod":"MISSED DOSE","cat":"MINOR","scat":"DOSING","start_dtc":"2024-12-29","end_dtc":null,"visit":null},{"seq":"16","term":"Missed TIRZEPATIDE dose on 2025-02-09","decod":"MISSED DOSE","cat":"MINOR","scat":"DOSING","start_dtc":"2025-02-09","end_dtc":null,"visit":null},{"seq":"17","term":"Missed TIRZEPATIDE dose on 2025-02-23","decod":"MISSED DOSE","cat":"MINOR","scat":"DOSING","start_dtc":"2025-02-23","end_dtc":null,"visit":null},{"seq":"18","term":"Vital signs assessment not performed at WEEK 52 EOT","decod":"MISSED ASSESSMENT","cat":"MINOR","scat":"ASSESSMENT","start_dtc":"2025-03-04","end_dtc":null,"visit":null}],"total":18},"section_12_disposition":{"completion_status":"COMPLETED","disposition_records":[{"seq":"1","term":"INFORMED CONSENT OBTAINED","decod":"INFORMED CONSENT OBTAINED","cat":"PROTOCOL MILESTONE","scat":null,"dtc":"2024-02-17","dy":null,"visit":null,"epoch":"SCREENING"},{"seq":"2","term":"RANDOMIZED","decod":"RANDOMIZED","cat":"PROTOCOL MILESTONE","scat":null,"dtc":"2024-03-03","dy":null,"visit":null,"epoch":"TREATMENT"},{"seq":"3","term":"COMPLETED","decod":"COMPLETED","cat":"DISPOSITION EVENT","scat":null,"dtc":"2025-04-26","dy":null,"visit":null,"epoch":"FOLLOW-UP"}],"death":null},"section_13_hospitalizations":{"items":[{"seq":"1","term":"Diarrhoea","decod":"Diarrhoea","cat":"EMERGENCY ROOM VISIT","start_dtc":"2024-06-06","end_dtc":"2024-06-14","epoch":"TREATMENT"},{"seq":"2","term":"Dyspepsia","decod":"Dyspepsia","cat":"HOSPITALIZATION","start_dtc":"2024-06-11","end_dtc":"2024-06-19","epoch":"TREATMENT"},{"seq":"3","term":"Diarrhoea","decod":"Diarrhoea","cat":"EMERGENCY ROOM VISIT","start_dtc":"2024-08-17","end_dtc":"2024-08-27","epoch":"TREATMENT"},{"seq":"4","term":"Decreased appetite","decod":"Decreased appetite","cat":"HOSPITALIZATION","start_dtc":"2024-11-13","end_dtc":"2024-11-23","epoch":"TREATMENT"}],"total":4},"section_14_substance_use":{"items":[{"seq":"1","substance":"BEER/WINE/SPIRITS","decod":"ETHANOL","cat":"ALCOHOL","scat":null,"usage":"Y","dose":"3.0","dosu":"DRINKS/WEEK","freq":"QW","start_dtc":"2021-02-17","end_dtc":null},{"seq":"2","substance":"COFFEE","decod":"COFFEE","cat":"CAFFEINE","scat":null,"usage":"Y","dose":"4.0","dosu":"CUPS/DAY","freq":"QD","start_dtc":"2007-02-21","end_dtc":null},{"seq":"3","substance":"CIGARETTES","decod":"CIGARETTES","cat":"TOBACCO","scat":null,"usage":"Y","dose":"16.0","dosu":"CIGARETTES/DAY","freq":"QD","start_dtc":"2023-02-17","end_dtc":null}],"total":3},"section_15_subject_status":{"items":[{"seq":"1","testcd":"SURVSTAT","test":"Survival Status","orres":"ALIVE","stresc":"ALIVE","dtc":"2025-04-26","visit":null,"epoch":"FOLLOW-UP"}],"total":1}}