{"subject_id":"P261-402-USL261-USA_SITE01-0019","study_id":"P261-402-USL261","generated_at":"2026-07-07T06:26:50.919772+00:00","sdtmig_version":"3.4","flags":{"has_serious_ae":false,"has_fatal_ae":false,"has_protocol_deviation":false,"n_protocol_deviations":0,"n_adverse_events":0,"n_concomitant_meds":0,"max_ae_severity":null,"screen_failure":false,"discontinued_early":true,"discontinuation_reason":"WITHDRAWAL BY SUBJECT","death":false,"exposure_days":11},"timeline":[{"dtc":"2024-01-20","dy":"-31","event":"INFORMED CONSENT OBTAINED","domain":"DS","category":"milestone"},{"dtc":"2024-02-20","dy":"1","event":"RANDOMIZED","domain":"DS","category":"milestone"},{"dtc":"2024-02-20","dy":"1","event":"VISIT: ENROLLMENT","domain":"SV","category":"visit"},{"dtc":"2024-02-21","dy":"2","event":"FIRST DOSE: MIDAZOLAM","domain":"EX","category":"exposure"},{"dtc":"2024-03-03","dy":"13","event":"LAST DOSE: MIDAZOLAM","domain":"EX","category":"exposure"},{"dtc":"2024-03-04","dy":"14","event":"WITHDRAWAL BY SUBJECT","domain":"DS","category":"milestone"}],"section_1_demographics":{"usubjid":"P261-402-USL261-USA_SITE01-0019","subjid":"0019","siteid":"USA_SITE01","age":"19","ageu":"YEARS","sex":"M","race":"WHITE","ethnicity":"NOT HISPANIC OR LATINO","country":"USA","arm":"USL261 5 mg intranasal PRN per seizure cluster","armcd":"USL261","actarm":"USL261 5 mg intranasal PRN per seizure cluster","actarmcd":"USL261","randomization_date":null,"informed_consent_date":"2024-01-20","reference_start_date":"2024-02-20","reference_end_date":"2024-03-04","screen_failure":false,"death_flag":null,"death_date":null,"subject_characteristics":[{"testcd":"ALCUSE","test":"Alcohol Use","orres":"NON-DRINKER","stresc":"NON-DRINKER","visit":null,"dtc":"2024-01-20"},{"testcd":"BMI","test":"Body Mass Index","orres":"16.4","stresc":"16.4","visit":null,"dtc":"2024-01-20"},{"testcd":"DURDIS","test":"Duration of Disease","orres":"267 months","stresc":"267","visit":null,"dtc":"2024-01-20"},{"testcd":"TOBPKYR","test":"Tobacco Pack-Years","orres":"15","stresc":"15","visit":null,"dtc":"2024-01-20"},{"testcd":"TOBUSE","test":"Tobacco Use","orres":"CURRENT SMOKER","stresc":"CURRENT SMOKER","visit":null,"dtc":"2024-01-20"}]},"section_2_medical_history":{"items":[{"seq":"1","term":"ASTHMA","decod":"ASTHMA","cat":"RESPIRATORY","scat":null,"presp":null,"occur":null,"status":null,"onset_dtc":"2015-01-22","end_dtc":"2021-11-10","visit":null},{"seq":"2","term":"GASTROESOPHAGEAL REFLUX DISEASE","decod":"GASTROESOPHAGEAL REFLUX DISEASE","cat":"GASTROINTESTINAL","scat":null,"presp":null,"occur":null,"status":null,"onset_dtc":"2002-01-25","end_dtc":"2016-09-10","visit":null},{"seq":"3","term":"HYPERLIPIDEMIA","decod":"HYPERLIPIDEMIA","cat":"METABOLIC","scat":null,"presp":null,"occur":null,"status":null,"onset_dtc":"2007-01-24","end_dtc":null,"visit":null}]},"section_3_inclusion_exclusion":{"criteria":[]},"section_4_trial_participation":{"visits":[{"visitnum":"1.0","visit":"ENROLLMENT","start_dtc":"2024-02-20","end_dtc":"2024-02-20","updes":null}],"epochs":[{"seq":"1","etcd":"SCRN","element":"Enrollment (post P261-401)","start_dtc":"2024-02-06","end_dtc":"2024-02-20","updes":null},{"seq":"2","etcd":"TRT","element":"Treatment (long-term)","start_dtc":"2024-02-20","end_dtc":"2024-03-04","updes":null}],"visit_count":1},"section_5_concomitant_medications":{"medications":[]},"section_6_exposure":{"exposure_as_administered":[{"seq":"1","trt":"MIDAZOLAM","dose":"5.0","doseu":null,"dosef":"PRN","route":"NASAL","lot":null,"start_dtc":"2024-02-21","end_dtc":"2024-02-21","start_dy":"2","end_dy":"2","epoch":"TREATMENT","visit":null},{"seq":"2","trt":"MIDAZOLAM","dose":"5.0","doseu":null,"dosef":"PRN","route":"NASAL","lot":null,"start_dtc":"2024-02-23","end_dtc":"2024-02-23","start_dy":"4","end_dy":"4","epoch":"TREATMENT","visit":null},{"seq":"3","trt":"MIDAZOLAM","dose":"5.0","doseu":null,"dosef":"PRN","route":"NASAL","lot":null,"start_dtc":"2024-02-24","end_dtc":"2024-02-24","start_dy":"5","end_dy":"5","epoch":"TREATMENT","visit":null},{"seq":"4","trt":"MIDAZOLAM","dose":"5.0","doseu":null,"dosef":"PRN","route":"NASAL","lot":null,"start_dtc":"2024-02-26","end_dtc":"2024-02-26","start_dy":"7","end_dy":"7","epoch":"TREATMENT","visit":null},{"seq":"5","trt":"MIDAZOLAM","dose":"5.0","doseu":null,"dosef":"PRN","route":"NASAL","lot":null,"start_dtc":"2024-02-27","end_dtc":"2024-02-27","start_dy":"8","end_dy":"8","epoch":"TREATMENT","visit":null},{"seq":"6","trt":"MIDAZOLAM","dose":"5.0","doseu":null,"dosef":"PRN","route":"NASAL","lot":null,"start_dtc":"2024-02-29","end_dtc":"2024-02-29","start_dy":"10","end_dy":"10","epoch":"TREATMENT","visit":null},{"seq":"7","trt":"MIDAZOLAM","dose":"5.0","doseu":null,"dosef":"PRN","route":"NASAL","lot":null,"start_dtc":"2024-03-01","end_dtc":"2024-03-01","start_dy":"11","end_dy":"11","epoch":"TREATMENT","visit":null},{"seq":"8","trt":"MIDAZOLAM","dose":"5.0","doseu":null,"dosef":"PRN","route":"NASAL","lot":null,"start_dtc":"2024-03-03","end_dtc":"2024-03-03","start_dy":"13","end_dy":"13","epoch":"TREATMENT","visit":null}],"exposure_as_collected":[{"seq":"1","trt":"MIDAZOLAM","dose":"5.0","doseu":null,"dosef":"PRN","route":"NASAL","start_dtc":"2024-02-21","end_dtc":"2024-02-21","visit":"ENROLLMENT"},{"seq":"2","trt":"MIDAZOLAM","dose":"5.0","doseu":null,"dosef":"PRN","route":"NASAL","start_dtc":"2024-02-23","end_dtc":"2024-02-23","visit":"ENROLLMENT"},{"seq":"3","trt":"MIDAZOLAM","dose":"5.0","doseu":null,"dosef":"PRN","route":"NASAL","start_dtc":"2024-02-24","end_dtc":"2024-02-24","visit":null},{"seq":"4","trt":"MIDAZOLAM","dose":"5.0","doseu":null,"dosef":"PRN","route":"NASAL","start_dtc":"2024-02-26","end_dtc":"2024-02-26","visit":null},{"seq":"5","trt":"MIDAZOLAM","dose":"5.0","doseu":null,"dosef":"PRN","route":"NASAL","start_dtc":"2024-02-27","end_dtc":"2024-02-27","visit":null},{"seq":"6","trt":"MIDAZOLAM","dose":"5.0","doseu":null,"dosef":"PRN","route":"NASAL","start_dtc":"2024-02-29","end_dtc":"2024-02-29","visit":null},{"seq":"7","trt":"MIDAZOLAM","dose":"5.0","doseu":null,"dosef":"PRN","route":"NASAL","start_dtc":"2024-03-01","end_dtc":"2024-03-01","visit":null},{"seq":"8","trt":"MIDAZOLAM","dose":"5.0","doseu":null,"dosef":"PRN","route":"NASAL","start_dtc":"2024-03-03","end_dtc":"2024-03-03","visit":null}]},"section_7_adverse_events":{"summary":{"total_aes":0,"serious_aes":0,"fatal_aes":0,"by_severity":{},"by_soc":{}},"events":[]},"section_8_laboratory_results":{"summary":{"total_records":7,"abnormal_count":0,"abnormal_pct":0.0},"shift_summary":[],"results":[{"seq":"1","testcd":"ALT","test":"Alanine Aminotransferase","cat":"CHEMISTRY","orres":"37.0","orresu":"U/L","stresc":"37.0","stresn":"37.0","stresu":"U/L","stnrlo":"7","stnrhi":"56","nrind":"NORMAL","fast":null,"dtc":"2024-02-20","dy":"1","visit":"ENROLLMENT","visitnum":"1.0","epoch":"SCREENING","spec":null,"method":null},{"seq":"2","testcd":"AST","test":"Aspartate Aminotransferase","cat":"CHEMISTRY","orres":"23.64","orresu":"U/L","stresc":"23.64","stresn":"23.64","stresu":"U/L","stnrlo":"10","stnrhi":"40","nrind":"NORMAL","fast":null,"dtc":"2024-02-20","dy":"1","visit":"ENROLLMENT","visitnum":"1.0","epoch":"SCREENING","spec":null,"method":null},{"seq":"3","testcd":"CREAT","test":"Creatinine","cat":"CHEMISTRY","orres":"80.76","orresu":"umol/L","stresc":"80.76","stresn":"80.76","stresu":"umol/L","stnrlo":"62","stnrhi":"106","nrind":"NORMAL","fast":null,"dtc":"2024-02-20","dy":"1","visit":"ENROLLMENT","visitnum":"1.0","epoch":"SCREENING","spec":null,"method":null},{"seq":"4","testcd":"GLUC","test":"Glucose","cat":"CHEMISTRY","orres":"4.8","orresu":"mmol/L","stresc":"4.8","stresn":"4.8","stresu":"mmol/L","stnrlo":"3.9","stnrhi":"5.6","nrind":"NORMAL","fast":null,"dtc":"2024-02-20","dy":"1","visit":"ENROLLMENT","visitnum":"1.0","epoch":"SCREENING","spec":null,"method":null},{"seq":"5","testcd":"HGB","test":"Hemoglobin","cat":"HEMATOLOGY","orres":"135.14","orresu":"g/L","stresc":"135.14","stresn":"135.14","stresu":"g/L","stnrlo":"130","stnrhi":"175","nrind":"NORMAL","fast":null,"dtc":"2024-02-20","dy":"1","visit":"ENROLLMENT","visitnum":"1.0","epoch":"SCREENING","spec":null,"method":null},{"seq":"6","testcd":"PLAT","test":"Platelets","cat":"HEMATOLOGY","orres":"218.9","orresu":"10^9/L","stresc":"218.9","stresn":"218.9","stresu":"10^9/L","stnrlo":"150","stnrhi":"400","nrind":"NORMAL","fast":null,"dtc":"2024-02-20","dy":"1","visit":"ENROLLMENT","visitnum":"1.0","epoch":"SCREENING","spec":null,"method":null},{"seq":"7","testcd":"WBC","test":"Leukocytes","cat":"HEMATOLOGY","orres":"6.02","orresu":"10^9/L","stresc":"6.02","stresn":"6.02","stresu":"10^9/L","stnrlo":"4.0","stnrhi":"11.0","nrind":"NORMAL","fast":null,"dtc":"2024-02-20","dy":"1","visit":"ENROLLMENT","visitnum":"1.0","epoch":"SCREENING","spec":null,"method":null}]},"section_9_vital_signs":{"summary":{"total_records":8},"trends":{"BMI":[{"visit":"ENROLLMENT","visitnum":"1.0","dtc":"2024-02-20","value":"16.4","unit":"kg/m2"}],"DIABP":[{"visit":"ENROLLMENT","visitnum":"1.0","dtc":"2024-02-20","value":"67.6","unit":"mmHg"}],"HEIGHT":[{"visit":"ENROLLMENT","visitnum":"1.0","dtc":"2024-02-20","value":"175.0","unit":"cm"}],"PULSE":[{"visit":"ENROLLMENT","visitnum":"1.0","dtc":"2024-02-20","value":"64.3","unit":"beats/min"}],"RESP":[{"visit":"ENROLLMENT","visitnum":"1.0","dtc":"2024-02-20","value":"17.7","unit":"breaths/min"}],"SYSBP":[{"visit":"ENROLLMENT","visitnum":"1.0","dtc":"2024-02-20","value":"111.2","unit":"mmHg"}],"TEMP":[{"visit":"ENROLLMENT","visitnum":"1.0","dtc":"2024-02-20","value":"36.6","unit":"C"}],"WEIGHT":[{"visit":"ENROLLMENT","visitnum":"1.0","dtc":"2024-02-20","value":"50.2","unit":"kg"}]},"results":[{"seq":"1","testcd":"BMI","test":"BMI","cat":null,"orres":null,"orresu":null,"stresc":"16.4","stresn":"16.4","stresu":"kg/m2","stnrlo":null,"stnrhi":null,"nrind":null,"pos":null,"loc":null,"dtc":"2024-02-20","dy":"1","visit":"ENROLLMENT","visitnum":"1.0","epoch":"SCREENING"},{"seq":"2","testcd":"DIABP","test":"Diastolic Blood Pressure","cat":null,"orres":"67.6","orresu":"mmHg","stresc":"67.6","stresn":"67.6","stresu":"mmHg","stnrlo":null,"stnrhi":null,"nrind":null,"pos":null,"loc":null,"dtc":"2024-02-20","dy":"1","visit":"ENROLLMENT","visitnum":"1.0","epoch":"SCREENING"},{"seq":"3","testcd":"HEIGHT","test":"Height","cat":null,"orres":"175.0","orresu":"cm","stresc":"175.0","stresn":"175.0","stresu":"cm","stnrlo":null,"stnrhi":null,"nrind":null,"pos":null,"loc":null,"dtc":"2024-02-20","dy":"1","visit":"ENROLLMENT","visitnum":"1.0","epoch":"SCREENING"},{"seq":"4","testcd":"PULSE","test":"Pulse Rate","cat":null,"orres":"64.3","orresu":"beats/min","stresc":"64.3","stresn":"64.3","stresu":"beats/min","stnrlo":null,"stnrhi":null,"nrind":null,"pos":null,"loc":null,"dtc":"2024-02-20","dy":"1","visit":"ENROLLMENT","visitnum":"1.0","epoch":"SCREENING"},{"seq":"5","testcd":"RESP","test":"Respiratory Rate","cat":null,"orres":"17.7","orresu":"breaths/min","stresc":"17.7","stresn":"17.7","stresu":"breaths/min","stnrlo":null,"stnrhi":null,"nrind":null,"pos":null,"loc":null,"dtc":"2024-02-20","dy":"1","visit":"ENROLLMENT","visitnum":"1.0","epoch":"SCREENING"},{"seq":"6","testcd":"SYSBP","test":"Systolic Blood Pressure","cat":null,"orres":"111.2","orresu":"mmHg","stresc":"111.2","stresn":"111.2","stresu":"mmHg","stnrlo":null,"stnrhi":null,"nrind":null,"pos":null,"loc":null,"dtc":"2024-02-20","dy":"1","visit":"ENROLLMENT","visitnum":"1.0","epoch":"SCREENING"},{"seq":"7","testcd":"TEMP","test":"Temperature","cat":null,"orres":"36.6","orresu":"C","stresc":"36.6","stresn":"36.6","stresu":"C","stnrlo":null,"stnrhi":null,"nrind":null,"pos":null,"loc":null,"dtc":"2024-02-20","dy":"1","visit":"ENROLLMENT","visitnum":"1.0","epoch":"SCREENING"},{"seq":"8","testcd":"WEIGHT","test":"Weight","cat":null,"orres":"50.2","orresu":"kg","stresc":"50.2","stresn":"50.2","stresu":"kg","stnrlo":null,"stnrhi":null,"nrind":null,"pos":null,"loc":null,"dtc":"2024-02-20","dy":"1","visit":"ENROLLMENT","visitnum":"1.0","epoch":"SCREENING"}]},"section_10_questionnaires_and_scores":{"questionnaires":[],"findings_about":[]},"section_11_protocol_deviations":{"deviations":[],"total":0},"section_12_disposition":{"completion_status":"INFORMED CONSENT OBTAINED","disposition_records":[{"seq":"1","term":"INFORMED CONSENT OBTAINED","decod":"INFORMED CONSENT OBTAINED","cat":"PROTOCOL MILESTONE","scat":null,"dtc":"2024-01-20","dy":null,"visit":null,"epoch":"SCREENING"},{"seq":"2","term":"RANDOMIZED","decod":"RANDOMIZED","cat":"PROTOCOL MILESTONE","scat":null,"dtc":"2024-02-20","dy":null,"visit":null,"epoch":"TREATMENT"},{"seq":"3","term":"WITHDRAWAL BY SUBJECT","decod":"WITHDRAWAL BY SUBJECT","cat":"DISPOSITION EVENT","scat":null,"dtc":"2024-03-04","dy":null,"visit":null,"epoch":"TREATMENT"}],"death":null},"section_13_hospitalizations":{"items":[],"total":0},"section_14_substance_use":{"items":[{"seq":"1","substance":"BEER/WINE/SPIRITS","decod":"ETHANOL","cat":"ALCOHOL","scat":null,"usage":"Y","dose":"5.0","dosu":"DRINKS/WEEK","freq":"QW","start_dtc":"2008-01-24","end_dtc":null},{"seq":"2","substance":"COFFEE","decod":"COFFEE","cat":"CAFFEINE","scat":null,"usage":"Y","dose":"4.0","dosu":"CUPS/DAY","freq":"QD","start_dtc":"1994-01-27","end_dtc":null},{"seq":"3","substance":"CIGARETTES","decod":"CIGARETTES","cat":"TOBACCO","scat":null,"usage":"Y","dose":"27.0","dosu":"CIGARETTES/DAY","freq":"QD","start_dtc":"2017-01-21","end_dtc":null}],"total":3},"section_15_subject_status":{"items":[{"seq":"1","testcd":"SURVSTAT","test":"Survival Status","orres":"ALIVE","stresc":"ALIVE","dtc":"2024-03-04","visit":null,"epoch":"FOLLOW-UP"}],"total":1}}