STUDYID,DOMAIN,USUBJID,DASEQ,DATESTCD,DATEST,DAORRES,DAORRESU,DASTRESC,DASTRESN,DASTRESU,VISITNUM,VISIT,EPOCH,DADTC,DADY
I8F-JE-GPGO-SURPASS,DA,I8F-JE-GPGO-SURPASS-JPN_FUKUOKA01-0005,1,DISPAMT,Dispensed Amount,1.0,VIAL,1.0,1.0,VIAL,2.0,BASELINE,TREATMENT,2024-04-11,1
I8F-JE-GPGO-SURPASS,DA,I8F-JE-GPGO-SURPASS-JPN_FUKUOKA01-0005,2,DISPAMT,Dispensed Amount,1.0,VIAL,1.0,1.0,VIAL,2.0,,TREATMENT,2024-04-18,8
I8F-JE-GPGO-SURPASS,DA,I8F-JE-GPGO-SURPASS-JPN_FUKUOKA01-0005,3,REMAMT,Remaining Amount,0.0,VIAL,0.0,0.0,VIAL,2.0,BASELINE,TREATMENT,2024-04-11,1
I8F-JE-GPGO-SURPASS,DA,I8F-JE-GPGO-SURPASS-JPN_FUKUOKA01-0005,4,REMAMT,Remaining Amount,0.0,VIAL,0.0,0.0,VIAL,2.0,,TREATMENT,2024-04-18,8
I8F-JE-GPGO-SURPASS,DA,I8F-JE-GPGO-SURPASS-JPN_FUKUOKA01-0005,5,RETAMT,Returned Amount,0.0,VIAL,0.0,0.0,VIAL,2.0,BASELINE,TREATMENT,2024-04-11,1
I8F-JE-GPGO-SURPASS,DA,I8F-JE-GPGO-SURPASS-JPN_FUKUOKA01-0005,6,RETAMT,Returned Amount,0.0,VIAL,0.0,0.0,VIAL,2.0,,TREATMENT,2024-04-18,8
I8F-JE-GPGO-SURPASS,DA,I8F-JE-GPGO-SURPASS-JPN_FUKUOKA01-0005,7,DISPAMT,Dispensed Amount,1.0,VIAL,1.0,1.0,VIAL,3.0,,TREATMENT,2024-04-25,15
I8F-JE-GPGO-SURPASS,DA,I8F-JE-GPGO-SURPASS-JPN_FUKUOKA01-0005,8,DISPAMT,Dispensed Amount,1.0,VIAL,1.0,1.0,VIAL,3.0,WEEK 4,TREATMENT,2024-05-09,29
I8F-JE-GPGO-SURPASS,DA,I8F-JE-GPGO-SURPASS-JPN_FUKUOKA01-0005,9,REMAMT,Remaining Amount,0.0,VIAL,0.0,0.0,VIAL,3.0,,TREATMENT,2024-04-25,15
I8F-JE-GPGO-SURPASS,DA,I8F-JE-GPGO-SURPASS-JPN_FUKUOKA01-0005,10,REMAMT,Remaining Amount,0.0,VIAL,0.0,0.0,VIAL,3.0,WEEK 4,TREATMENT,2024-05-09,29
I8F-JE-GPGO-SURPASS,DA,I8F-JE-GPGO-SURPASS-JPN_FUKUOKA01-0005,11,RETAMT,Returned Amount,0.0,VIAL,0.0,0.0,VIAL,3.0,,TREATMENT,2024-04-25,15
I8F-JE-GPGO-SURPASS,DA,I8F-JE-GPGO-SURPASS-JPN_FUKUOKA01-0005,12,RETAMT,Returned Amount,0.0,VIAL,0.0,0.0,VIAL,3.0,WEEK 4,TREATMENT,2024-05-09,29
I8F-JE-GPGO-SURPASS,DA,I8F-JE-GPGO-SURPASS-JPN_FUKUOKA01-0005,13,DISPAMT,Dispensed Amount,1.0,VIAL,1.0,1.0,VIAL,4.0,,TREATMENT,2024-05-02,22
I8F-JE-GPGO-SURPASS,DA,I8F-JE-GPGO-SURPASS-JPN_FUKUOKA01-0005,14,REMAMT,Remaining Amount,0.0,VIAL,0.0,0.0,VIAL,4.0,,TREATMENT,2024-05-02,22
I8F-JE-GPGO-SURPASS,DA,I8F-JE-GPGO-SURPASS-JPN_FUKUOKA01-0005,15,RETAMT,Returned Amount,0.0,VIAL,0.0,0.0,VIAL,4.0,,TREATMENT,2024-05-02,22
I8F-JE-GPGO-SURPASS,DA,I8F-JE-GPGO-SURPASS-JPN_FUKUOKA01-0010,1,DISPAMT,Dispensed Amount,1.0,VIAL,1.0,1.0,VIAL,2.0,BASELINE,TREATMENT,2024-03-24,1
I8F-JE-GPGO-SURPASS,DA,I8F-JE-GPGO-SURPASS-JPN_FUKUOKA01-0010,2,DISPAMT,Dispensed Amount,1.0,VIAL,1.0,1.0,VIAL,2.0,,TREATMENT,2024-03-31,8
I8F-JE-GPGO-SURPASS,DA,I8F-JE-GPGO-SURPASS-JPN_FUKUOKA01-0010,3,REMAMT,Remaining Amount,0.0,VIAL,0.0,0.0,VIAL,2.0,BASELINE,TREATMENT,2024-03-24,1
I8F-JE-GPGO-SURPASS,DA,I8F-JE-GPGO-SURPASS-JPN_FUKUOKA01-0010,4,REMAMT,Remaining Amount,0.0,VIAL,0.0,0.0,VIAL,2.0,,TREATMENT,2024-03-31,8
I8F-JE-GPGO-SURPASS,DA,I8F-JE-GPGO-SURPASS-JPN_FUKUOKA01-0010,5,RETAMT,Returned Amount,0.0,VIAL,0.0,0.0,VIAL,2.0,BASELINE,TREATMENT,2024-03-24,1
I8F-JE-GPGO-SURPASS,DA,I8F-JE-GPGO-SURPASS-JPN_FUKUOKA01-0010,6,RETAMT,Returned Amount,0.0,VIAL,0.0,0.0,VIAL,2.0,,TREATMENT,2024-03-31,8
I8F-JE-GPGO-SURPASS,DA,I8F-JE-GPGO-SURPASS-JPN_FUKUOKA01-0010,7,DISPAMT,Dispensed Amount,1.0,VIAL,1.0,1.0,VIAL,3.0,,TREATMENT,2024-04-07,15
I8F-JE-GPGO-SURPASS,DA,I8F-JE-GPGO-SURPASS-JPN_FUKUOKA01-0010,8,DISPAMT,Dispensed Amount,1.0,VIAL,1.0,1.0,VIAL,3.0,WEEK 4,TREATMENT,2024-04-21,29
I8F-JE-GPGO-SURPASS,DA,I8F-JE-GPGO-SURPASS-JPN_FUKUOKA01-0010,9,REMAMT,Remaining Amount,1.0,VIAL,1.0,1.0,VIAL,3.0,,TREATMENT,2024-04-07,15
I8F-JE-GPGO-SURPASS,DA,I8F-JE-GPGO-SURPASS-JPN_FUKUOKA01-0010,10,REMAMT,Remaining Amount,0.0,VIAL,0.0,0.0,VIAL,3.0,WEEK 4,TREATMENT,2024-04-21,29
I8F-JE-GPGO-SURPASS,DA,I8F-JE-GPGO-SURPASS-JPN_FUKUOKA01-0010,11,RETAMT,Returned Amount,1.0,VIAL,1.0,1.0,VIAL,3.0,,TREATMENT,2024-04-07,15
I8F-JE-GPGO-SURPASS,DA,I8F-JE-GPGO-SURPASS-JPN_FUKUOKA01-0010,12,RETAMT,Returned Amount,0.0,VIAL,0.0,0.0,VIAL,3.0,WEEK 4,TREATMENT,2024-04-21,29
I8F-JE-GPGO-SURPASS,DA,I8F-JE-GPGO-SURPASS-JPN_FUKUOKA01-0010,13,DISPAMT,Dispensed Amount,1.0,VIAL,1.0,1.0,VIAL,4.0,,TREATMENT,2024-04-14,22
I8F-JE-GPGO-SURPASS,DA,I8F-JE-GPGO-SURPASS-JPN_FUKUOKA01-0010,14,DISPAMT,Dispensed Amount,1.0,VIAL,1.0,1.0,VIAL,4.0,WEEK 8,TREATMENT,2024-05-19,57
I8F-JE-GPGO-SURPASS,DA,I8F-JE-GPGO-SURPASS-JPN_FUKUOKA01-0010,15,REMAMT,Remaining Amount,0.0,VIAL,0.0,0.0,VIAL,4.0,,TREATMENT,2024-04-14,22
I8F-JE-GPGO-SURPASS,DA,I8F-JE-GPGO-SURPASS-JPN_FUKUOKA01-0010,16,REMAMT,Remaining Amount,0.0,VIAL,0.0,0.0,VIAL,4.0,WEEK 8,TREATMENT,2024-05-19,57
I8F-JE-GPGO-SURPASS,DA,I8F-JE-GPGO-SURPASS-JPN_FUKUOKA01-0010,17,RETAMT,Returned Amount,0.0,VIAL,0.0,0.0,VIAL,4.0,,TREATMENT,2024-04-14,22
I8F-JE-GPGO-SURPASS,DA,I8F-JE-GPGO-SURPASS-JPN_FUKUOKA01-0010,18,RETAMT,Returned Amount,0.0,VIAL,0.0,0.0,VIAL,4.0,WEEK 8,TREATMENT,2024-05-19,57
I8F-JE-GPGO-SURPASS,DA,I8F-JE-GPGO-SURPASS-JPN_FUKUOKA01-0010,19,DISPAMT,Dispensed Amount,1.0,VIAL,1.0,1.0,VIAL,5.0,WEEK 12,TREATMENT,2024-06-16,85
I8F-JE-GPGO-SURPASS,DA,I8F-JE-GPGO-SURPASS-JPN_FUKUOKA01-0010,20,REMAMT,Remaining Amount,1.0,VIAL,1.0,1.0,VIAL,5.0,WEEK 12,TREATMENT,2024-06-16,85
I8F-JE-GPGO-SURPASS,DA,I8F-JE-GPGO-SURPASS-JPN_FUKUOKA01-0010,21,RETAMT,Returned Amount,1.0,VIAL,1.0,1.0,VIAL,5.0,WEEK 12,TREATMENT,2024-06-16,85
I8F-JE-GPGO-SURPASS,DA,I8F-JE-GPGO-SURPASS-JPN_FUKUOKA01-0010,22,DISPAMT,Dispensed Amount,1.0,VIAL,1.0,1.0,VIAL,6.0,,TREATMENT,2024-04-28,36
I8F-JE-GPGO-SURPASS,DA,I8F-JE-GPGO-SURPASS-JPN_FUKUOKA01-0010,23,DISPAMT,Dispensed Amount,1.0,VIAL,1.0,1.0,VIAL,6.0,WEEK 16,TREATMENT,2024-07-14,113
I8F-JE-GPGO-SURPASS,DA,I8F-JE-GPGO-SURPASS-JPN_FUKUOKA01-0010,24,REMAMT,Remaining Amount,0.0,VIAL,0.0,0.0,VIAL,6.0,,TREATMENT,2024-04-28,36
I8F-JE-GPGO-SURPASS,DA,I8F-JE-GPGO-SURPASS-JPN_FUKUOKA01-0010,25,REMAMT,Remaining Amount,0.0,VIAL,0.0,0.0,VIAL,6.0,WEEK 16,TREATMENT,2024-07-14,113
I8F-JE-GPGO-SURPASS,DA,I8F-JE-GPGO-SURPASS-JPN_FUKUOKA01-0010,26,RETAMT,Returned Amount,0.0,VIAL,0.0,0.0,VIAL,6.0,,TREATMENT,2024-04-28,36
I8F-JE-GPGO-SURPASS,DA,I8F-JE-GPGO-SURPASS-JPN_FUKUOKA01-0010,27,RETAMT,Returned Amount,0.0,VIAL,0.0,0.0,VIAL,6.0,WEEK 16,TREATMENT,2024-07-14,113
I8F-JE-GPGO-SURPASS,DA,I8F-JE-GPGO-SURPASS-JPN_FUKUOKA01-0010,28,DISPAMT,Dispensed Amount,1.0,VIAL,1.0,1.0,VIAL,7.0,,TREATMENT,2024-05-05,43
I8F-JE-GPGO-SURPASS,DA,I8F-JE-GPGO-SURPASS-JPN_FUKUOKA01-0010,29,DISPAMT,Dispensed Amount,1.0,VIAL,1.0,1.0,VIAL,7.0,WEEK 20,TREATMENT,2024-08-11,141
I8F-JE-GPGO-SURPASS,DA,I8F-JE-GPGO-SURPASS-JPN_FUKUOKA01-0010,30,REMAMT,Remaining Amount,0.0,VIAL,0.0,0.0,VIAL,7.0,,TREATMENT,2024-05-05,43
I8F-JE-GPGO-SURPASS,DA,I8F-JE-GPGO-SURPASS-JPN_FUKUOKA01-0010,31,REMAMT,Remaining Amount,0.0,VIAL,0.0,0.0,VIAL,7.0,WEEK 20,TREATMENT,2024-08-11,141
I8F-JE-GPGO-SURPASS,DA,I8F-JE-GPGO-SURPASS-JPN_FUKUOKA01-0010,32,RETAMT,Returned Amount,0.0,VIAL,0.0,0.0,VIAL,7.0,,TREATMENT,2024-05-05,43
I8F-JE-GPGO-SURPASS,DA,I8F-JE-GPGO-SURPASS-JPN_FUKUOKA01-0010,33,RETAMT,Returned Amount,0.0,VIAL,0.0,0.0,VIAL,7.0,WEEK 20,TREATMENT,2024-08-11,141
I8F-JE-GPGO-SURPASS,DA,I8F-JE-GPGO-SURPASS-JPN_FUKUOKA01-0010,34,DISPAMT,Dispensed Amount,1.0,VIAL,1.0,1.0,VIAL,8.0,,TREATMENT,2024-05-12,50
I8F-JE-GPGO-SURPASS,DA,I8F-JE-GPGO-SURPASS-JPN_FUKUOKA01-0010,35,DISPAMT,Dispensed Amount,1.0,VIAL,1.0,1.0,VIAL,8.0,WEEK 24,TREATMENT,2024-09-08,169
I8F-JE-GPGO-SURPASS,DA,I8F-JE-GPGO-SURPASS-JPN_FUKUOKA01-0010,36,REMAMT,Remaining Amount,0.0,VIAL,0.0,0.0,VIAL,8.0,,TREATMENT,2024-05-12,50
I8F-JE-GPGO-SURPASS,DA,I8F-JE-GPGO-SURPASS-JPN_FUKUOKA01-0010,37,REMAMT,Remaining Amount,1.0,VIAL,1.0,1.0,VIAL,8.0,WEEK 24,TREATMENT,2024-09-08,169
I8F-JE-GPGO-SURPASS,DA,I8F-JE-GPGO-SURPASS-JPN_FUKUOKA01-0010,38,RETAMT,Returned Amount,0.0,VIAL,0.0,0.0,VIAL,8.0,,TREATMENT,2024-05-12,50
I8F-JE-GPGO-SURPASS,DA,I8F-JE-GPGO-SURPASS-JPN_FUKUOKA01-0010,39,RETAMT,Returned Amount,1.0,VIAL,1.0,1.0,VIAL,8.0,WEEK 24,TREATMENT,2024-09-08,169
I8F-JE-GPGO-SURPASS,DA,I8F-JE-GPGO-SURPASS-JPN_FUKUOKA01-0010,40,DISPAMT,Dispensed Amount,1.0,VIAL,1.0,1.0,VIAL,10.0,,TREATMENT,2024-05-26,64
I8F-JE-GPGO-SURPASS,DA,I8F-JE-GPGO-SURPASS-JPN_FUKUOKA01-0010,41,REMAMT,Remaining Amount,1.0,VIAL,1.0,1.0,VIAL,10.0,,TREATMENT,2024-05-26,64
I8F-JE-GPGO-SURPASS,DA,I8F-JE-GPGO-SURPASS-JPN_FUKUOKA01-0010,42,RETAMT,Returned Amount,1.0,VIAL,1.0,1.0,VIAL,10.0,,TREATMENT,2024-05-26,64
I8F-JE-GPGO-SURPASS,DA,I8F-JE-GPGO-SURPASS-JPN_FUKUOKA01-0010,43,DISPAMT,Dispensed Amount,1.0,VIAL,1.0,1.0,VIAL,11.0,,TREATMENT,2024-06-02,71
I8F-JE-GPGO-SURPASS,DA,I8F-JE-GPGO-SURPASS-JPN_FUKUOKA01-0010,44,REMAMT,Remaining Amount,0.0,VIAL,0.0,0.0,VIAL,11.0,,TREATMENT,2024-06-02,71
I8F-JE-GPGO-SURPASS,DA,I8F-JE-GPGO-SURPASS-JPN_FUKUOKA01-0010,45,RETAMT,Returned Amount,0.0,VIAL,0.0,0.0,VIAL,11.0,,TREATMENT,2024-06-02,71
I8F-JE-GPGO-SURPASS,DA,I8F-JE-GPGO-SURPASS-JPN_FUKUOKA01-0010,46,DISPAMT,Dispensed Amount,1.0,VIAL,1.0,1.0,VIAL,12.0,,TREATMENT,2024-06-09,78
I8F-JE-GPGO-SURPASS,DA,I8F-JE-GPGO-SURPASS-JPN_FUKUOKA01-0010,47,REMAMT,Remaining Amount,0.0,VIAL,0.0,0.0,VIAL,12.0,,TREATMENT,2024-06-09,78
I8F-JE-GPGO-SURPASS,DA,I8F-JE-GPGO-SURPASS-JPN_FUKUOKA01-0010,48,RETAMT,Returned Amount,0.0,VIAL,0.0,0.0,VIAL,12.0,,TREATMENT,2024-06-09,78
I8F-JE-GPGO-SURPASS,DA,I8F-JE-GPGO-SURPASS-JPN_FUKUOKA01-0010,49,DISPAMT,Dispensed Amount,1.0,VIAL,1.0,1.0,VIAL,14.0,,TREATMENT,2024-06-23,92
I8F-JE-GPGO-SURPASS,DA,I8F-JE-GPGO-SURPASS-JPN_FUKUOKA01-0010,50,REMAMT,Remaining Amount,0.0,VIAL,0.0,0.0,VIAL,14.0,,TREATMENT,2024-06-23,92
I8F-JE-GPGO-SURPASS,DA,I8F-JE-GPGO-SURPASS-JPN_FUKUOKA01-0010,51,RETAMT,Returned Amount,0.0,VIAL,0.0,0.0,VIAL,14.0,,TREATMENT,2024-06-23,92
I8F-JE-GPGO-SURPASS,DA,I8F-JE-GPGO-SURPASS-JPN_FUKUOKA01-0010,52,DISPAMT,Dispensed Amount,1.0,VIAL,1.0,1.0,VIAL,15.0,,TREATMENT,2024-06-30,99
I8F-JE-GPGO-SURPASS,DA,I8F-JE-GPGO-SURPASS-JPN_FUKUOKA01-0010,53,REMAMT,Remaining Amount,0.0,VIAL,0.0,0.0,VIAL,15.0,,TREATMENT,2024-06-30,99
I8F-JE-GPGO-SURPASS,DA,I8F-JE-GPGO-SURPASS-JPN_FUKUOKA01-0010,54,RETAMT,Returned Amount,0.0,VIAL,0.0,0.0,VIAL,15.0,,TREATMENT,2024-06-30,99
I8F-JE-GPGO-SURPASS,DA,I8F-JE-GPGO-SURPASS-JPN_FUKUOKA01-0010,55,DISPAMT,Dispensed Amount,1.0,VIAL,1.0,1.0,VIAL,16.0,,TREATMENT,2024-07-07,106
I8F-JE-GPGO-SURPASS,DA,I8F-JE-GPGO-SURPASS-JPN_FUKUOKA01-0010,56,REMAMT,Remaining Amount,0.0,VIAL,0.0,0.0,VIAL,16.0,,TREATMENT,2024-07-07,106
I8F-JE-GPGO-SURPASS,DA,I8F-JE-GPGO-SURPASS-JPN_FUKUOKA01-0010,57,RETAMT,Returned Amount,0.0,VIAL,0.0,0.0,VIAL,16.0,,TREATMENT,2024-07-07,106
I8F-JE-GPGO-SURPASS,DA,I8F-JE-GPGO-SURPASS-JPN_FUKUOKA01-0010,58,DISPAMT,Dispensed Amount,1.0,VIAL,1.0,1.0,VIAL,18.0,,TREATMENT,2024-07-21,120
I8F-JE-GPGO-SURPASS,DA,I8F-JE-GPGO-SURPASS-JPN_FUKUOKA01-0010,59,REMAMT,Remaining Amount,0.0,VIAL,0.0,0.0,VIAL,18.0,,TREATMENT,2024-07-21,120
I8F-JE-GPGO-SURPASS,DA,I8F-JE-GPGO-SURPASS-JPN_FUKUOKA01-0010,60,RETAMT,Returned Amount,0.0,VIAL,0.0,0.0,VIAL,18.0,,TREATMENT,2024-07-21,120
I8F-JE-GPGO-SURPASS,DA,I8F-JE-GPGO-SURPASS-JPN_FUKUOKA01-0010,61,DISPAMT,Dispensed Amount,1.0,VIAL,1.0,1.0,VIAL,19.0,,TREATMENT,2024-07-28,127
I8F-JE-GPGO-SURPASS,DA,I8F-JE-GPGO-SURPASS-JPN_FUKUOKA01-0010,62,REMAMT,Remaining Amount,1.0,VIAL,1.0,1.0,VIAL,19.0,,TREATMENT,2024-07-28,127
I8F-JE-GPGO-SURPASS,DA,I8F-JE-GPGO-SURPASS-JPN_FUKUOKA01-0010,63,RETAMT,Returned Amount,1.0,VIAL,1.0,1.0,VIAL,19.0,,TREATMENT,2024-07-28,127
I8F-JE-GPGO-SURPASS,DA,I8F-JE-GPGO-SURPASS-JPN_FUKUOKA01-0010,64,DISPAMT,Dispensed Amount,1.0,VIAL,1.0,1.0,VIAL,20.0,,TREATMENT,2024-08-04,134
I8F-JE-GPGO-SURPASS,DA,I8F-JE-GPGO-SURPASS-JPN_FUKUOKA01-0010,65,REMAMT,Remaining Amount,0.0,VIAL,0.0,0.0,VIAL,20.0,,TREATMENT,2024-08-04,134
I8F-JE-GPGO-SURPASS,DA,I8F-JE-GPGO-SURPASS-JPN_FUKUOKA01-0010,66,RETAMT,Returned Amount,0.0,VIAL,0.0,0.0,VIAL,20.0,,TREATMENT,2024-08-04,134
I8F-JE-GPGO-SURPASS,DA,I8F-JE-GPGO-SURPASS-JPN_FUKUOKA01-0010,67,DISPAMT,Dispensed Amount,1.0,VIAL,1.0,1.0,VIAL,22.0,,TREATMENT,2024-08-18,148
I8F-JE-GPGO-SURPASS,DA,I8F-JE-GPGO-SURPASS-JPN_FUKUOKA01-0010,68,REMAMT,Remaining Amount,0.0,VIAL,0.0,0.0,VIAL,22.0,,TREATMENT,2024-08-18,148
I8F-JE-GPGO-SURPASS,DA,I8F-JE-GPGO-SURPASS-JPN_FUKUOKA01-0010,69,RETAMT,Returned Amount,0.0,VIAL,0.0,0.0,VIAL,22.0,,TREATMENT,2024-08-18,148
I8F-JE-GPGO-SURPASS,DA,I8F-JE-GPGO-SURPASS-JPN_FUKUOKA01-0010,70,DISPAMT,Dispensed Amount,1.0,VIAL,1.0,1.0,VIAL,23.0,,TREATMENT,2024-08-25,155
I8F-JE-GPGO-SURPASS,DA,I8F-JE-GPGO-SURPASS-JPN_FUKUOKA01-0010,71,REMAMT,Remaining Amount,0.0,VIAL,0.0,0.0,VIAL,23.0,,TREATMENT,2024-08-25,155
I8F-JE-GPGO-SURPASS,DA,I8F-JE-GPGO-SURPASS-JPN_FUKUOKA01-0010,72,RETAMT,Returned Amount,0.0,VIAL,0.0,0.0,VIAL,23.0,,TREATMENT,2024-08-25,155
I8F-JE-GPGO-SURPASS,DA,I8F-JE-GPGO-SURPASS-JPN_FUKUOKA01-0010,73,DISPAMT,Dispensed Amount,1.0,VIAL,1.0,1.0,VIAL,24.0,,TREATMENT,2024-09-01,162
I8F-JE-GPGO-SURPASS,DA,I8F-JE-GPGO-SURPASS-JPN_FUKUOKA01-0010,74,REMAMT,Remaining Amount,0.0,VIAL,0.0,0.0,VIAL,24.0,,TREATMENT,2024-09-01,162
I8F-JE-GPGO-SURPASS,DA,I8F-JE-GPGO-SURPASS-JPN_FUKUOKA01-0010,75,RETAMT,Returned Amount,0.0,VIAL,0.0,0.0,VIAL,24.0,,TREATMENT,2024-09-01,162
I8F-JE-GPGO-SURPASS,DA,I8F-JE-GPGO-SURPASS-JPN_FUKUOKA01-0010,76,DISPAMT,Dispensed Amount,1.0,VIAL,1.0,1.0,VIAL,26.0,,TREATMENT,2024-09-15,176
I8F-JE-GPGO-SURPASS,DA,I8F-JE-GPGO-SURPASS-JPN_FUKUOKA01-0010,77,REMAMT,Remaining Amount,1.0,VIAL,1.0,1.0,VIAL,26.0,,TREATMENT,2024-09-15,176
I8F-JE-GPGO-SURPASS,DA,I8F-JE-GPGO-SURPASS-JPN_FUKUOKA01-0010,78,RETAMT,Returned Amount,1.0,VIAL,1.0,1.0,VIAL,26.0,,TREATMENT,2024-09-15,176
I8F-JE-GPGO-SURPASS,DA,I8F-JE-GPGO-SURPASS-JPN_FUKUOKA01-0010,79,DISPAMT,Dispensed Amount,1.0,VIAL,1.0,1.0,VIAL,27.0,,TREATMENT,2024-09-22,183
I8F-JE-GPGO-SURPASS,DA,I8F-JE-GPGO-SURPASS-JPN_FUKUOKA01-0010,80,REMAMT,Remaining Amount,0.0,VIAL,0.0,0.0,VIAL,27.0,,TREATMENT,2024-09-22,183
I8F-JE-GPGO-SURPASS,DA,I8F-JE-GPGO-SURPASS-JPN_FUKUOKA01-0010,81,RETAMT,Returned Amount,0.0,VIAL,0.0,0.0,VIAL,27.0,,TREATMENT,2024-09-22,183
I8F-JE-GPGO-SURPASS,DA,I8F-JE-GPGO-SURPASS-JPN_FUKUOKA01-0013,1,DISPAMT,Dispensed Amount,1.0,VIAL,1.0,1.0,VIAL,2.0,BASELINE,TREATMENT,2024-03-26,1
I8F-JE-GPGO-SURPASS,DA,I8F-JE-GPGO-SURPASS-JPN_FUKUOKA01-0013,2,DISPAMT,Dispensed Amount,1.0,VIAL,1.0,1.0,VIAL,2.0,,TREATMENT,2024-04-02,8
I8F-JE-GPGO-SURPASS,DA,I8F-JE-GPGO-SURPASS-JPN_FUKUOKA01-0013,3,REMAMT,Remaining Amount,0.0,VIAL,0.0,0.0,VIAL,2.0,BASELINE,TREATMENT,2024-03-26,1
I8F-JE-GPGO-SURPASS,DA,I8F-JE-GPGO-SURPASS-JPN_FUKUOKA01-0013,4,REMAMT,Remaining Amount,0.0,VIAL,0.0,0.0,VIAL,2.0,,TREATMENT,2024-04-02,8
I8F-JE-GPGO-SURPASS,DA,I8F-JE-GPGO-SURPASS-JPN_FUKUOKA01-0013,5,RETAMT,Returned Amount,0.0,VIAL,0.0,0.0,VIAL,2.0,BASELINE,TREATMENT,2024-03-26,1
I8F-JE-GPGO-SURPASS,DA,I8F-JE-GPGO-SURPASS-JPN_FUKUOKA01-0013,6,RETAMT,Returned Amount,0.0,VIAL,0.0,0.0,VIAL,2.0,,TREATMENT,2024-04-02,8
I8F-JE-GPGO-SURPASS,DA,I8F-JE-GPGO-SURPASS-JPN_FUKUOKA01-0013,7,DISPAMT,Dispensed Amount,1.0,VIAL,1.0,1.0,VIAL,3.0,,TREATMENT,2024-04-09,15
I8F-JE-GPGO-SURPASS,DA,I8F-JE-GPGO-SURPASS-JPN_FUKUOKA01-0013,8,DISPAMT,Dispensed Amount,1.0,VIAL,1.0,1.0,VIAL,3.0,WEEK 4,TREATMENT,2024-04-23,29
I8F-JE-GPGO-SURPASS,DA,I8F-JE-GPGO-SURPASS-JPN_FUKUOKA01-0013,9,REMAMT,Remaining Amount,0.0,VIAL,0.0,0.0,VIAL,3.0,,TREATMENT,2024-04-09,15
I8F-JE-GPGO-SURPASS,DA,I8F-JE-GPGO-SURPASS-JPN_FUKUOKA01-0013,10,REMAMT,Remaining Amount,0.0,VIAL,0.0,0.0,VIAL,3.0,WEEK 4,TREATMENT,2024-04-23,29
I8F-JE-GPGO-SURPASS,DA,I8F-JE-GPGO-SURPASS-JPN_FUKUOKA01-0013,11,RETAMT,Returned Amount,0.0,VIAL,0.0,0.0,VIAL,3.0,,TREATMENT,2024-04-09,15
I8F-JE-GPGO-SURPASS,DA,I8F-JE-GPGO-SURPASS-JPN_FUKUOKA01-0013,12,RETAMT,Returned Amount,0.0,VIAL,0.0,0.0,VIAL,3.0,WEEK 4,TREATMENT,2024-04-23,29
I8F-JE-GPGO-SURPASS,DA,I8F-JE-GPGO-SURPASS-JPN_FUKUOKA01-0013,13,DISPAMT,Dispensed Amount,1.0,VIAL,1.0,1.0,VIAL,4.0,,TREATMENT,2024-04-16,22
I8F-JE-GPGO-SURPASS,DA,I8F-JE-GPGO-SURPASS-JPN_FUKUOKA01-0013,14,REMAMT,Remaining Amount,0.0,VIAL,0.0,0.0,VIAL,4.0,,TREATMENT,2024-04-16,22
I8F-JE-GPGO-SURPASS,DA,I8F-JE-GPGO-SURPASS-JPN_FUKUOKA01-0013,15,RETAMT,Returned Amount,0.0,VIAL,0.0,0.0,VIAL,4.0,,TREATMENT,2024-04-16,22
I8F-JE-GPGO-SURPASS,DA,I8F-JE-GPGO-SURPASS-JPN_FUKUOKA01-0013,16,DISPAMT,Dispensed Amount,1.0,VIAL,1.0,1.0,VIAL,6.0,,TREATMENT,2024-04-30,36
I8F-JE-GPGO-SURPASS,DA,I8F-JE-GPGO-SURPASS-JPN_FUKUOKA01-0013,17,REMAMT,Remaining Amount,0.0,VIAL,0.0,0.0,VIAL,6.0,,TREATMENT,2024-04-30,36
I8F-JE-GPGO-SURPASS,DA,I8F-JE-GPGO-SURPASS-JPN_FUKUOKA01-0013,18,RETAMT,Returned Amount,0.0,VIAL,0.0,0.0,VIAL,6.0,,TREATMENT,2024-04-30,36
I8F-JE-GPGO-SURPASS,DA,I8F-JE-GPGO-SURPASS-JPN_FUKUOKA01-0015,1,DISPAMT,Dispensed Amount,1.0,VIAL,1.0,1.0,VIAL,2.0,BASELINE,TREATMENT,2024-05-01,1
I8F-JE-GPGO-SURPASS,DA,I8F-JE-GPGO-SURPASS-JPN_FUKUOKA01-0015,2,DISPAMT,Dispensed Amount,1.0,VIAL,1.0,1.0,VIAL,2.0,,TREATMENT,2024-05-08,8
I8F-JE-GPGO-SURPASS,DA,I8F-JE-GPGO-SURPASS-JPN_FUKUOKA01-0015,3,REMAMT,Remaining Amount,0.0,VIAL,0.0,0.0,VIAL,2.0,BASELINE,TREATMENT,2024-05-01,1
I8F-JE-GPGO-SURPASS,DA,I8F-JE-GPGO-SURPASS-JPN_FUKUOKA01-0015,4,REMAMT,Remaining Amount,0.0,VIAL,0.0,0.0,VIAL,2.0,,TREATMENT,2024-05-08,8
I8F-JE-GPGO-SURPASS,DA,I8F-JE-GPGO-SURPASS-JPN_FUKUOKA01-0015,5,RETAMT,Returned Amount,0.0,VIAL,0.0,0.0,VIAL,2.0,BASELINE,TREATMENT,2024-05-01,1
I8F-JE-GPGO-SURPASS,DA,I8F-JE-GPGO-SURPASS-JPN_FUKUOKA01-0015,6,RETAMT,Returned Amount,0.0,VIAL,0.0,0.0,VIAL,2.0,,TREATMENT,2024-05-08,8
I8F-JE-GPGO-SURPASS,DA,I8F-JE-GPGO-SURPASS-JPN_FUKUOKA01-0015,7,DISPAMT,Dispensed Amount,1.0,VIAL,1.0,1.0,VIAL,3.0,,TREATMENT,2024-05-15,15
I8F-JE-GPGO-SURPASS,DA,I8F-JE-GPGO-SURPASS-JPN_FUKUOKA01-0015,8,DISPAMT,Dispensed Amount,1.0,VIAL,1.0,1.0,VIAL,3.0,WEEK 4,TREATMENT,2024-05-29,29
I8F-JE-GPGO-SURPASS,DA,I8F-JE-GPGO-SURPASS-JPN_FUKUOKA01-0015,9,REMAMT,Remaining Amount,0.0,VIAL,0.0,0.0,VIAL,3.0,,TREATMENT,2024-05-15,15
I8F-JE-GPGO-SURPASS,DA,I8F-JE-GPGO-SURPASS-JPN_FUKUOKA01-0015,10,REMAMT,Remaining Amount,0.0,VIAL,0.0,0.0,VIAL,3.0,WEEK 4,TREATMENT,2024-05-29,29
I8F-JE-GPGO-SURPASS,DA,I8F-JE-GPGO-SURPASS-JPN_FUKUOKA01-0015,11,RETAMT,Returned Amount,0.0,VIAL,0.0,0.0,VIAL,3.0,,TREATMENT,2024-05-15,15
I8F-JE-GPGO-SURPASS,DA,I8F-JE-GPGO-SURPASS-JPN_FUKUOKA01-0015,12,RETAMT,Returned Amount,0.0,VIAL,0.0,0.0,VIAL,3.0,WEEK 4,TREATMENT,2024-05-29,29
I8F-JE-GPGO-SURPASS,DA,I8F-JE-GPGO-SURPASS-JPN_FUKUOKA01-0015,13,DISPAMT,Dispensed Amount,1.0,VIAL,1.0,1.0,VIAL,4.0,,TREATMENT,2024-05-22,22
I8F-JE-GPGO-SURPASS,DA,I8F-JE-GPGO-SURPASS-JPN_FUKUOKA01-0015,14,DISPAMT,Dispensed Amount,1.0,VIAL,1.0,1.0,VIAL,4.0,WEEK 8,TREATMENT,2024-06-26,57
I8F-JE-GPGO-SURPASS,DA,I8F-JE-GPGO-SURPASS-JPN_FUKUOKA01-0015,15,REMAMT,Remaining Amount,0.0,VIAL,0.0,0.0,VIAL,4.0,,TREATMENT,2024-05-22,22
I8F-JE-GPGO-SURPASS,DA,I8F-JE-GPGO-SURPASS-JPN_FUKUOKA01-0015,16,REMAMT,Remaining Amount,0.0,VIAL,0.0,0.0,VIAL,4.0,WEEK 8,TREATMENT,2024-06-26,57
I8F-JE-GPGO-SURPASS,DA,I8F-JE-GPGO-SURPASS-JPN_FUKUOKA01-0015,17,RETAMT,Returned Amount,0.0,VIAL,0.0,0.0,VIAL,4.0,,TREATMENT,2024-05-22,22
I8F-JE-GPGO-SURPASS,DA,I8F-JE-GPGO-SURPASS-JPN_FUKUOKA01-0015,18,RETAMT,Returned Amount,0.0,VIAL,0.0,0.0,VIAL,4.0,WEEK 8,TREATMENT,2024-06-26,57
I8F-JE-GPGO-SURPASS,DA,I8F-JE-GPGO-SURPASS-JPN_FUKUOKA01-0015,19,DISPAMT,Dispensed Amount,1.0,VIAL,1.0,1.0,VIAL,5.0,WEEK 12,TREATMENT,2024-07-24,85
I8F-JE-GPGO-SURPASS,DA,I8F-JE-GPGO-SURPASS-JPN_FUKUOKA01-0015,20,REMAMT,Remaining Amount,0.0,VIAL,0.0,0.0,VIAL,5.0,WEEK 12,TREATMENT,2024-07-24,85
I8F-JE-GPGO-SURPASS,DA,I8F-JE-GPGO-SURPASS-JPN_FUKUOKA01-0015,21,RETAMT,Returned Amount,0.0,VIAL,0.0,0.0,VIAL,5.0,WEEK 12,TREATMENT,2024-07-24,85
I8F-JE-GPGO-SURPASS,DA,I8F-JE-GPGO-SURPASS-JPN_FUKUOKA01-0015,22,DISPAMT,Dispensed Amount,1.0,VIAL,1.0,1.0,VIAL,6.0,,TREATMENT,2024-06-05,36
I8F-JE-GPGO-SURPASS,DA,I8F-JE-GPGO-SURPASS-JPN_FUKUOKA01-0015,23,DISPAMT,Dispensed Amount,1.0,VIAL,1.0,1.0,VIAL,6.0,WEEK 16,TREATMENT,2024-08-21,113
I8F-JE-GPGO-SURPASS,DA,I8F-JE-GPGO-SURPASS-JPN_FUKUOKA01-0015,24,REMAMT,Remaining Amount,0.0,VIAL,0.0,0.0,VIAL,6.0,,TREATMENT,2024-06-05,36
I8F-JE-GPGO-SURPASS,DA,I8F-JE-GPGO-SURPASS-JPN_FUKUOKA01-0015,25,REMAMT,Remaining Amount,0.0,VIAL,0.0,0.0,VIAL,6.0,WEEK 16,TREATMENT,2024-08-21,113
I8F-JE-GPGO-SURPASS,DA,I8F-JE-GPGO-SURPASS-JPN_FUKUOKA01-0015,26,RETAMT,Returned Amount,0.0,VIAL,0.0,0.0,VIAL,6.0,,TREATMENT,2024-06-05,36
I8F-JE-GPGO-SURPASS,DA,I8F-JE-GPGO-SURPASS-JPN_FUKUOKA01-0015,27,RETAMT,Returned Amount,0.0,VIAL,0.0,0.0,VIAL,6.0,WEEK 16,TREATMENT,2024-08-21,113
I8F-JE-GPGO-SURPASS,DA,I8F-JE-GPGO-SURPASS-JPN_FUKUOKA01-0015,28,DISPAMT,Dispensed Amount,1.0,VIAL,1.0,1.0,VIAL,7.0,,TREATMENT,2024-06-12,43
I8F-JE-GPGO-SURPASS,DA,I8F-JE-GPGO-SURPASS-JPN_FUKUOKA01-0015,29,DISPAMT,Dispensed Amount,1.0,VIAL,1.0,1.0,VIAL,7.0,WEEK 20,TREATMENT,2024-09-18,141
I8F-JE-GPGO-SURPASS,DA,I8F-JE-GPGO-SURPASS-JPN_FUKUOKA01-0015,30,REMAMT,Remaining Amount,0.0,VIAL,0.0,0.0,VIAL,7.0,,TREATMENT,2024-06-12,43
I8F-JE-GPGO-SURPASS,DA,I8F-JE-GPGO-SURPASS-JPN_FUKUOKA01-0015,31,REMAMT,Remaining Amount,0.0,VIAL,0.0,0.0,VIAL,7.0,WEEK 20,TREATMENT,2024-09-18,141
I8F-JE-GPGO-SURPASS,DA,I8F-JE-GPGO-SURPASS-JPN_FUKUOKA01-0015,32,RETAMT,Returned Amount,0.0,VIAL,0.0,0.0,VIAL,7.0,,TREATMENT,2024-06-12,43
I8F-JE-GPGO-SURPASS,DA,I8F-JE-GPGO-SURPASS-JPN_FUKUOKA01-0015,33,RETAMT,Returned Amount,0.0,VIAL,0.0,0.0,VIAL,7.0,WEEK 20,TREATMENT,2024-09-18,141
I8F-JE-GPGO-SURPASS,DA,I8F-JE-GPGO-SURPASS-JPN_FUKUOKA01-0015,34,DISPAMT,Dispensed Amount,1.0,VIAL,1.0,1.0,VIAL,8.0,,TREATMENT,2024-06-19,50
I8F-JE-GPGO-SURPASS,DA,I8F-JE-GPGO-SURPASS-JPN_FUKUOKA01-0015,35,DISPAMT,Dispensed Amount,1.0,VIAL,1.0,1.0,VIAL,8.0,WEEK 24,TREATMENT,2024-10-16,169
I8F-JE-GPGO-SURPASS,DA,I8F-JE-GPGO-SURPASS-JPN_FUKUOKA01-0015,36,REMAMT,Remaining Amount,0.0,VIAL,0.0,0.0,VIAL,8.0,,TREATMENT,2024-06-19,50
I8F-JE-GPGO-SURPASS,DA,I8F-JE-GPGO-SURPASS-JPN_FUKUOKA01-0015,37,REMAMT,Remaining Amount,0.0,VIAL,0.0,0.0,VIAL,8.0,WEEK 24,TREATMENT,2024-10-16,169
I8F-JE-GPGO-SURPASS,DA,I8F-JE-GPGO-SURPASS-JPN_FUKUOKA01-0015,38,RETAMT,Returned Amount,0.0,VIAL,0.0,0.0,VIAL,8.0,,TREATMENT,2024-06-19,50
I8F-JE-GPGO-SURPASS,DA,I8F-JE-GPGO-SURPASS-JPN_FUKUOKA01-0015,39,RETAMT,Returned Amount,0.0,VIAL,0.0,0.0,VIAL,8.0,WEEK 24,TREATMENT,2024-10-16,169
I8F-JE-GPGO-SURPASS,DA,I8F-JE-GPGO-SURPASS-JPN_FUKUOKA01-0015,40,DISPAMT,Dispensed Amount,1.0,VIAL,1.0,1.0,VIAL,9.0,WEEK 32,TREATMENT,2024-12-11,225
I8F-JE-GPGO-SURPASS,DA,I8F-JE-GPGO-SURPASS-JPN_FUKUOKA01-0015,41,REMAMT,Remaining Amount,0.0,VIAL,0.0,0.0,VIAL,9.0,WEEK 32,TREATMENT,2024-12-11,225
I8F-JE-GPGO-SURPASS,DA,I8F-JE-GPGO-SURPASS-JPN_FUKUOKA01-0015,42,RETAMT,Returned Amount,0.0,VIAL,0.0,0.0,VIAL,9.0,WEEK 32,TREATMENT,2024-12-11,225
I8F-JE-GPGO-SURPASS,DA,I8F-JE-GPGO-SURPASS-JPN_FUKUOKA01-0015,43,DISPAMT,Dispensed Amount,1.0,VIAL,1.0,1.0,VIAL,10.0,,TREATMENT,2024-07-03,64
I8F-JE-GPGO-SURPASS,DA,I8F-JE-GPGO-SURPASS-JPN_FUKUOKA01-0015,44,DISPAMT,Dispensed Amount,1.0,VIAL,1.0,1.0,VIAL,10.0,WEEK 40,TREATMENT,2025-02-05,281
I8F-JE-GPGO-SURPASS,DA,I8F-JE-GPGO-SURPASS-JPN_FUKUOKA01-0015,45,REMAMT,Remaining Amount,0.0,VIAL,0.0,0.0,VIAL,10.0,,TREATMENT,2024-07-03,64
I8F-JE-GPGO-SURPASS,DA,I8F-JE-GPGO-SURPASS-JPN_FUKUOKA01-0015,46,REMAMT,Remaining Amount,0.0,VIAL,0.0,0.0,VIAL,10.0,WEEK 40,TREATMENT,2025-02-05,281
I8F-JE-GPGO-SURPASS,DA,I8F-JE-GPGO-SURPASS-JPN_FUKUOKA01-0015,47,RETAMT,Returned Amount,0.0,VIAL,0.0,0.0,VIAL,10.0,,TREATMENT,2024-07-03,64
I8F-JE-GPGO-SURPASS,DA,I8F-JE-GPGO-SURPASS-JPN_FUKUOKA01-0015,48,RETAMT,Returned Amount,0.0,VIAL,0.0,0.0,VIAL,10.0,WEEK 40,TREATMENT,2025-02-05,281
I8F-JE-GPGO-SURPASS,DA,I8F-JE-GPGO-SURPASS-JPN_FUKUOKA01-0015,49,DISPAMT,Dispensed Amount,1.0,VIAL,1.0,1.0,VIAL,11.0,,TREATMENT,2024-07-10,71
I8F-JE-GPGO-SURPASS,DA,I8F-JE-GPGO-SURPASS-JPN_FUKUOKA01-0015,50,REMAMT,Remaining Amount,0.0,VIAL,0.0,0.0,VIAL,11.0,,TREATMENT,2024-07-10,71
I8F-JE-GPGO-SURPASS,DA,I8F-JE-GPGO-SURPASS-JPN_FUKUOKA01-0015,51,RETAMT,Returned Amount,0.0,VIAL,0.0,0.0,VIAL,11.0,,TREATMENT,2024-07-10,71
I8F-JE-GPGO-SURPASS,DA,I8F-JE-GPGO-SURPASS-JPN_FUKUOKA01-0015,52,DISPAMT,Dispensed Amount,1.0,VIAL,1.0,1.0,VIAL,12.0,,TREATMENT,2024-07-17,78
I8F-JE-GPGO-SURPASS,DA,I8F-JE-GPGO-SURPASS-JPN_FUKUOKA01-0015,53,REMAMT,Remaining Amount,0.0,VIAL,0.0,0.0,VIAL,12.0,,TREATMENT,2024-07-17,78
I8F-JE-GPGO-SURPASS,DA,I8F-JE-GPGO-SURPASS-JPN_FUKUOKA01-0015,54,RETAMT,Returned Amount,0.0,VIAL,0.0,0.0,VIAL,12.0,,TREATMENT,2024-07-17,78
I8F-JE-GPGO-SURPASS,DA,I8F-JE-GPGO-SURPASS-JPN_FUKUOKA01-0015,55,DISPAMT,Dispensed Amount,1.0,VIAL,1.0,1.0,VIAL,14.0,,TREATMENT,2024-07-31,92
I8F-JE-GPGO-SURPASS,DA,I8F-JE-GPGO-SURPASS-JPN_FUKUOKA01-0015,56,REMAMT,Remaining Amount,0.0,VIAL,0.0,0.0,VIAL,14.0,,TREATMENT,2024-07-31,92
I8F-JE-GPGO-SURPASS,DA,I8F-JE-GPGO-SURPASS-JPN_FUKUOKA01-0015,57,RETAMT,Returned Amount,0.0,VIAL,0.0,0.0,VIAL,14.0,,TREATMENT,2024-07-31,92
I8F-JE-GPGO-SURPASS,DA,I8F-JE-GPGO-SURPASS-JPN_FUKUOKA01-0015,58,DISPAMT,Dispensed Amount,1.0,VIAL,1.0,1.0,VIAL,15.0,,TREATMENT,2024-08-07,99
I8F-JE-GPGO-SURPASS,DA,I8F-JE-GPGO-SURPASS-JPN_FUKUOKA01-0015,59,REMAMT,Remaining Amount,0.0,VIAL,0.0,0.0,VIAL,15.0,,TREATMENT,2024-08-07,99
I8F-JE-GPGO-SURPASS,DA,I8F-JE-GPGO-SURPASS-JPN_FUKUOKA01-0015,60,RETAMT,Returned Amount,0.0,VIAL,0.0,0.0,VIAL,15.0,,TREATMENT,2024-08-07,99
I8F-JE-GPGO-SURPASS,DA,I8F-JE-GPGO-SURPASS-JPN_FUKUOKA01-0015,61,DISPAMT,Dispensed Amount,1.0,VIAL,1.0,1.0,VIAL,16.0,,TREATMENT,2024-08-14,106
I8F-JE-GPGO-SURPASS,DA,I8F-JE-GPGO-SURPASS-JPN_FUKUOKA01-0015,62,REMAMT,Remaining Amount,0.0,VIAL,0.0,0.0,VIAL,16.0,,TREATMENT,2024-08-14,106
I8F-JE-GPGO-SURPASS,DA,I8F-JE-GPGO-SURPASS-JPN_FUKUOKA01-0015,63,RETAMT,Returned Amount,0.0,VIAL,0.0,0.0,VIAL,16.0,,TREATMENT,2024-08-14,106
I8F-JE-GPGO-SURPASS,DA,I8F-JE-GPGO-SURPASS-JPN_FUKUOKA01-0015,64,DISPAMT,Dispensed Amount,1.0,VIAL,1.0,1.0,VIAL,18.0,,TREATMENT,2024-08-28,120
I8F-JE-GPGO-SURPASS,DA,I8F-JE-GPGO-SURPASS-JPN_FUKUOKA01-0015,65,REMAMT,Remaining Amount,0.0,VIAL,0.0,0.0,VIAL,18.0,,TREATMENT,2024-08-28,120
I8F-JE-GPGO-SURPASS,DA,I8F-JE-GPGO-SURPASS-JPN_FUKUOKA01-0015,66,RETAMT,Returned Amount,0.0,VIAL,0.0,0.0,VIAL,18.0,,TREATMENT,2024-08-28,120
I8F-JE-GPGO-SURPASS,DA,I8F-JE-GPGO-SURPASS-JPN_FUKUOKA01-0015,67,DISPAMT,Dispensed Amount,1.0,VIAL,1.0,1.0,VIAL,19.0,,TREATMENT,2024-09-04,127
I8F-JE-GPGO-SURPASS,DA,I8F-JE-GPGO-SURPASS-JPN_FUKUOKA01-0015,68,REMAMT,Remaining Amount,0.0,VIAL,0.0,0.0,VIAL,19.0,,TREATMENT,2024-09-04,127
I8F-JE-GPGO-SURPASS,DA,I8F-JE-GPGO-SURPASS-JPN_FUKUOKA01-0015,69,RETAMT,Returned Amount,0.0,VIAL,0.0,0.0,VIAL,19.0,,TREATMENT,2024-09-04,127
I8F-JE-GPGO-SURPASS,DA,I8F-JE-GPGO-SURPASS-JPN_FUKUOKA01-0015,70,DISPAMT,Dispensed Amount,1.0,VIAL,1.0,1.0,VIAL,20.0,,TREATMENT,2024-09-11,134
I8F-JE-GPGO-SURPASS,DA,I8F-JE-GPGO-SURPASS-JPN_FUKUOKA01-0015,71,REMAMT,Remaining Amount,0.0,VIAL,0.0,0.0,VIAL,20.0,,TREATMENT,2024-09-11,134
I8F-JE-GPGO-SURPASS,DA,I8F-JE-GPGO-SURPASS-JPN_FUKUOKA01-0015,72,RETAMT,Returned Amount,0.0,VIAL,0.0,0.0,VIAL,20.0,,TREATMENT,2024-09-11,134
I8F-JE-GPGO-SURPASS,DA,I8F-JE-GPGO-SURPASS-JPN_FUKUOKA01-0015,73,DISPAMT,Dispensed Amount,1.0,VIAL,1.0,1.0,VIAL,22.0,,TREATMENT,2024-09-25,148
I8F-JE-GPGO-SURPASS,DA,I8F-JE-GPGO-SURPASS-JPN_FUKUOKA01-0015,74,REMAMT,Remaining Amount,0.0,VIAL,0.0,0.0,VIAL,22.0,,TREATMENT,2024-09-25,148
I8F-JE-GPGO-SURPASS,DA,I8F-JE-GPGO-SURPASS-JPN_FUKUOKA01-0015,75,RETAMT,Returned Amount,0.0,VIAL,0.0,0.0,VIAL,22.0,,TREATMENT,2024-09-25,148
I8F-JE-GPGO-SURPASS,DA,I8F-JE-GPGO-SURPASS-JPN_FUKUOKA01-0015,76,DISPAMT,Dispensed Amount,1.0,VIAL,1.0,1.0,VIAL,23.0,,TREATMENT,2024-10-02,155
I8F-JE-GPGO-SURPASS,DA,I8F-JE-GPGO-SURPASS-JPN_FUKUOKA01-0015,77,REMAMT,Remaining Amount,0.0,VIAL,0.0,0.0,VIAL,23.0,,TREATMENT,2024-10-02,155
I8F-JE-GPGO-SURPASS,DA,I8F-JE-GPGO-SURPASS-JPN_FUKUOKA01-0015,78,RETAMT,Returned Amount,0.0,VIAL,0.0,0.0,VIAL,23.0,,TREATMENT,2024-10-02,155
I8F-JE-GPGO-SURPASS,DA,I8F-JE-GPGO-SURPASS-JPN_FUKUOKA01-0015,79,DISPAMT,Dispensed Amount,1.0,VIAL,1.0,1.0,VIAL,24.0,,TREATMENT,2024-10-09,162
I8F-JE-GPGO-SURPASS,DA,I8F-JE-GPGO-SURPASS-JPN_FUKUOKA01-0015,80,REMAMT,Remaining Amount,0.0,VIAL,0.0,0.0,VIAL,24.0,,TREATMENT,2024-10-09,162
I8F-JE-GPGO-SURPASS,DA,I8F-JE-GPGO-SURPASS-JPN_FUKUOKA01-0015,81,RETAMT,Returned Amount,0.0,VIAL,0.0,0.0,VIAL,24.0,,TREATMENT,2024-10-09,162
I8F-JE-GPGO-SURPASS,DA,I8F-JE-GPGO-SURPASS-JPN_FUKUOKA01-0015,82,DISPAMT,Dispensed Amount,1.0,VIAL,1.0,1.0,VIAL,26.0,,TREATMENT,2024-10-23,176
I8F-JE-GPGO-SURPASS,DA,I8F-JE-GPGO-SURPASS-JPN_FUKUOKA01-0015,83,REMAMT,Remaining Amount,0.0,VIAL,0.0,0.0,VIAL,26.0,,TREATMENT,2024-10-23,176
I8F-JE-GPGO-SURPASS,DA,I8F-JE-GPGO-SURPASS-JPN_FUKUOKA01-0015,84,RETAMT,Returned Amount,0.0,VIAL,0.0,0.0,VIAL,26.0,,TREATMENT,2024-10-23,176
I8F-JE-GPGO-SURPASS,DA,I8F-JE-GPGO-SURPASS-JPN_FUKUOKA01-0015,85,DISPAMT,Dispensed Amount,1.0,VIAL,1.0,1.0,VIAL,27.0,,TREATMENT,2024-10-30,183
I8F-JE-GPGO-SURPASS,DA,I8F-JE-GPGO-SURPASS-JPN_FUKUOKA01-0015,86,REMAMT,Remaining Amount,0.0,VIAL,0.0,0.0,VIAL,27.0,,TREATMENT,2024-10-30,183
I8F-JE-GPGO-SURPASS,DA,I8F-JE-GPGO-SURPASS-JPN_FUKUOKA01-0015,87,RETAMT,Returned Amount,0.0,VIAL,0.0,0.0,VIAL,27.0,,TREATMENT,2024-10-30,183
I8F-JE-GPGO-SURPASS,DA,I8F-JE-GPGO-SURPASS-JPN_FUKUOKA01-0015,88,DISPAMT,Dispensed Amount,1.0,VIAL,1.0,1.0,VIAL,28.0,,TREATMENT,2024-11-06,190
I8F-JE-GPGO-SURPASS,DA,I8F-JE-GPGO-SURPASS-JPN_FUKUOKA01-0015,89,REMAMT,Remaining Amount,0.0,VIAL,0.0,0.0,VIAL,28.0,,TREATMENT,2024-11-06,190
I8F-JE-GPGO-SURPASS,DA,I8F-JE-GPGO-SURPASS-JPN_FUKUOKA01-0015,90,RETAMT,Returned Amount,0.0,VIAL,0.0,0.0,VIAL,28.0,,TREATMENT,2024-11-06,190
I8F-JE-GPGO-SURPASS,DA,I8F-JE-GPGO-SURPASS-JPN_FUKUOKA01-0015,91,DISPAMT,Dispensed Amount,1.0,VIAL,1.0,1.0,VIAL,29.0,,TREATMENT,2024-11-13,197
I8F-JE-GPGO-SURPASS,DA,I8F-JE-GPGO-SURPASS-JPN_FUKUOKA01-0015,92,REMAMT,Remaining Amount,0.0,VIAL,0.0,0.0,VIAL,29.0,,TREATMENT,2024-11-13,197
I8F-JE-GPGO-SURPASS,DA,I8F-JE-GPGO-SURPASS-JPN_FUKUOKA01-0015,93,RETAMT,Returned Amount,0.0,VIAL,0.0,0.0,VIAL,29.0,,TREATMENT,2024-11-13,197
I8F-JE-GPGO-SURPASS,DA,I8F-JE-GPGO-SURPASS-JPN_FUKUOKA01-0015,94,DISPAMT,Dispensed Amount,1.0,VIAL,1.0,1.0,VIAL,30.0,,TREATMENT,2024-11-20,204
I8F-JE-GPGO-SURPASS,DA,I8F-JE-GPGO-SURPASS-JPN_FUKUOKA01-0015,95,REMAMT,Remaining Amount,0.0,VIAL,0.0,0.0,VIAL,30.0,,TREATMENT,2024-11-20,204
I8F-JE-GPGO-SURPASS,DA,I8F-JE-GPGO-SURPASS-JPN_FUKUOKA01-0015,96,RETAMT,Returned Amount,0.0,VIAL,0.0,0.0,VIAL,30.0,,TREATMENT,2024-11-20,204
I8F-JE-GPGO-SURPASS,DA,I8F-JE-GPGO-SURPASS-JPN_FUKUOKA01-0015,97,DISPAMT,Dispensed Amount,1.0,VIAL,1.0,1.0,VIAL,31.0,,TREATMENT,2024-11-27,211
I8F-JE-GPGO-SURPASS,DA,I8F-JE-GPGO-SURPASS-JPN_FUKUOKA01-0015,98,REMAMT,Remaining Amount,0.0,VIAL,0.0,0.0,VIAL,31.0,,TREATMENT,2024-11-27,211
I8F-JE-GPGO-SURPASS,DA,I8F-JE-GPGO-SURPASS-JPN_FUKUOKA01-0015,99,RETAMT,Returned Amount,0.0,VIAL,0.0,0.0,VIAL,31.0,,TREATMENT,2024-11-27,211
I8F-JE-GPGO-SURPASS,DA,I8F-JE-GPGO-SURPASS-JPN_FUKUOKA01-0015,100,DISPAMT,Dispensed Amount,1.0,VIAL,1.0,1.0,VIAL,32.0,,TREATMENT,2024-12-04,218
I8F-JE-GPGO-SURPASS,DA,I8F-JE-GPGO-SURPASS-JPN_FUKUOKA01-0015,101,REMAMT,Remaining Amount,0.0,VIAL,0.0,0.0,VIAL,32.0,,TREATMENT,2024-12-04,218
I8F-JE-GPGO-SURPASS,DA,I8F-JE-GPGO-SURPASS-JPN_FUKUOKA01-0015,102,RETAMT,Returned Amount,0.0,VIAL,0.0,0.0,VIAL,32.0,,TREATMENT,2024-12-04,218
I8F-JE-GPGO-SURPASS,DA,I8F-JE-GPGO-SURPASS-JPN_FUKUOKA01-0015,103,DISPAMT,Dispensed Amount,1.0,VIAL,1.0,1.0,VIAL,34.0,,TREATMENT,2024-12-18,232
I8F-JE-GPGO-SURPASS,DA,I8F-JE-GPGO-SURPASS-JPN_FUKUOKA01-0015,104,REMAMT,Remaining Amount,0.0,VIAL,0.0,0.0,VIAL,34.0,,TREATMENT,2024-12-18,232
I8F-JE-GPGO-SURPASS,DA,I8F-JE-GPGO-SURPASS-JPN_FUKUOKA01-0015,105,RETAMT,Returned Amount,0.0,VIAL,0.0,0.0,VIAL,34.0,,TREATMENT,2024-12-18,232
I8F-JE-GPGO-SURPASS,DA,I8F-JE-GPGO-SURPASS-JPN_FUKUOKA01-0015,106,DISPAMT,Dispensed Amount,1.0,VIAL,1.0,1.0,VIAL,35.0,,TREATMENT,2024-12-25,239
I8F-JE-GPGO-SURPASS,DA,I8F-JE-GPGO-SURPASS-JPN_FUKUOKA01-0015,107,REMAMT,Remaining Amount,0.0,VIAL,0.0,0.0,VIAL,35.0,,TREATMENT,2024-12-25,239
I8F-JE-GPGO-SURPASS,DA,I8F-JE-GPGO-SURPASS-JPN_FUKUOKA01-0015,108,RETAMT,Returned Amount,0.0,VIAL,0.0,0.0,VIAL,35.0,,TREATMENT,2024-12-25,239
I8F-JE-GPGO-SURPASS,DA,I8F-JE-GPGO-SURPASS-JPN_FUKUOKA01-0015,109,DISPAMT,Dispensed Amount,1.0,VIAL,1.0,1.0,VIAL,36.0,,TREATMENT,2025-01-01,246
I8F-JE-GPGO-SURPASS,DA,I8F-JE-GPGO-SURPASS-JPN_FUKUOKA01-0015,110,REMAMT,Remaining Amount,0.0,VIAL,0.0,0.0,VIAL,36.0,,TREATMENT,2025-01-01,246
I8F-JE-GPGO-SURPASS,DA,I8F-JE-GPGO-SURPASS-JPN_FUKUOKA01-0015,111,RETAMT,Returned Amount,0.0,VIAL,0.0,0.0,VIAL,36.0,,TREATMENT,2025-01-01,246
I8F-JE-GPGO-SURPASS,DA,I8F-JE-GPGO-SURPASS-JPN_FUKUOKA01-0015,112,DISPAMT,Dispensed Amount,1.0,VIAL,1.0,1.0,VIAL,37.0,,TREATMENT,2025-01-08,253
I8F-JE-GPGO-SURPASS,DA,I8F-JE-GPGO-SURPASS-JPN_FUKUOKA01-0015,113,REMAMT,Remaining Amount,0.0,VIAL,0.0,0.0,VIAL,37.0,,TREATMENT,2025-01-08,253
I8F-JE-GPGO-SURPASS,DA,I8F-JE-GPGO-SURPASS-JPN_FUKUOKA01-0015,114,RETAMT,Returned Amount,0.0,VIAL,0.0,0.0,VIAL,37.0,,TREATMENT,2025-01-08,253
I8F-JE-GPGO-SURPASS,DA,I8F-JE-GPGO-SURPASS-JPN_FUKUOKA01-0015,115,DISPAMT,Dispensed Amount,1.0,VIAL,1.0,1.0,VIAL,38.0,,TREATMENT,2025-01-15,260
I8F-JE-GPGO-SURPASS,DA,I8F-JE-GPGO-SURPASS-JPN_FUKUOKA01-0015,116,REMAMT,Remaining Amount,0.0,VIAL,0.0,0.0,VIAL,38.0,,TREATMENT,2025-01-15,260
I8F-JE-GPGO-SURPASS,DA,I8F-JE-GPGO-SURPASS-JPN_FUKUOKA01-0015,117,RETAMT,Returned Amount,0.0,VIAL,0.0,0.0,VIAL,38.0,,TREATMENT,2025-01-15,260
I8F-JE-GPGO-SURPASS,DA,I8F-JE-GPGO-SURPASS-JPN_FUKUOKA01-0015,118,DISPAMT,Dispensed Amount,1.0,VIAL,1.0,1.0,VIAL,39.0,,TREATMENT,2025-01-22,267
I8F-JE-GPGO-SURPASS,DA,I8F-JE-GPGO-SURPASS-JPN_FUKUOKA01-0015,119,REMAMT,Remaining Amount,0.0,VIAL,0.0,0.0,VIAL,39.0,,TREATMENT,2025-01-22,267
I8F-JE-GPGO-SURPASS,DA,I8F-JE-GPGO-SURPASS-JPN_FUKUOKA01-0015,120,RETAMT,Returned Amount,0.0,VIAL,0.0,0.0,VIAL,39.0,,TREATMENT,2025-01-22,267
I8F-JE-GPGO-SURPASS,DA,I8F-JE-GPGO-SURPASS-JPN_FUKUOKA01-0015,121,DISPAMT,Dispensed Amount,1.0,VIAL,1.0,1.0,VIAL,40.0,,TREATMENT,2025-01-29,274
I8F-JE-GPGO-SURPASS,DA,I8F-JE-GPGO-SURPASS-JPN_FUKUOKA01-0015,122,REMAMT,Remaining Amount,0.0,VIAL,0.0,0.0,VIAL,40.0,,TREATMENT,2025-01-29,274
I8F-JE-GPGO-SURPASS,DA,I8F-JE-GPGO-SURPASS-JPN_FUKUOKA01-0015,123,RETAMT,Returned Amount,0.0,VIAL,0.0,0.0,VIAL,40.0,,TREATMENT,2025-01-29,274
I8F-JE-GPGO-SURPASS,DA,I8F-JE-GPGO-SURPASS-JPN_FUKUOKA01-0015,124,DISPAMT,Dispensed Amount,1.0,VIAL,1.0,1.0,VIAL,42.0,,TREATMENT,2025-02-12,288
I8F-JE-GPGO-SURPASS,DA,I8F-JE-GPGO-SURPASS-JPN_FUKUOKA01-0015,125,REMAMT,Remaining Amount,0.0,VIAL,0.0,0.0,VIAL,42.0,,TREATMENT,2025-02-12,288
I8F-JE-GPGO-SURPASS,DA,I8F-JE-GPGO-SURPASS-JPN_FUKUOKA01-0015,126,RETAMT,Returned Amount,0.0,VIAL,0.0,0.0,VIAL,42.0,,TREATMENT,2025-02-12,288
I8F-JE-GPGO-SURPASS,DA,I8F-JE-GPGO-SURPASS-JPN_FUKUOKA01-0015,127,DISPAMT,Dispensed Amount,1.0,VIAL,1.0,1.0,VIAL,43.0,,TREATMENT,2025-02-19,295
I8F-JE-GPGO-SURPASS,DA,I8F-JE-GPGO-SURPASS-JPN_FUKUOKA01-0015,128,REMAMT,Remaining Amount,0.0,VIAL,0.0,0.0,VIAL,43.0,,TREATMENT,2025-02-19,295
I8F-JE-GPGO-SURPASS,DA,I8F-JE-GPGO-SURPASS-JPN_FUKUOKA01-0015,129,RETAMT,Returned Amount,0.0,VIAL,0.0,0.0,VIAL,43.0,,TREATMENT,2025-02-19,295
I8F-JE-GPGO-SURPASS,DA,I8F-JE-GPGO-SURPASS-JPN_FUKUOKA01-0015,130,DISPAMT,Dispensed Amount,1.0,VIAL,1.0,1.0,VIAL,44.0,,TREATMENT,2025-02-26,302
I8F-JE-GPGO-SURPASS,DA,I8F-JE-GPGO-SURPASS-JPN_FUKUOKA01-0015,131,REMAMT,Remaining Amount,0.0,VIAL,0.0,0.0,VIAL,44.0,,TREATMENT,2025-02-26,302
I8F-JE-GPGO-SURPASS,DA,I8F-JE-GPGO-SURPASS-JPN_FUKUOKA01-0015,132,RETAMT,Returned Amount,0.0,VIAL,0.0,0.0,VIAL,44.0,,TREATMENT,2025-02-26,302
I8F-JE-GPGO-SURPASS,DA,I8F-JE-GPGO-SURPASS-JPN_FUKUOKA01-0015,133,DISPAMT,Dispensed Amount,1.0,VIAL,1.0,1.0,VIAL,45.0,,TREATMENT,2025-03-05,309
I8F-JE-GPGO-SURPASS,DA,I8F-JE-GPGO-SURPASS-JPN_FUKUOKA01-0015,134,REMAMT,Remaining Amount,0.0,VIAL,0.0,0.0,VIAL,45.0,,TREATMENT,2025-03-05,309
I8F-JE-GPGO-SURPASS,DA,I8F-JE-GPGO-SURPASS-JPN_FUKUOKA01-0015,135,RETAMT,Returned Amount,0.0,VIAL,0.0,0.0,VIAL,45.0,,TREATMENT,2025-03-05,309
I8F-JE-GPGO-SURPASS,DA,I8F-JE-GPGO-SURPASS-JPN_FUKUOKA01-0015,136,DISPAMT,Dispensed Amount,1.0,VIAL,1.0,1.0,VIAL,46.0,,TREATMENT,2025-03-12,316
I8F-JE-GPGO-SURPASS,DA,I8F-JE-GPGO-SURPASS-JPN_FUKUOKA01-0015,137,REMAMT,Remaining Amount,0.0,VIAL,0.0,0.0,VIAL,46.0,,TREATMENT,2025-03-12,316
I8F-JE-GPGO-SURPASS,DA,I8F-JE-GPGO-SURPASS-JPN_FUKUOKA01-0015,138,RETAMT,Returned Amount,0.0,VIAL,0.0,0.0,VIAL,46.0,,TREATMENT,2025-03-12,316
I8F-JE-GPGO-SURPASS,DA,I8F-JE-GPGO-SURPASS-JPN_FUKUOKA01-0015,139,DISPAMT,Dispensed Amount,1.0,VIAL,1.0,1.0,VIAL,47.0,,TREATMENT,2025-03-19,323
I8F-JE-GPGO-SURPASS,DA,I8F-JE-GPGO-SURPASS-JPN_FUKUOKA01-0015,140,REMAMT,Remaining Amount,0.0,VIAL,0.0,0.0,VIAL,47.0,,TREATMENT,2025-03-19,323
I8F-JE-GPGO-SURPASS,DA,I8F-JE-GPGO-SURPASS-JPN_FUKUOKA01-0015,141,RETAMT,Returned Amount,0.0,VIAL,0.0,0.0,VIAL,47.0,,TREATMENT,2025-03-19,323
I8F-JE-GPGO-SURPASS,DA,I8F-JE-GPGO-SURPASS-JPN_FUKUOKA01-0015,142,DISPAMT,Dispensed Amount,1.0,VIAL,1.0,1.0,VIAL,48.0,,TREATMENT,2025-03-26,330
I8F-JE-GPGO-SURPASS,DA,I8F-JE-GPGO-SURPASS-JPN_FUKUOKA01-0015,143,REMAMT,Remaining Amount,0.0,VIAL,0.0,0.0,VIAL,48.0,,TREATMENT,2025-03-26,330
I8F-JE-GPGO-SURPASS,DA,I8F-JE-GPGO-SURPASS-JPN_FUKUOKA01-0015,144,RETAMT,Returned Amount,0.0,VIAL,0.0,0.0,VIAL,48.0,,TREATMENT,2025-03-26,330
I8F-JE-GPGO-SURPASS,DA,I8F-JE-GPGO-SURPASS-JPN_FUKUOKA01-0015,145,DISPAMT,Dispensed Amount,1.0,VIAL,1.0,1.0,VIAL,49.0,,TREATMENT,2025-04-02,337
I8F-JE-GPGO-SURPASS,DA,I8F-JE-GPGO-SURPASS-JPN_FUKUOKA01-0015,146,REMAMT,Remaining Amount,0.0,VIAL,0.0,0.0,VIAL,49.0,,TREATMENT,2025-04-02,337
I8F-JE-GPGO-SURPASS,DA,I8F-JE-GPGO-SURPASS-JPN_FUKUOKA01-0015,147,RETAMT,Returned Amount,0.0,VIAL,0.0,0.0,VIAL,49.0,,TREATMENT,2025-04-02,337
I8F-JE-GPGO-SURPASS,DA,I8F-JE-GPGO-SURPASS-JPN_FUKUOKA01-0015,148,DISPAMT,Dispensed Amount,1.0,VIAL,1.0,1.0,VIAL,50.0,,TREATMENT,2025-04-09,344
I8F-JE-GPGO-SURPASS,DA,I8F-JE-GPGO-SURPASS-JPN_FUKUOKA01-0015,149,REMAMT,Remaining Amount,0.0,VIAL,0.0,0.0,VIAL,50.0,,TREATMENT,2025-04-09,344
I8F-JE-GPGO-SURPASS,DA,I8F-JE-GPGO-SURPASS-JPN_FUKUOKA01-0015,150,RETAMT,Returned Amount,0.0,VIAL,0.0,0.0,VIAL,50.0,,TREATMENT,2025-04-09,344
I8F-JE-GPGO-SURPASS,DA,I8F-JE-GPGO-SURPASS-JPN_FUKUOKA01-0015,151,DISPAMT,Dispensed Amount,1.0,VIAL,1.0,1.0,VIAL,51.0,,TREATMENT,2025-04-16,351
I8F-JE-GPGO-SURPASS,DA,I8F-JE-GPGO-SURPASS-JPN_FUKUOKA01-0015,152,REMAMT,Remaining Amount,0.0,VIAL,0.0,0.0,VIAL,51.0,,TREATMENT,2025-04-16,351
I8F-JE-GPGO-SURPASS,DA,I8F-JE-GPGO-SURPASS-JPN_FUKUOKA01-0015,153,RETAMT,Returned Amount,0.0,VIAL,0.0,0.0,VIAL,51.0,,TREATMENT,2025-04-16,351
I8F-JE-GPGO-SURPASS,DA,I8F-JE-GPGO-SURPASS-JPN_FUKUOKA01-0015,154,DISPAMT,Dispensed Amount,1.0,VIAL,1.0,1.0,VIAL,52.0,,TREATMENT,2025-04-23,358
I8F-JE-GPGO-SURPASS,DA,I8F-JE-GPGO-SURPASS-JPN_FUKUOKA01-0015,155,REMAMT,Remaining Amount,0.0,VIAL,0.0,0.0,VIAL,52.0,,TREATMENT,2025-04-23,358
I8F-JE-GPGO-SURPASS,DA,I8F-JE-GPGO-SURPASS-JPN_FUKUOKA01-0015,156,RETAMT,Returned Amount,0.0,VIAL,0.0,0.0,VIAL,52.0,,TREATMENT,2025-04-23,358
I8F-JE-GPGO-SURPASS,DA,I8F-JE-GPGO-SURPASS-JPN_FUKUOKA01-0017,1,DISPAMT,Dispensed Amount,1.0,VIAL,1.0,1.0,VIAL,2.0,BASELINE,TREATMENT,2024-03-22,1
I8F-JE-GPGO-SURPASS,DA,I8F-JE-GPGO-SURPASS-JPN_FUKUOKA01-0017,2,DISPAMT,Dispensed Amount,1.0,VIAL,1.0,1.0,VIAL,2.0,,TREATMENT,2024-03-29,8
I8F-JE-GPGO-SURPASS,DA,I8F-JE-GPGO-SURPASS-JPN_FUKUOKA01-0017,3,REMAMT,Remaining Amount,0.0,VIAL,0.0,0.0,VIAL,2.0,BASELINE,TREATMENT,2024-03-22,1
I8F-JE-GPGO-SURPASS,DA,I8F-JE-GPGO-SURPASS-JPN_FUKUOKA01-0017,4,REMAMT,Remaining Amount,0.0,VIAL,0.0,0.0,VIAL,2.0,,TREATMENT,2024-03-29,8
I8F-JE-GPGO-SURPASS,DA,I8F-JE-GPGO-SURPASS-JPN_FUKUOKA01-0017,5,RETAMT,Returned Amount,0.0,VIAL,0.0,0.0,VIAL,2.0,BASELINE,TREATMENT,2024-03-22,1
I8F-JE-GPGO-SURPASS,DA,I8F-JE-GPGO-SURPASS-JPN_FUKUOKA01-0017,6,RETAMT,Returned Amount,0.0,VIAL,0.0,0.0,VIAL,2.0,,TREATMENT,2024-03-29,8
I8F-JE-GPGO-SURPASS,DA,I8F-JE-GPGO-SURPASS-JPN_FUKUOKA01-0017,7,DISPAMT,Dispensed Amount,1.0,VIAL,1.0,1.0,VIAL,3.0,,TREATMENT,2024-04-05,15
I8F-JE-GPGO-SURPASS,DA,I8F-JE-GPGO-SURPASS-JPN_FUKUOKA01-0017,8,DISPAMT,Dispensed Amount,1.0,VIAL,1.0,1.0,VIAL,3.0,WEEK 4,TREATMENT,2024-04-19,29
I8F-JE-GPGO-SURPASS,DA,I8F-JE-GPGO-SURPASS-JPN_FUKUOKA01-0017,9,REMAMT,Remaining Amount,0.0,VIAL,0.0,0.0,VIAL,3.0,,TREATMENT,2024-04-05,15
I8F-JE-GPGO-SURPASS,DA,I8F-JE-GPGO-SURPASS-JPN_FUKUOKA01-0017,10,REMAMT,Remaining Amount,0.0,VIAL,0.0,0.0,VIAL,3.0,WEEK 4,TREATMENT,2024-04-19,29
I8F-JE-GPGO-SURPASS,DA,I8F-JE-GPGO-SURPASS-JPN_FUKUOKA01-0017,11,RETAMT,Returned Amount,0.0,VIAL,0.0,0.0,VIAL,3.0,,TREATMENT,2024-04-05,15
I8F-JE-GPGO-SURPASS,DA,I8F-JE-GPGO-SURPASS-JPN_FUKUOKA01-0017,12,RETAMT,Returned Amount,0.0,VIAL,0.0,0.0,VIAL,3.0,WEEK 4,TREATMENT,2024-04-19,29
I8F-JE-GPGO-SURPASS,DA,I8F-JE-GPGO-SURPASS-JPN_FUKUOKA01-0017,13,DISPAMT,Dispensed Amount,1.0,VIAL,1.0,1.0,VIAL,4.0,,TREATMENT,2024-04-12,22
I8F-JE-GPGO-SURPASS,DA,I8F-JE-GPGO-SURPASS-JPN_FUKUOKA01-0017,14,DISPAMT,Dispensed Amount,1.0,VIAL,1.0,1.0,VIAL,4.0,WEEK 8,TREATMENT,2024-05-17,57
I8F-JE-GPGO-SURPASS,DA,I8F-JE-GPGO-SURPASS-JPN_FUKUOKA01-0017,15,REMAMT,Remaining Amount,0.0,VIAL,0.0,0.0,VIAL,4.0,,TREATMENT,2024-04-12,22
I8F-JE-GPGO-SURPASS,DA,I8F-JE-GPGO-SURPASS-JPN_FUKUOKA01-0017,16,REMAMT,Remaining Amount,0.0,VIAL,0.0,0.0,VIAL,4.0,WEEK 8,TREATMENT,2024-05-17,57
I8F-JE-GPGO-SURPASS,DA,I8F-JE-GPGO-SURPASS-JPN_FUKUOKA01-0017,17,RETAMT,Returned Amount,0.0,VIAL,0.0,0.0,VIAL,4.0,,TREATMENT,2024-04-12,22
I8F-JE-GPGO-SURPASS,DA,I8F-JE-GPGO-SURPASS-JPN_FUKUOKA01-0017,18,RETAMT,Returned Amount,0.0,VIAL,0.0,0.0,VIAL,4.0,WEEK 8,TREATMENT,2024-05-17,57
I8F-JE-GPGO-SURPASS,DA,I8F-JE-GPGO-SURPASS-JPN_FUKUOKA01-0017,19,DISPAMT,Dispensed Amount,1.0,VIAL,1.0,1.0,VIAL,5.0,WEEK 12,TREATMENT,2024-06-14,85
I8F-JE-GPGO-SURPASS,DA,I8F-JE-GPGO-SURPASS-JPN_FUKUOKA01-0017,20,REMAMT,Remaining Amount,0.0,VIAL,0.0,0.0,VIAL,5.0,WEEK 12,TREATMENT,2024-06-14,85
I8F-JE-GPGO-SURPASS,DA,I8F-JE-GPGO-SURPASS-JPN_FUKUOKA01-0017,21,RETAMT,Returned Amount,0.0,VIAL,0.0,0.0,VIAL,5.0,WEEK 12,TREATMENT,2024-06-14,85
I8F-JE-GPGO-SURPASS,DA,I8F-JE-GPGO-SURPASS-JPN_FUKUOKA01-0017,22,DISPAMT,Dispensed Amount,1.0,VIAL,1.0,1.0,VIAL,6.0,,TREATMENT,2024-04-26,36
I8F-JE-GPGO-SURPASS,DA,I8F-JE-GPGO-SURPASS-JPN_FUKUOKA01-0017,23,DISPAMT,Dispensed Amount,1.0,VIAL,1.0,1.0,VIAL,6.0,WEEK 16,TREATMENT,2024-07-12,113
I8F-JE-GPGO-SURPASS,DA,I8F-JE-GPGO-SURPASS-JPN_FUKUOKA01-0017,24,REMAMT,Remaining Amount,0.0,VIAL,0.0,0.0,VIAL,6.0,,TREATMENT,2024-04-26,36
I8F-JE-GPGO-SURPASS,DA,I8F-JE-GPGO-SURPASS-JPN_FUKUOKA01-0017,25,REMAMT,Remaining Amount,0.0,VIAL,0.0,0.0,VIAL,6.0,WEEK 16,TREATMENT,2024-07-12,113
I8F-JE-GPGO-SURPASS,DA,I8F-JE-GPGO-SURPASS-JPN_FUKUOKA01-0017,26,RETAMT,Returned Amount,0.0,VIAL,0.0,0.0,VIAL,6.0,,TREATMENT,2024-04-26,36
I8F-JE-GPGO-SURPASS,DA,I8F-JE-GPGO-SURPASS-JPN_FUKUOKA01-0017,27,RETAMT,Returned Amount,0.0,VIAL,0.0,0.0,VIAL,6.0,WEEK 16,TREATMENT,2024-07-12,113
I8F-JE-GPGO-SURPASS,DA,I8F-JE-GPGO-SURPASS-JPN_FUKUOKA01-0017,28,DISPAMT,Dispensed Amount,1.0,VIAL,1.0,1.0,VIAL,7.0,,TREATMENT,2024-05-03,43
I8F-JE-GPGO-SURPASS,DA,I8F-JE-GPGO-SURPASS-JPN_FUKUOKA01-0017,29,DISPAMT,Dispensed Amount,1.0,VIAL,1.0,1.0,VIAL,7.0,WEEK 20,TREATMENT,2024-08-09,141
I8F-JE-GPGO-SURPASS,DA,I8F-JE-GPGO-SURPASS-JPN_FUKUOKA01-0017,30,REMAMT,Remaining Amount,0.0,VIAL,0.0,0.0,VIAL,7.0,,TREATMENT,2024-05-03,43
I8F-JE-GPGO-SURPASS,DA,I8F-JE-GPGO-SURPASS-JPN_FUKUOKA01-0017,31,REMAMT,Remaining Amount,0.0,VIAL,0.0,0.0,VIAL,7.0,WEEK 20,TREATMENT,2024-08-09,141
I8F-JE-GPGO-SURPASS,DA,I8F-JE-GPGO-SURPASS-JPN_FUKUOKA01-0017,32,RETAMT,Returned Amount,0.0,VIAL,0.0,0.0,VIAL,7.0,,TREATMENT,2024-05-03,43
I8F-JE-GPGO-SURPASS,DA,I8F-JE-GPGO-SURPASS-JPN_FUKUOKA01-0017,33,RETAMT,Returned Amount,0.0,VIAL,0.0,0.0,VIAL,7.0,WEEK 20,TREATMENT,2024-08-09,141
I8F-JE-GPGO-SURPASS,DA,I8F-JE-GPGO-SURPASS-JPN_FUKUOKA01-0017,34,DISPAMT,Dispensed Amount,1.0,VIAL,1.0,1.0,VIAL,8.0,,TREATMENT,2024-05-10,50
I8F-JE-GPGO-SURPASS,DA,I8F-JE-GPGO-SURPASS-JPN_FUKUOKA01-0017,35,REMAMT,Remaining Amount,0.0,VIAL,0.0,0.0,VIAL,8.0,,TREATMENT,2024-05-10,50
I8F-JE-GPGO-SURPASS,DA,I8F-JE-GPGO-SURPASS-JPN_FUKUOKA01-0017,36,RETAMT,Returned Amount,0.0,VIAL,0.0,0.0,VIAL,8.0,,TREATMENT,2024-05-10,50
I8F-JE-GPGO-SURPASS,DA,I8F-JE-GPGO-SURPASS-JPN_FUKUOKA01-0017,37,DISPAMT,Dispensed Amount,1.0,VIAL,1.0,1.0,VIAL,10.0,,TREATMENT,2024-05-24,64
I8F-JE-GPGO-SURPASS,DA,I8F-JE-GPGO-SURPASS-JPN_FUKUOKA01-0017,38,REMAMT,Remaining Amount,0.0,VIAL,0.0,0.0,VIAL,10.0,,TREATMENT,2024-05-24,64
I8F-JE-GPGO-SURPASS,DA,I8F-JE-GPGO-SURPASS-JPN_FUKUOKA01-0017,39,RETAMT,Returned Amount,0.0,VIAL,0.0,0.0,VIAL,10.0,,TREATMENT,2024-05-24,64
I8F-JE-GPGO-SURPASS,DA,I8F-JE-GPGO-SURPASS-JPN_FUKUOKA01-0017,40,DISPAMT,Dispensed Amount,1.0,VIAL,1.0,1.0,VIAL,11.0,,TREATMENT,2024-05-31,71
I8F-JE-GPGO-SURPASS,DA,I8F-JE-GPGO-SURPASS-JPN_FUKUOKA01-0017,41,REMAMT,Remaining Amount,0.0,VIAL,0.0,0.0,VIAL,11.0,,TREATMENT,2024-05-31,71
I8F-JE-GPGO-SURPASS,DA,I8F-JE-GPGO-SURPASS-JPN_FUKUOKA01-0017,42,RETAMT,Returned Amount,0.0,VIAL,0.0,0.0,VIAL,11.0,,TREATMENT,2024-05-31,71
I8F-JE-GPGO-SURPASS,DA,I8F-JE-GPGO-SURPASS-JPN_FUKUOKA01-0017,43,DISPAMT,Dispensed Amount,1.0,VIAL,1.0,1.0,VIAL,12.0,,TREATMENT,2024-06-07,78
I8F-JE-GPGO-SURPASS,DA,I8F-JE-GPGO-SURPASS-JPN_FUKUOKA01-0017,44,REMAMT,Remaining Amount,0.0,VIAL,0.0,0.0,VIAL,12.0,,TREATMENT,2024-06-07,78
I8F-JE-GPGO-SURPASS,DA,I8F-JE-GPGO-SURPASS-JPN_FUKUOKA01-0017,45,RETAMT,Returned Amount,0.0,VIAL,0.0,0.0,VIAL,12.0,,TREATMENT,2024-06-07,78
I8F-JE-GPGO-SURPASS,DA,I8F-JE-GPGO-SURPASS-JPN_FUKUOKA01-0017,46,DISPAMT,Dispensed Amount,1.0,VIAL,1.0,1.0,VIAL,14.0,,TREATMENT,2024-06-21,92
I8F-JE-GPGO-SURPASS,DA,I8F-JE-GPGO-SURPASS-JPN_FUKUOKA01-0017,47,REMAMT,Remaining Amount,1.0,VIAL,1.0,1.0,VIAL,14.0,,TREATMENT,2024-06-21,92
I8F-JE-GPGO-SURPASS,DA,I8F-JE-GPGO-SURPASS-JPN_FUKUOKA01-0017,48,RETAMT,Returned Amount,1.0,VIAL,1.0,1.0,VIAL,14.0,,TREATMENT,2024-06-21,92
I8F-JE-GPGO-SURPASS,DA,I8F-JE-GPGO-SURPASS-JPN_FUKUOKA01-0017,49,DISPAMT,Dispensed Amount,1.0,VIAL,1.0,1.0,VIAL,15.0,,TREATMENT,2024-06-28,99
I8F-JE-GPGO-SURPASS,DA,I8F-JE-GPGO-SURPASS-JPN_FUKUOKA01-0017,50,REMAMT,Remaining Amount,0.0,VIAL,0.0,0.0,VIAL,15.0,,TREATMENT,2024-06-28,99
I8F-JE-GPGO-SURPASS,DA,I8F-JE-GPGO-SURPASS-JPN_FUKUOKA01-0017,51,RETAMT,Returned Amount,0.0,VIAL,0.0,0.0,VIAL,15.0,,TREATMENT,2024-06-28,99
I8F-JE-GPGO-SURPASS,DA,I8F-JE-GPGO-SURPASS-JPN_FUKUOKA01-0017,52,DISPAMT,Dispensed Amount,1.0,VIAL,1.0,1.0,VIAL,16.0,,TREATMENT,2024-07-05,106
I8F-JE-GPGO-SURPASS,DA,I8F-JE-GPGO-SURPASS-JPN_FUKUOKA01-0017,53,REMAMT,Remaining Amount,0.0,VIAL,0.0,0.0,VIAL,16.0,,TREATMENT,2024-07-05,106
I8F-JE-GPGO-SURPASS,DA,I8F-JE-GPGO-SURPASS-JPN_FUKUOKA01-0017,54,RETAMT,Returned Amount,0.0,VIAL,0.0,0.0,VIAL,16.0,,TREATMENT,2024-07-05,106
I8F-JE-GPGO-SURPASS,DA,I8F-JE-GPGO-SURPASS-JPN_FUKUOKA01-0017,55,DISPAMT,Dispensed Amount,1.0,VIAL,1.0,1.0,VIAL,18.0,,TREATMENT,2024-07-19,120
I8F-JE-GPGO-SURPASS,DA,I8F-JE-GPGO-SURPASS-JPN_FUKUOKA01-0017,56,REMAMT,Remaining Amount,0.0,VIAL,0.0,0.0,VIAL,18.0,,TREATMENT,2024-07-19,120
I8F-JE-GPGO-SURPASS,DA,I8F-JE-GPGO-SURPASS-JPN_FUKUOKA01-0017,57,RETAMT,Returned Amount,0.0,VIAL,0.0,0.0,VIAL,18.0,,TREATMENT,2024-07-19,120
I8F-JE-GPGO-SURPASS,DA,I8F-JE-GPGO-SURPASS-JPN_FUKUOKA01-0017,58,DISPAMT,Dispensed Amount,1.0,VIAL,1.0,1.0,VIAL,19.0,,TREATMENT,2024-07-26,127
I8F-JE-GPGO-SURPASS,DA,I8F-JE-GPGO-SURPASS-JPN_FUKUOKA01-0017,59,REMAMT,Remaining Amount,0.0,VIAL,0.0,0.0,VIAL,19.0,,TREATMENT,2024-07-26,127
I8F-JE-GPGO-SURPASS,DA,I8F-JE-GPGO-SURPASS-JPN_FUKUOKA01-0017,60,RETAMT,Returned Amount,0.0,VIAL,0.0,0.0,VIAL,19.0,,TREATMENT,2024-07-26,127
I8F-JE-GPGO-SURPASS,DA,I8F-JE-GPGO-SURPASS-JPN_FUKUOKA01-0017,61,DISPAMT,Dispensed Amount,1.0,VIAL,1.0,1.0,VIAL,20.0,,TREATMENT,2024-08-02,134
I8F-JE-GPGO-SURPASS,DA,I8F-JE-GPGO-SURPASS-JPN_FUKUOKA01-0017,62,REMAMT,Remaining Amount,0.0,VIAL,0.0,0.0,VIAL,20.0,,TREATMENT,2024-08-02,134
I8F-JE-GPGO-SURPASS,DA,I8F-JE-GPGO-SURPASS-JPN_FUKUOKA01-0017,63,RETAMT,Returned Amount,0.0,VIAL,0.0,0.0,VIAL,20.0,,TREATMENT,2024-08-02,134
I8F-JE-GPGO-SURPASS,DA,I8F-JE-GPGO-SURPASS-JPN_FUKUOKA01-0017,64,DISPAMT,Dispensed Amount,1.0,VIAL,1.0,1.0,VIAL,22.0,,TREATMENT,2024-08-16,148
I8F-JE-GPGO-SURPASS,DA,I8F-JE-GPGO-SURPASS-JPN_FUKUOKA01-0017,65,REMAMT,Remaining Amount,0.0,VIAL,0.0,0.0,VIAL,22.0,,TREATMENT,2024-08-16,148
I8F-JE-GPGO-SURPASS,DA,I8F-JE-GPGO-SURPASS-JPN_FUKUOKA01-0017,66,RETAMT,Returned Amount,0.0,VIAL,0.0,0.0,VIAL,22.0,,TREATMENT,2024-08-16,148
I8F-JE-GPGO-SURPASS,DA,I8F-JE-GPGO-SURPASS-JPN_HIROSHIMA01-0011,1,DISPAMT,Dispensed Amount,1.0,VIAL,1.0,1.0,VIAL,2.0,BASELINE,TREATMENT,2024-05-09,1
I8F-JE-GPGO-SURPASS,DA,I8F-JE-GPGO-SURPASS-JPN_HIROSHIMA01-0011,2,DISPAMT,Dispensed Amount,1.0,VIAL,1.0,1.0,VIAL,2.0,,TREATMENT,2024-05-16,8
I8F-JE-GPGO-SURPASS,DA,I8F-JE-GPGO-SURPASS-JPN_HIROSHIMA01-0011,3,REMAMT,Remaining Amount,0.0,VIAL,0.0,0.0,VIAL,2.0,BASELINE,TREATMENT,2024-05-09,1
I8F-JE-GPGO-SURPASS,DA,I8F-JE-GPGO-SURPASS-JPN_HIROSHIMA01-0011,4,REMAMT,Remaining Amount,0.0,VIAL,0.0,0.0,VIAL,2.0,,TREATMENT,2024-05-16,8
I8F-JE-GPGO-SURPASS,DA,I8F-JE-GPGO-SURPASS-JPN_HIROSHIMA01-0011,5,RETAMT,Returned Amount,0.0,VIAL,0.0,0.0,VIAL,2.0,BASELINE,TREATMENT,2024-05-09,1
I8F-JE-GPGO-SURPASS,DA,I8F-JE-GPGO-SURPASS-JPN_HIROSHIMA01-0011,6,RETAMT,Returned Amount,0.0,VIAL,0.0,0.0,VIAL,2.0,,TREATMENT,2024-05-16,8
I8F-JE-GPGO-SURPASS,DA,I8F-JE-GPGO-SURPASS-JPN_HIROSHIMA01-0011,7,DISPAMT,Dispensed Amount,1.0,VIAL,1.0,1.0,VIAL,3.0,,TREATMENT,2024-05-23,15
I8F-JE-GPGO-SURPASS,DA,I8F-JE-GPGO-SURPASS-JPN_HIROSHIMA01-0011,8,DISPAMT,Dispensed Amount,1.0,VIAL,1.0,1.0,VIAL,3.0,WEEK 4,TREATMENT,2024-06-06,29
I8F-JE-GPGO-SURPASS,DA,I8F-JE-GPGO-SURPASS-JPN_HIROSHIMA01-0011,9,REMAMT,Remaining Amount,0.0,VIAL,0.0,0.0,VIAL,3.0,,TREATMENT,2024-05-23,15
I8F-JE-GPGO-SURPASS,DA,I8F-JE-GPGO-SURPASS-JPN_HIROSHIMA01-0011,10,REMAMT,Remaining Amount,0.0,VIAL,0.0,0.0,VIAL,3.0,WEEK 4,TREATMENT,2024-06-06,29
I8F-JE-GPGO-SURPASS,DA,I8F-JE-GPGO-SURPASS-JPN_HIROSHIMA01-0011,11,RETAMT,Returned Amount,0.0,VIAL,0.0,0.0,VIAL,3.0,,TREATMENT,2024-05-23,15
I8F-JE-GPGO-SURPASS,DA,I8F-JE-GPGO-SURPASS-JPN_HIROSHIMA01-0011,12,RETAMT,Returned Amount,0.0,VIAL,0.0,0.0,VIAL,3.0,WEEK 4,TREATMENT,2024-06-06,29
I8F-JE-GPGO-SURPASS,DA,I8F-JE-GPGO-SURPASS-JPN_HIROSHIMA01-0011,13,DISPAMT,Dispensed Amount,1.0,VIAL,1.0,1.0,VIAL,4.0,,TREATMENT,2024-05-30,22
I8F-JE-GPGO-SURPASS,DA,I8F-JE-GPGO-SURPASS-JPN_HIROSHIMA01-0011,14,DISPAMT,Dispensed Amount,1.0,VIAL,1.0,1.0,VIAL,4.0,WEEK 8,TREATMENT,2024-07-04,57
I8F-JE-GPGO-SURPASS,DA,I8F-JE-GPGO-SURPASS-JPN_HIROSHIMA01-0011,15,REMAMT,Remaining Amount,0.0,VIAL,0.0,0.0,VIAL,4.0,,TREATMENT,2024-05-30,22
I8F-JE-GPGO-SURPASS,DA,I8F-JE-GPGO-SURPASS-JPN_HIROSHIMA01-0011,16,REMAMT,Remaining Amount,0.0,VIAL,0.0,0.0,VIAL,4.0,WEEK 8,TREATMENT,2024-07-04,57
I8F-JE-GPGO-SURPASS,DA,I8F-JE-GPGO-SURPASS-JPN_HIROSHIMA01-0011,17,RETAMT,Returned Amount,0.0,VIAL,0.0,0.0,VIAL,4.0,,TREATMENT,2024-05-30,22
I8F-JE-GPGO-SURPASS,DA,I8F-JE-GPGO-SURPASS-JPN_HIROSHIMA01-0011,18,RETAMT,Returned Amount,0.0,VIAL,0.0,0.0,VIAL,4.0,WEEK 8,TREATMENT,2024-07-04,57
I8F-JE-GPGO-SURPASS,DA,I8F-JE-GPGO-SURPASS-JPN_HIROSHIMA01-0011,19,DISPAMT,Dispensed Amount,1.0,VIAL,1.0,1.0,VIAL,5.0,WEEK 12,TREATMENT,2024-08-01,85
I8F-JE-GPGO-SURPASS,DA,I8F-JE-GPGO-SURPASS-JPN_HIROSHIMA01-0011,20,REMAMT,Remaining Amount,0.0,VIAL,0.0,0.0,VIAL,5.0,WEEK 12,TREATMENT,2024-08-01,85
I8F-JE-GPGO-SURPASS,DA,I8F-JE-GPGO-SURPASS-JPN_HIROSHIMA01-0011,21,RETAMT,Returned Amount,0.0,VIAL,0.0,0.0,VIAL,5.0,WEEK 12,TREATMENT,2024-08-01,85
I8F-JE-GPGO-SURPASS,DA,I8F-JE-GPGO-SURPASS-JPN_HIROSHIMA01-0011,22,DISPAMT,Dispensed Amount,1.0,VIAL,1.0,1.0,VIAL,6.0,,TREATMENT,2024-06-13,36
I8F-JE-GPGO-SURPASS,DA,I8F-JE-GPGO-SURPASS-JPN_HIROSHIMA01-0011,23,DISPAMT,Dispensed Amount,1.0,VIAL,1.0,1.0,VIAL,6.0,WEEK 16,TREATMENT,2024-08-29,113
I8F-JE-GPGO-SURPASS,DA,I8F-JE-GPGO-SURPASS-JPN_HIROSHIMA01-0011,24,REMAMT,Remaining Amount,0.0,VIAL,0.0,0.0,VIAL,6.0,,TREATMENT,2024-06-13,36
I8F-JE-GPGO-SURPASS,DA,I8F-JE-GPGO-SURPASS-JPN_HIROSHIMA01-0011,25,REMAMT,Remaining Amount,0.0,VIAL,0.0,0.0,VIAL,6.0,WEEK 16,TREATMENT,2024-08-29,113
I8F-JE-GPGO-SURPASS,DA,I8F-JE-GPGO-SURPASS-JPN_HIROSHIMA01-0011,26,RETAMT,Returned Amount,0.0,VIAL,0.0,0.0,VIAL,6.0,,TREATMENT,2024-06-13,36
I8F-JE-GPGO-SURPASS,DA,I8F-JE-GPGO-SURPASS-JPN_HIROSHIMA01-0011,27,RETAMT,Returned Amount,0.0,VIAL,0.0,0.0,VIAL,6.0,WEEK 16,TREATMENT,2024-08-29,113
I8F-JE-GPGO-SURPASS,DA,I8F-JE-GPGO-SURPASS-JPN_HIROSHIMA01-0011,28,DISPAMT,Dispensed Amount,1.0,VIAL,1.0,1.0,VIAL,7.0,,TREATMENT,2024-06-20,43
I8F-JE-GPGO-SURPASS,DA,I8F-JE-GPGO-SURPASS-JPN_HIROSHIMA01-0011,29,REMAMT,Remaining Amount,0.0,VIAL,0.0,0.0,VIAL,7.0,,TREATMENT,2024-06-20,43
I8F-JE-GPGO-SURPASS,DA,I8F-JE-GPGO-SURPASS-JPN_HIROSHIMA01-0011,30,RETAMT,Returned Amount,0.0,VIAL,0.0,0.0,VIAL,7.0,,TREATMENT,2024-06-20,43
I8F-JE-GPGO-SURPASS,DA,I8F-JE-GPGO-SURPASS-JPN_HIROSHIMA01-0011,31,DISPAMT,Dispensed Amount,1.0,VIAL,1.0,1.0,VIAL,8.0,,TREATMENT,2024-06-27,50
I8F-JE-GPGO-SURPASS,DA,I8F-JE-GPGO-SURPASS-JPN_HIROSHIMA01-0011,32,REMAMT,Remaining Amount,0.0,VIAL,0.0,0.0,VIAL,8.0,,TREATMENT,2024-06-27,50
I8F-JE-GPGO-SURPASS,DA,I8F-JE-GPGO-SURPASS-JPN_HIROSHIMA01-0011,33,RETAMT,Returned Amount,0.0,VIAL,0.0,0.0,VIAL,8.0,,TREATMENT,2024-06-27,50
I8F-JE-GPGO-SURPASS,DA,I8F-JE-GPGO-SURPASS-JPN_HIROSHIMA01-0011,34,DISPAMT,Dispensed Amount,1.0,VIAL,1.0,1.0,VIAL,10.0,,TREATMENT,2024-07-11,64
I8F-JE-GPGO-SURPASS,DA,I8F-JE-GPGO-SURPASS-JPN_HIROSHIMA01-0011,35,REMAMT,Remaining Amount,0.0,VIAL,0.0,0.0,VIAL,10.0,,TREATMENT,2024-07-11,64
I8F-JE-GPGO-SURPASS,DA,I8F-JE-GPGO-SURPASS-JPN_HIROSHIMA01-0011,36,RETAMT,Returned Amount,0.0,VIAL,0.0,0.0,VIAL,10.0,,TREATMENT,2024-07-11,64
I8F-JE-GPGO-SURPASS,DA,I8F-JE-GPGO-SURPASS-JPN_HIROSHIMA01-0011,37,DISPAMT,Dispensed Amount,1.0,VIAL,1.0,1.0,VIAL,11.0,,TREATMENT,2024-07-18,71
I8F-JE-GPGO-SURPASS,DA,I8F-JE-GPGO-SURPASS-JPN_HIROSHIMA01-0011,38,REMAMT,Remaining Amount,0.0,VIAL,0.0,0.0,VIAL,11.0,,TREATMENT,2024-07-18,71
I8F-JE-GPGO-SURPASS,DA,I8F-JE-GPGO-SURPASS-JPN_HIROSHIMA01-0011,39,RETAMT,Returned Amount,0.0,VIAL,0.0,0.0,VIAL,11.0,,TREATMENT,2024-07-18,71
I8F-JE-GPGO-SURPASS,DA,I8F-JE-GPGO-SURPASS-JPN_HIROSHIMA01-0011,40,DISPAMT,Dispensed Amount,1.0,VIAL,1.0,1.0,VIAL,12.0,,TREATMENT,2024-07-25,78
I8F-JE-GPGO-SURPASS,DA,I8F-JE-GPGO-SURPASS-JPN_HIROSHIMA01-0011,41,REMAMT,Remaining Amount,0.0,VIAL,0.0,0.0,VIAL,12.0,,TREATMENT,2024-07-25,78
I8F-JE-GPGO-SURPASS,DA,I8F-JE-GPGO-SURPASS-JPN_HIROSHIMA01-0011,42,RETAMT,Returned Amount,0.0,VIAL,0.0,0.0,VIAL,12.0,,TREATMENT,2024-07-25,78
I8F-JE-GPGO-SURPASS,DA,I8F-JE-GPGO-SURPASS-JPN_HIROSHIMA01-0011,43,DISPAMT,Dispensed Amount,1.0,VIAL,1.0,1.0,VIAL,14.0,,TREATMENT,2024-08-08,92
I8F-JE-GPGO-SURPASS,DA,I8F-JE-GPGO-SURPASS-JPN_HIROSHIMA01-0011,44,REMAMT,Remaining Amount,0.0,VIAL,0.0,0.0,VIAL,14.0,,TREATMENT,2024-08-08,92
I8F-JE-GPGO-SURPASS,DA,I8F-JE-GPGO-SURPASS-JPN_HIROSHIMA01-0011,45,RETAMT,Returned Amount,0.0,VIAL,0.0,0.0,VIAL,14.0,,TREATMENT,2024-08-08,92
I8F-JE-GPGO-SURPASS,DA,I8F-JE-GPGO-SURPASS-JPN_HIROSHIMA01-0011,46,DISPAMT,Dispensed Amount,1.0,VIAL,1.0,1.0,VIAL,15.0,,TREATMENT,2024-08-15,99
I8F-JE-GPGO-SURPASS,DA,I8F-JE-GPGO-SURPASS-JPN_HIROSHIMA01-0011,47,REMAMT,Remaining Amount,0.0,VIAL,0.0,0.0,VIAL,15.0,,TREATMENT,2024-08-15,99
I8F-JE-GPGO-SURPASS,DA,I8F-JE-GPGO-SURPASS-JPN_HIROSHIMA01-0011,48,RETAMT,Returned Amount,0.0,VIAL,0.0,0.0,VIAL,15.0,,TREATMENT,2024-08-15,99
I8F-JE-GPGO-SURPASS,DA,I8F-JE-GPGO-SURPASS-JPN_HIROSHIMA01-0011,49,DISPAMT,Dispensed Amount,1.0,VIAL,1.0,1.0,VIAL,16.0,,TREATMENT,2024-08-22,106
I8F-JE-GPGO-SURPASS,DA,I8F-JE-GPGO-SURPASS-JPN_HIROSHIMA01-0011,50,REMAMT,Remaining Amount,0.0,VIAL,0.0,0.0,VIAL,16.0,,TREATMENT,2024-08-22,106
I8F-JE-GPGO-SURPASS,DA,I8F-JE-GPGO-SURPASS-JPN_HIROSHIMA01-0011,51,RETAMT,Returned Amount,0.0,VIAL,0.0,0.0,VIAL,16.0,,TREATMENT,2024-08-22,106
I8F-JE-GPGO-SURPASS,DA,I8F-JE-GPGO-SURPASS-JPN_HIROSHIMA01-0019,1,DISPAMT,Dispensed Amount,1.0,VIAL,1.0,1.0,VIAL,2.0,BASELINE,TREATMENT,2024-05-16,1
I8F-JE-GPGO-SURPASS,DA,I8F-JE-GPGO-SURPASS-JPN_HIROSHIMA01-0019,2,DISPAMT,Dispensed Amount,1.0,VIAL,1.0,1.0,VIAL,2.0,,TREATMENT,2024-05-23,8
I8F-JE-GPGO-SURPASS,DA,I8F-JE-GPGO-SURPASS-JPN_HIROSHIMA01-0019,3,REMAMT,Remaining Amount,0.0,VIAL,0.0,0.0,VIAL,2.0,BASELINE,TREATMENT,2024-05-16,1
I8F-JE-GPGO-SURPASS,DA,I8F-JE-GPGO-SURPASS-JPN_HIROSHIMA01-0019,4,REMAMT,Remaining Amount,0.0,VIAL,0.0,0.0,VIAL,2.0,,TREATMENT,2024-05-23,8
I8F-JE-GPGO-SURPASS,DA,I8F-JE-GPGO-SURPASS-JPN_HIROSHIMA01-0019,5,RETAMT,Returned Amount,0.0,VIAL,0.0,0.0,VIAL,2.0,BASELINE,TREATMENT,2024-05-16,1
I8F-JE-GPGO-SURPASS,DA,I8F-JE-GPGO-SURPASS-JPN_HIROSHIMA01-0019,6,RETAMT,Returned Amount,0.0,VIAL,0.0,0.0,VIAL,2.0,,TREATMENT,2024-05-23,8
I8F-JE-GPGO-SURPASS,DA,I8F-JE-GPGO-SURPASS-JPN_HIROSHIMA01-0019,7,DISPAMT,Dispensed Amount,1.0,VIAL,1.0,1.0,VIAL,3.0,,TREATMENT,2024-05-30,15
I8F-JE-GPGO-SURPASS,DA,I8F-JE-GPGO-SURPASS-JPN_HIROSHIMA01-0019,8,DISPAMT,Dispensed Amount,1.0,VIAL,1.0,1.0,VIAL,3.0,WEEK 4,TREATMENT,2024-06-13,29
I8F-JE-GPGO-SURPASS,DA,I8F-JE-GPGO-SURPASS-JPN_HIROSHIMA01-0019,9,REMAMT,Remaining Amount,1.0,VIAL,1.0,1.0,VIAL,3.0,,TREATMENT,2024-05-30,15
I8F-JE-GPGO-SURPASS,DA,I8F-JE-GPGO-SURPASS-JPN_HIROSHIMA01-0019,10,REMAMT,Remaining Amount,0.0,VIAL,0.0,0.0,VIAL,3.0,WEEK 4,TREATMENT,2024-06-13,29
I8F-JE-GPGO-SURPASS,DA,I8F-JE-GPGO-SURPASS-JPN_HIROSHIMA01-0019,11,RETAMT,Returned Amount,1.0,VIAL,1.0,1.0,VIAL,3.0,,TREATMENT,2024-05-30,15
I8F-JE-GPGO-SURPASS,DA,I8F-JE-GPGO-SURPASS-JPN_HIROSHIMA01-0019,12,RETAMT,Returned Amount,0.0,VIAL,0.0,0.0,VIAL,3.0,WEEK 4,TREATMENT,2024-06-13,29
I8F-JE-GPGO-SURPASS,DA,I8F-JE-GPGO-SURPASS-JPN_HIROSHIMA01-0019,13,DISPAMT,Dispensed Amount,1.0,VIAL,1.0,1.0,VIAL,4.0,,TREATMENT,2024-06-06,22
I8F-JE-GPGO-SURPASS,DA,I8F-JE-GPGO-SURPASS-JPN_HIROSHIMA01-0019,14,DISPAMT,Dispensed Amount,1.0,VIAL,1.0,1.0,VIAL,4.0,WEEK 8,TREATMENT,2024-07-11,57
I8F-JE-GPGO-SURPASS,DA,I8F-JE-GPGO-SURPASS-JPN_HIROSHIMA01-0019,15,REMAMT,Remaining Amount,0.0,VIAL,0.0,0.0,VIAL,4.0,,TREATMENT,2024-06-06,22
I8F-JE-GPGO-SURPASS,DA,I8F-JE-GPGO-SURPASS-JPN_HIROSHIMA01-0019,16,REMAMT,Remaining Amount,0.0,VIAL,0.0,0.0,VIAL,4.0,WEEK 8,TREATMENT,2024-07-11,57
I8F-JE-GPGO-SURPASS,DA,I8F-JE-GPGO-SURPASS-JPN_HIROSHIMA01-0019,17,RETAMT,Returned Amount,0.0,VIAL,0.0,0.0,VIAL,4.0,,TREATMENT,2024-06-06,22
I8F-JE-GPGO-SURPASS,DA,I8F-JE-GPGO-SURPASS-JPN_HIROSHIMA01-0019,18,RETAMT,Returned Amount,0.0,VIAL,0.0,0.0,VIAL,4.0,WEEK 8,TREATMENT,2024-07-11,57
I8F-JE-GPGO-SURPASS,DA,I8F-JE-GPGO-SURPASS-JPN_HIROSHIMA01-0019,19,DISPAMT,Dispensed Amount,1.0,VIAL,1.0,1.0,VIAL,5.0,WEEK 12,TREATMENT,2024-08-08,85
I8F-JE-GPGO-SURPASS,DA,I8F-JE-GPGO-SURPASS-JPN_HIROSHIMA01-0019,20,REMAMT,Remaining Amount,0.0,VIAL,0.0,0.0,VIAL,5.0,WEEK 12,TREATMENT,2024-08-08,85
I8F-JE-GPGO-SURPASS,DA,I8F-JE-GPGO-SURPASS-JPN_HIROSHIMA01-0019,21,RETAMT,Returned Amount,0.0,VIAL,0.0,0.0,VIAL,5.0,WEEK 12,TREATMENT,2024-08-08,85
I8F-JE-GPGO-SURPASS,DA,I8F-JE-GPGO-SURPASS-JPN_HIROSHIMA01-0019,22,DISPAMT,Dispensed Amount,1.0,VIAL,1.0,1.0,VIAL,6.0,,TREATMENT,2024-06-20,36
I8F-JE-GPGO-SURPASS,DA,I8F-JE-GPGO-SURPASS-JPN_HIROSHIMA01-0019,23,DISPAMT,Dispensed Amount,1.0,VIAL,1.0,1.0,VIAL,6.0,WEEK 16,TREATMENT,2024-09-05,113
I8F-JE-GPGO-SURPASS,DA,I8F-JE-GPGO-SURPASS-JPN_HIROSHIMA01-0019,24,REMAMT,Remaining Amount,0.0,VIAL,0.0,0.0,VIAL,6.0,,TREATMENT,2024-06-20,36
I8F-JE-GPGO-SURPASS,DA,I8F-JE-GPGO-SURPASS-JPN_HIROSHIMA01-0019,25,REMAMT,Remaining Amount,0.0,VIAL,0.0,0.0,VIAL,6.0,WEEK 16,TREATMENT,2024-09-05,113
I8F-JE-GPGO-SURPASS,DA,I8F-JE-GPGO-SURPASS-JPN_HIROSHIMA01-0019,26,RETAMT,Returned Amount,0.0,VIAL,0.0,0.0,VIAL,6.0,,TREATMENT,2024-06-20,36
I8F-JE-GPGO-SURPASS,DA,I8F-JE-GPGO-SURPASS-JPN_HIROSHIMA01-0019,27,RETAMT,Returned Amount,0.0,VIAL,0.0,0.0,VIAL,6.0,WEEK 16,TREATMENT,2024-09-05,113
I8F-JE-GPGO-SURPASS,DA,I8F-JE-GPGO-SURPASS-JPN_HIROSHIMA01-0019,28,DISPAMT,Dispensed Amount,1.0,VIAL,1.0,1.0,VIAL,7.0,,TREATMENT,2024-06-27,43
I8F-JE-GPGO-SURPASS,DA,I8F-JE-GPGO-SURPASS-JPN_HIROSHIMA01-0019,29,DISPAMT,Dispensed Amount,1.0,VIAL,1.0,1.0,VIAL,7.0,WEEK 20,TREATMENT,2024-10-03,141
I8F-JE-GPGO-SURPASS,DA,I8F-JE-GPGO-SURPASS-JPN_HIROSHIMA01-0019,30,REMAMT,Remaining Amount,1.0,VIAL,1.0,1.0,VIAL,7.0,,TREATMENT,2024-06-27,43
I8F-JE-GPGO-SURPASS,DA,I8F-JE-GPGO-SURPASS-JPN_HIROSHIMA01-0019,31,REMAMT,Remaining Amount,1.0,VIAL,1.0,1.0,VIAL,7.0,WEEK 20,TREATMENT,2024-10-03,141
I8F-JE-GPGO-SURPASS,DA,I8F-JE-GPGO-SURPASS-JPN_HIROSHIMA01-0019,32,RETAMT,Returned Amount,1.0,VIAL,1.0,1.0,VIAL,7.0,,TREATMENT,2024-06-27,43
I8F-JE-GPGO-SURPASS,DA,I8F-JE-GPGO-SURPASS-JPN_HIROSHIMA01-0019,33,RETAMT,Returned Amount,1.0,VIAL,1.0,1.0,VIAL,7.0,WEEK 20,TREATMENT,2024-10-03,141
I8F-JE-GPGO-SURPASS,DA,I8F-JE-GPGO-SURPASS-JPN_HIROSHIMA01-0019,34,DISPAMT,Dispensed Amount,1.0,VIAL,1.0,1.0,VIAL,8.0,,TREATMENT,2024-07-04,50
I8F-JE-GPGO-SURPASS,DA,I8F-JE-GPGO-SURPASS-JPN_HIROSHIMA01-0019,35,DISPAMT,Dispensed Amount,1.0,VIAL,1.0,1.0,VIAL,8.0,WEEK 24,TREATMENT,2024-10-31,169
I8F-JE-GPGO-SURPASS,DA,I8F-JE-GPGO-SURPASS-JPN_HIROSHIMA01-0019,36,REMAMT,Remaining Amount,0.0,VIAL,0.0,0.0,VIAL,8.0,,TREATMENT,2024-07-04,50
I8F-JE-GPGO-SURPASS,DA,I8F-JE-GPGO-SURPASS-JPN_HIROSHIMA01-0019,37,REMAMT,Remaining Amount,0.0,VIAL,0.0,0.0,VIAL,8.0,WEEK 24,TREATMENT,2024-10-31,169
I8F-JE-GPGO-SURPASS,DA,I8F-JE-GPGO-SURPASS-JPN_HIROSHIMA01-0019,38,RETAMT,Returned Amount,0.0,VIAL,0.0,0.0,VIAL,8.0,,TREATMENT,2024-07-04,50
I8F-JE-GPGO-SURPASS,DA,I8F-JE-GPGO-SURPASS-JPN_HIROSHIMA01-0019,39,RETAMT,Returned Amount,0.0,VIAL,0.0,0.0,VIAL,8.0,WEEK 24,TREATMENT,2024-10-31,169
I8F-JE-GPGO-SURPASS,DA,I8F-JE-GPGO-SURPASS-JPN_HIROSHIMA01-0019,40,DISPAMT,Dispensed Amount,1.0,VIAL,1.0,1.0,VIAL,9.0,WEEK 32,TREATMENT,2024-12-26,225
I8F-JE-GPGO-SURPASS,DA,I8F-JE-GPGO-SURPASS-JPN_HIROSHIMA01-0019,41,REMAMT,Remaining Amount,0.0,VIAL,0.0,0.0,VIAL,9.0,WEEK 32,TREATMENT,2024-12-26,225
I8F-JE-GPGO-SURPASS,DA,I8F-JE-GPGO-SURPASS-JPN_HIROSHIMA01-0019,42,RETAMT,Returned Amount,0.0,VIAL,0.0,0.0,VIAL,9.0,WEEK 32,TREATMENT,2024-12-26,225
I8F-JE-GPGO-SURPASS,DA,I8F-JE-GPGO-SURPASS-JPN_HIROSHIMA01-0019,43,DISPAMT,Dispensed Amount,1.0,VIAL,1.0,1.0,VIAL,10.0,,TREATMENT,2024-07-18,64
I8F-JE-GPGO-SURPASS,DA,I8F-JE-GPGO-SURPASS-JPN_HIROSHIMA01-0019,44,DISPAMT,Dispensed Amount,1.0,VIAL,1.0,1.0,VIAL,10.0,WEEK 40,TREATMENT,2025-02-20,281
I8F-JE-GPGO-SURPASS,DA,I8F-JE-GPGO-SURPASS-JPN_HIROSHIMA01-0019,45,REMAMT,Remaining Amount,0.0,VIAL,0.0,0.0,VIAL,10.0,,TREATMENT,2024-07-18,64
I8F-JE-GPGO-SURPASS,DA,I8F-JE-GPGO-SURPASS-JPN_HIROSHIMA01-0019,46,REMAMT,Remaining Amount,0.0,VIAL,0.0,0.0,VIAL,10.0,WEEK 40,TREATMENT,2025-02-20,281
I8F-JE-GPGO-SURPASS,DA,I8F-JE-GPGO-SURPASS-JPN_HIROSHIMA01-0019,47,RETAMT,Returned Amount,0.0,VIAL,0.0,0.0,VIAL,10.0,,TREATMENT,2024-07-18,64
I8F-JE-GPGO-SURPASS,DA,I8F-JE-GPGO-SURPASS-JPN_HIROSHIMA01-0019,48,RETAMT,Returned Amount,0.0,VIAL,0.0,0.0,VIAL,10.0,WEEK 40,TREATMENT,2025-02-20,281
I8F-JE-GPGO-SURPASS,DA,I8F-JE-GPGO-SURPASS-JPN_HIROSHIMA01-0019,49,DISPAMT,Dispensed Amount,1.0,VIAL,1.0,1.0,VIAL,11.0,,TREATMENT,2024-07-25,71
I8F-JE-GPGO-SURPASS,DA,I8F-JE-GPGO-SURPASS-JPN_HIROSHIMA01-0019,50,REMAMT,Remaining Amount,0.0,VIAL,0.0,0.0,VIAL,11.0,,TREATMENT,2024-07-25,71
I8F-JE-GPGO-SURPASS,DA,I8F-JE-GPGO-SURPASS-JPN_HIROSHIMA01-0019,51,RETAMT,Returned Amount,0.0,VIAL,0.0,0.0,VIAL,11.0,,TREATMENT,2024-07-25,71
I8F-JE-GPGO-SURPASS,DA,I8F-JE-GPGO-SURPASS-JPN_HIROSHIMA01-0019,52,DISPAMT,Dispensed Amount,1.0,VIAL,1.0,1.0,VIAL,12.0,,TREATMENT,2024-08-01,78
I8F-JE-GPGO-SURPASS,DA,I8F-JE-GPGO-SURPASS-JPN_HIROSHIMA01-0019,53,REMAMT,Remaining Amount,1.0,VIAL,1.0,1.0,VIAL,12.0,,TREATMENT,2024-08-01,78
I8F-JE-GPGO-SURPASS,DA,I8F-JE-GPGO-SURPASS-JPN_HIROSHIMA01-0019,54,RETAMT,Returned Amount,1.0,VIAL,1.0,1.0,VIAL,12.0,,TREATMENT,2024-08-01,78
I8F-JE-GPGO-SURPASS,DA,I8F-JE-GPGO-SURPASS-JPN_HIROSHIMA01-0019,55,DISPAMT,Dispensed Amount,1.0,VIAL,1.0,1.0,VIAL,14.0,,TREATMENT,2024-08-15,92
I8F-JE-GPGO-SURPASS,DA,I8F-JE-GPGO-SURPASS-JPN_HIROSHIMA01-0019,56,REMAMT,Remaining Amount,0.0,VIAL,0.0,0.0,VIAL,14.0,,TREATMENT,2024-08-15,92
I8F-JE-GPGO-SURPASS,DA,I8F-JE-GPGO-SURPASS-JPN_HIROSHIMA01-0019,57,RETAMT,Returned Amount,0.0,VIAL,0.0,0.0,VIAL,14.0,,TREATMENT,2024-08-15,92
I8F-JE-GPGO-SURPASS,DA,I8F-JE-GPGO-SURPASS-JPN_HIROSHIMA01-0019,58,DISPAMT,Dispensed Amount,1.0,VIAL,1.0,1.0,VIAL,15.0,,TREATMENT,2024-08-22,99
I8F-JE-GPGO-SURPASS,DA,I8F-JE-GPGO-SURPASS-JPN_HIROSHIMA01-0019,59,REMAMT,Remaining Amount,1.0,VIAL,1.0,1.0,VIAL,15.0,,TREATMENT,2024-08-22,99
I8F-JE-GPGO-SURPASS,DA,I8F-JE-GPGO-SURPASS-JPN_HIROSHIMA01-0019,60,RETAMT,Returned Amount,1.0,VIAL,1.0,1.0,VIAL,15.0,,TREATMENT,2024-08-22,99
I8F-JE-GPGO-SURPASS,DA,I8F-JE-GPGO-SURPASS-JPN_HIROSHIMA01-0019,61,DISPAMT,Dispensed Amount,1.0,VIAL,1.0,1.0,VIAL,16.0,,TREATMENT,2024-08-29,106
I8F-JE-GPGO-SURPASS,DA,I8F-JE-GPGO-SURPASS-JPN_HIROSHIMA01-0019,62,REMAMT,Remaining Amount,0.0,VIAL,0.0,0.0,VIAL,16.0,,TREATMENT,2024-08-29,106
I8F-JE-GPGO-SURPASS,DA,I8F-JE-GPGO-SURPASS-JPN_HIROSHIMA01-0019,63,RETAMT,Returned Amount,0.0,VIAL,0.0,0.0,VIAL,16.0,,TREATMENT,2024-08-29,106
I8F-JE-GPGO-SURPASS,DA,I8F-JE-GPGO-SURPASS-JPN_HIROSHIMA01-0019,64,DISPAMT,Dispensed Amount,1.0,VIAL,1.0,1.0,VIAL,18.0,,TREATMENT,2024-09-12,120
I8F-JE-GPGO-SURPASS,DA,I8F-JE-GPGO-SURPASS-JPN_HIROSHIMA01-0019,65,REMAMT,Remaining Amount,0.0,VIAL,0.0,0.0,VIAL,18.0,,TREATMENT,2024-09-12,120
I8F-JE-GPGO-SURPASS,DA,I8F-JE-GPGO-SURPASS-JPN_HIROSHIMA01-0019,66,RETAMT,Returned Amount,0.0,VIAL,0.0,0.0,VIAL,18.0,,TREATMENT,2024-09-12,120
I8F-JE-GPGO-SURPASS,DA,I8F-JE-GPGO-SURPASS-JPN_HIROSHIMA01-0019,67,DISPAMT,Dispensed Amount,1.0,VIAL,1.0,1.0,VIAL,19.0,,TREATMENT,2024-09-19,127
I8F-JE-GPGO-SURPASS,DA,I8F-JE-GPGO-SURPASS-JPN_HIROSHIMA01-0019,68,REMAMT,Remaining Amount,0.0,VIAL,0.0,0.0,VIAL,19.0,,TREATMENT,2024-09-19,127
I8F-JE-GPGO-SURPASS,DA,I8F-JE-GPGO-SURPASS-JPN_HIROSHIMA01-0019,69,RETAMT,Returned Amount,0.0,VIAL,0.0,0.0,VIAL,19.0,,TREATMENT,2024-09-19,127
I8F-JE-GPGO-SURPASS,DA,I8F-JE-GPGO-SURPASS-JPN_HIROSHIMA01-0019,70,DISPAMT,Dispensed Amount,1.0,VIAL,1.0,1.0,VIAL,20.0,,TREATMENT,2024-09-26,134
I8F-JE-GPGO-SURPASS,DA,I8F-JE-GPGO-SURPASS-JPN_HIROSHIMA01-0019,71,REMAMT,Remaining Amount,0.0,VIAL,0.0,0.0,VIAL,20.0,,TREATMENT,2024-09-26,134
I8F-JE-GPGO-SURPASS,DA,I8F-JE-GPGO-SURPASS-JPN_HIROSHIMA01-0019,72,RETAMT,Returned Amount,0.0,VIAL,0.0,0.0,VIAL,20.0,,TREATMENT,2024-09-26,134
I8F-JE-GPGO-SURPASS,DA,I8F-JE-GPGO-SURPASS-JPN_HIROSHIMA01-0019,73,DISPAMT,Dispensed Amount,1.0,VIAL,1.0,1.0,VIAL,22.0,,TREATMENT,2024-10-10,148
I8F-JE-GPGO-SURPASS,DA,I8F-JE-GPGO-SURPASS-JPN_HIROSHIMA01-0019,74,REMAMT,Remaining Amount,0.0,VIAL,0.0,0.0,VIAL,22.0,,TREATMENT,2024-10-10,148
I8F-JE-GPGO-SURPASS,DA,I8F-JE-GPGO-SURPASS-JPN_HIROSHIMA01-0019,75,RETAMT,Returned Amount,0.0,VIAL,0.0,0.0,VIAL,22.0,,TREATMENT,2024-10-10,148
I8F-JE-GPGO-SURPASS,DA,I8F-JE-GPGO-SURPASS-JPN_HIROSHIMA01-0019,76,DISPAMT,Dispensed Amount,1.0,VIAL,1.0,1.0,VIAL,23.0,,TREATMENT,2024-10-17,155
I8F-JE-GPGO-SURPASS,DA,I8F-JE-GPGO-SURPASS-JPN_HIROSHIMA01-0019,77,REMAMT,Remaining Amount,0.0,VIAL,0.0,0.0,VIAL,23.0,,TREATMENT,2024-10-17,155
I8F-JE-GPGO-SURPASS,DA,I8F-JE-GPGO-SURPASS-JPN_HIROSHIMA01-0019,78,RETAMT,Returned Amount,0.0,VIAL,0.0,0.0,VIAL,23.0,,TREATMENT,2024-10-17,155
I8F-JE-GPGO-SURPASS,DA,I8F-JE-GPGO-SURPASS-JPN_HIROSHIMA01-0019,79,DISPAMT,Dispensed Amount,1.0,VIAL,1.0,1.0,VIAL,24.0,,TREATMENT,2024-10-24,162
I8F-JE-GPGO-SURPASS,DA,I8F-JE-GPGO-SURPASS-JPN_HIROSHIMA01-0019,80,REMAMT,Remaining Amount,0.0,VIAL,0.0,0.0,VIAL,24.0,,TREATMENT,2024-10-24,162
I8F-JE-GPGO-SURPASS,DA,I8F-JE-GPGO-SURPASS-JPN_HIROSHIMA01-0019,81,RETAMT,Returned Amount,0.0,VIAL,0.0,0.0,VIAL,24.0,,TREATMENT,2024-10-24,162
I8F-JE-GPGO-SURPASS,DA,I8F-JE-GPGO-SURPASS-JPN_HIROSHIMA01-0019,82,DISPAMT,Dispensed Amount,1.0,VIAL,1.0,1.0,VIAL,26.0,,TREATMENT,2024-11-07,176
I8F-JE-GPGO-SURPASS,DA,I8F-JE-GPGO-SURPASS-JPN_HIROSHIMA01-0019,83,REMAMT,Remaining Amount,0.0,VIAL,0.0,0.0,VIAL,26.0,,TREATMENT,2024-11-07,176
I8F-JE-GPGO-SURPASS,DA,I8F-JE-GPGO-SURPASS-JPN_HIROSHIMA01-0019,84,RETAMT,Returned Amount,0.0,VIAL,0.0,0.0,VIAL,26.0,,TREATMENT,2024-11-07,176
I8F-JE-GPGO-SURPASS,DA,I8F-JE-GPGO-SURPASS-JPN_HIROSHIMA01-0019,85,DISPAMT,Dispensed Amount,1.0,VIAL,1.0,1.0,VIAL,27.0,,TREATMENT,2024-11-14,183
I8F-JE-GPGO-SURPASS,DA,I8F-JE-GPGO-SURPASS-JPN_HIROSHIMA01-0019,86,REMAMT,Remaining Amount,0.0,VIAL,0.0,0.0,VIAL,27.0,,TREATMENT,2024-11-14,183
I8F-JE-GPGO-SURPASS,DA,I8F-JE-GPGO-SURPASS-JPN_HIROSHIMA01-0019,87,RETAMT,Returned Amount,0.0,VIAL,0.0,0.0,VIAL,27.0,,TREATMENT,2024-11-14,183
I8F-JE-GPGO-SURPASS,DA,I8F-JE-GPGO-SURPASS-JPN_HIROSHIMA01-0019,88,DISPAMT,Dispensed Amount,1.0,VIAL,1.0,1.0,VIAL,28.0,,TREATMENT,2024-11-21,190
I8F-JE-GPGO-SURPASS,DA,I8F-JE-GPGO-SURPASS-JPN_HIROSHIMA01-0019,89,REMAMT,Remaining Amount,0.0,VIAL,0.0,0.0,VIAL,28.0,,TREATMENT,2024-11-21,190
I8F-JE-GPGO-SURPASS,DA,I8F-JE-GPGO-SURPASS-JPN_HIROSHIMA01-0019,90,RETAMT,Returned Amount,0.0,VIAL,0.0,0.0,VIAL,28.0,,TREATMENT,2024-11-21,190
I8F-JE-GPGO-SURPASS,DA,I8F-JE-GPGO-SURPASS-JPN_HIROSHIMA01-0019,91,DISPAMT,Dispensed Amount,1.0,VIAL,1.0,1.0,VIAL,29.0,,TREATMENT,2024-11-28,197
I8F-JE-GPGO-SURPASS,DA,I8F-JE-GPGO-SURPASS-JPN_HIROSHIMA01-0019,92,REMAMT,Remaining Amount,0.0,VIAL,0.0,0.0,VIAL,29.0,,TREATMENT,2024-11-28,197
I8F-JE-GPGO-SURPASS,DA,I8F-JE-GPGO-SURPASS-JPN_HIROSHIMA01-0019,93,RETAMT,Returned Amount,0.0,VIAL,0.0,0.0,VIAL,29.0,,TREATMENT,2024-11-28,197
I8F-JE-GPGO-SURPASS,DA,I8F-JE-GPGO-SURPASS-JPN_HIROSHIMA01-0019,94,DISPAMT,Dispensed Amount,1.0,VIAL,1.0,1.0,VIAL,30.0,,TREATMENT,2024-12-05,204
I8F-JE-GPGO-SURPASS,DA,I8F-JE-GPGO-SURPASS-JPN_HIROSHIMA01-0019,95,REMAMT,Remaining Amount,0.0,VIAL,0.0,0.0,VIAL,30.0,,TREATMENT,2024-12-05,204
I8F-JE-GPGO-SURPASS,DA,I8F-JE-GPGO-SURPASS-JPN_HIROSHIMA01-0019,96,RETAMT,Returned Amount,0.0,VIAL,0.0,0.0,VIAL,30.0,,TREATMENT,2024-12-05,204
I8F-JE-GPGO-SURPASS,DA,I8F-JE-GPGO-SURPASS-JPN_HIROSHIMA01-0019,97,DISPAMT,Dispensed Amount,1.0,VIAL,1.0,1.0,VIAL,31.0,,TREATMENT,2024-12-12,211
I8F-JE-GPGO-SURPASS,DA,I8F-JE-GPGO-SURPASS-JPN_HIROSHIMA01-0019,98,REMAMT,Remaining Amount,0.0,VIAL,0.0,0.0,VIAL,31.0,,TREATMENT,2024-12-12,211
I8F-JE-GPGO-SURPASS,DA,I8F-JE-GPGO-SURPASS-JPN_HIROSHIMA01-0019,99,RETAMT,Returned Amount,0.0,VIAL,0.0,0.0,VIAL,31.0,,TREATMENT,2024-12-12,211
I8F-JE-GPGO-SURPASS,DA,I8F-JE-GPGO-SURPASS-JPN_HIROSHIMA01-0019,100,DISPAMT,Dispensed Amount,1.0,VIAL,1.0,1.0,VIAL,32.0,,TREATMENT,2024-12-19,218
I8F-JE-GPGO-SURPASS,DA,I8F-JE-GPGO-SURPASS-JPN_HIROSHIMA01-0019,101,REMAMT,Remaining Amount,1.0,VIAL,1.0,1.0,VIAL,32.0,,TREATMENT,2024-12-19,218
I8F-JE-GPGO-SURPASS,DA,I8F-JE-GPGO-SURPASS-JPN_HIROSHIMA01-0019,102,RETAMT,Returned Amount,1.0,VIAL,1.0,1.0,VIAL,32.0,,TREATMENT,2024-12-19,218
I8F-JE-GPGO-SURPASS,DA,I8F-JE-GPGO-SURPASS-JPN_HIROSHIMA01-0019,103,DISPAMT,Dispensed Amount,1.0,VIAL,1.0,1.0,VIAL,34.0,,TREATMENT,2025-01-02,232
I8F-JE-GPGO-SURPASS,DA,I8F-JE-GPGO-SURPASS-JPN_HIROSHIMA01-0019,104,REMAMT,Remaining Amount,1.0,VIAL,1.0,1.0,VIAL,34.0,,TREATMENT,2025-01-02,232
I8F-JE-GPGO-SURPASS,DA,I8F-JE-GPGO-SURPASS-JPN_HIROSHIMA01-0019,105,RETAMT,Returned Amount,1.0,VIAL,1.0,1.0,VIAL,34.0,,TREATMENT,2025-01-02,232
I8F-JE-GPGO-SURPASS,DA,I8F-JE-GPGO-SURPASS-JPN_HIROSHIMA01-0019,106,DISPAMT,Dispensed Amount,1.0,VIAL,1.0,1.0,VIAL,35.0,,TREATMENT,2025-01-09,239
I8F-JE-GPGO-SURPASS,DA,I8F-JE-GPGO-SURPASS-JPN_HIROSHIMA01-0019,107,REMAMT,Remaining Amount,1.0,VIAL,1.0,1.0,VIAL,35.0,,TREATMENT,2025-01-09,239
I8F-JE-GPGO-SURPASS,DA,I8F-JE-GPGO-SURPASS-JPN_HIROSHIMA01-0019,108,RETAMT,Returned Amount,1.0,VIAL,1.0,1.0,VIAL,35.0,,TREATMENT,2025-01-09,239
I8F-JE-GPGO-SURPASS,DA,I8F-JE-GPGO-SURPASS-JPN_HIROSHIMA01-0019,109,DISPAMT,Dispensed Amount,1.0,VIAL,1.0,1.0,VIAL,36.0,,TREATMENT,2025-01-16,246
I8F-JE-GPGO-SURPASS,DA,I8F-JE-GPGO-SURPASS-JPN_HIROSHIMA01-0019,110,REMAMT,Remaining Amount,0.0,VIAL,0.0,0.0,VIAL,36.0,,TREATMENT,2025-01-16,246
I8F-JE-GPGO-SURPASS,DA,I8F-JE-GPGO-SURPASS-JPN_HIROSHIMA01-0019,111,RETAMT,Returned Amount,0.0,VIAL,0.0,0.0,VIAL,36.0,,TREATMENT,2025-01-16,246
I8F-JE-GPGO-SURPASS,DA,I8F-JE-GPGO-SURPASS-JPN_HIROSHIMA01-0019,112,DISPAMT,Dispensed Amount,1.0,VIAL,1.0,1.0,VIAL,37.0,,TREATMENT,2025-01-23,253
I8F-JE-GPGO-SURPASS,DA,I8F-JE-GPGO-SURPASS-JPN_HIROSHIMA01-0019,113,REMAMT,Remaining Amount,0.0,VIAL,0.0,0.0,VIAL,37.0,,TREATMENT,2025-01-23,253
I8F-JE-GPGO-SURPASS,DA,I8F-JE-GPGO-SURPASS-JPN_HIROSHIMA01-0019,114,RETAMT,Returned Amount,0.0,VIAL,0.0,0.0,VIAL,37.0,,TREATMENT,2025-01-23,253
I8F-JE-GPGO-SURPASS,DA,I8F-JE-GPGO-SURPASS-JPN_HIROSHIMA01-0019,115,DISPAMT,Dispensed Amount,1.0,VIAL,1.0,1.0,VIAL,38.0,,TREATMENT,2025-01-30,260
I8F-JE-GPGO-SURPASS,DA,I8F-JE-GPGO-SURPASS-JPN_HIROSHIMA01-0019,116,REMAMT,Remaining Amount,0.0,VIAL,0.0,0.0,VIAL,38.0,,TREATMENT,2025-01-30,260
I8F-JE-GPGO-SURPASS,DA,I8F-JE-GPGO-SURPASS-JPN_HIROSHIMA01-0019,117,RETAMT,Returned Amount,0.0,VIAL,0.0,0.0,VIAL,38.0,,TREATMENT,2025-01-30,260
I8F-JE-GPGO-SURPASS,DA,I8F-JE-GPGO-SURPASS-JPN_HIROSHIMA01-0019,118,DISPAMT,Dispensed Amount,1.0,VIAL,1.0,1.0,VIAL,39.0,,TREATMENT,2025-02-06,267
I8F-JE-GPGO-SURPASS,DA,I8F-JE-GPGO-SURPASS-JPN_HIROSHIMA01-0019,119,REMAMT,Remaining Amount,0.0,VIAL,0.0,0.0,VIAL,39.0,,TREATMENT,2025-02-06,267
I8F-JE-GPGO-SURPASS,DA,I8F-JE-GPGO-SURPASS-JPN_HIROSHIMA01-0019,120,RETAMT,Returned Amount,0.0,VIAL,0.0,0.0,VIAL,39.0,,TREATMENT,2025-02-06,267
I8F-JE-GPGO-SURPASS,DA,I8F-JE-GPGO-SURPASS-JPN_HIROSHIMA01-0019,121,DISPAMT,Dispensed Amount,1.0,VIAL,1.0,1.0,VIAL,40.0,,TREATMENT,2025-02-13,274
I8F-JE-GPGO-SURPASS,DA,I8F-JE-GPGO-SURPASS-JPN_HIROSHIMA01-0019,122,REMAMT,Remaining Amount,0.0,VIAL,0.0,0.0,VIAL,40.0,,TREATMENT,2025-02-13,274
I8F-JE-GPGO-SURPASS,DA,I8F-JE-GPGO-SURPASS-JPN_HIROSHIMA01-0019,123,RETAMT,Returned Amount,0.0,VIAL,0.0,0.0,VIAL,40.0,,TREATMENT,2025-02-13,274
I8F-JE-GPGO-SURPASS,DA,I8F-JE-GPGO-SURPASS-JPN_HIROSHIMA01-0019,124,DISPAMT,Dispensed Amount,1.0,VIAL,1.0,1.0,VIAL,42.0,,TREATMENT,2025-02-27,288
I8F-JE-GPGO-SURPASS,DA,I8F-JE-GPGO-SURPASS-JPN_HIROSHIMA01-0019,125,REMAMT,Remaining Amount,0.0,VIAL,0.0,0.0,VIAL,42.0,,TREATMENT,2025-02-27,288
I8F-JE-GPGO-SURPASS,DA,I8F-JE-GPGO-SURPASS-JPN_HIROSHIMA01-0019,126,RETAMT,Returned Amount,0.0,VIAL,0.0,0.0,VIAL,42.0,,TREATMENT,2025-02-27,288
I8F-JE-GPGO-SURPASS,DA,I8F-JE-GPGO-SURPASS-JPN_HIROSHIMA01-0019,127,DISPAMT,Dispensed Amount,1.0,VIAL,1.0,1.0,VIAL,43.0,,TREATMENT,2025-03-06,295
I8F-JE-GPGO-SURPASS,DA,I8F-JE-GPGO-SURPASS-JPN_HIROSHIMA01-0019,128,REMAMT,Remaining Amount,1.0,VIAL,1.0,1.0,VIAL,43.0,,TREATMENT,2025-03-06,295
I8F-JE-GPGO-SURPASS,DA,I8F-JE-GPGO-SURPASS-JPN_HIROSHIMA01-0019,129,RETAMT,Returned Amount,1.0,VIAL,1.0,1.0,VIAL,43.0,,TREATMENT,2025-03-06,295
I8F-JE-GPGO-SURPASS,DA,I8F-JE-GPGO-SURPASS-JPN_HIROSHIMA01-0019,130,DISPAMT,Dispensed Amount,1.0,VIAL,1.0,1.0,VIAL,44.0,,TREATMENT,2025-03-13,302
I8F-JE-GPGO-SURPASS,DA,I8F-JE-GPGO-SURPASS-JPN_HIROSHIMA01-0019,131,REMAMT,Remaining Amount,0.0,VIAL,0.0,0.0,VIAL,44.0,,TREATMENT,2025-03-13,302
I8F-JE-GPGO-SURPASS,DA,I8F-JE-GPGO-SURPASS-JPN_HIROSHIMA01-0019,132,RETAMT,Returned Amount,0.0,VIAL,0.0,0.0,VIAL,44.0,,TREATMENT,2025-03-13,302
I8F-JE-GPGO-SURPASS,DA,I8F-JE-GPGO-SURPASS-JPN_HIROSHIMA01-0019,133,DISPAMT,Dispensed Amount,1.0,VIAL,1.0,1.0,VIAL,45.0,,TREATMENT,2025-03-20,309
I8F-JE-GPGO-SURPASS,DA,I8F-JE-GPGO-SURPASS-JPN_HIROSHIMA01-0019,134,REMAMT,Remaining Amount,1.0,VIAL,1.0,1.0,VIAL,45.0,,TREATMENT,2025-03-20,309
I8F-JE-GPGO-SURPASS,DA,I8F-JE-GPGO-SURPASS-JPN_HIROSHIMA01-0019,135,RETAMT,Returned Amount,1.0,VIAL,1.0,1.0,VIAL,45.0,,TREATMENT,2025-03-20,309
I8F-JE-GPGO-SURPASS,DA,I8F-JE-GPGO-SURPASS-JPN_HIROSHIMA01-0019,136,DISPAMT,Dispensed Amount,1.0,VIAL,1.0,1.0,VIAL,46.0,,TREATMENT,2025-03-27,316
I8F-JE-GPGO-SURPASS,DA,I8F-JE-GPGO-SURPASS-JPN_HIROSHIMA01-0019,137,REMAMT,Remaining Amount,0.0,VIAL,0.0,0.0,VIAL,46.0,,TREATMENT,2025-03-27,316
I8F-JE-GPGO-SURPASS,DA,I8F-JE-GPGO-SURPASS-JPN_HIROSHIMA01-0019,138,RETAMT,Returned Amount,0.0,VIAL,0.0,0.0,VIAL,46.0,,TREATMENT,2025-03-27,316
I8F-JE-GPGO-SURPASS,DA,I8F-JE-GPGO-SURPASS-JPN_HIROSHIMA01-0019,139,DISPAMT,Dispensed Amount,1.0,VIAL,1.0,1.0,VIAL,47.0,,TREATMENT,2025-04-03,323
I8F-JE-GPGO-SURPASS,DA,I8F-JE-GPGO-SURPASS-JPN_HIROSHIMA01-0019,140,REMAMT,Remaining Amount,0.0,VIAL,0.0,0.0,VIAL,47.0,,TREATMENT,2025-04-03,323
I8F-JE-GPGO-SURPASS,DA,I8F-JE-GPGO-SURPASS-JPN_HIROSHIMA01-0019,141,RETAMT,Returned Amount,0.0,VIAL,0.0,0.0,VIAL,47.0,,TREATMENT,2025-04-03,323
I8F-JE-GPGO-SURPASS,DA,I8F-JE-GPGO-SURPASS-JPN_HIROSHIMA01-0019,142,DISPAMT,Dispensed Amount,1.0,VIAL,1.0,1.0,VIAL,48.0,,TREATMENT,2025-04-10,330
I8F-JE-GPGO-SURPASS,DA,I8F-JE-GPGO-SURPASS-JPN_HIROSHIMA01-0019,143,REMAMT,Remaining Amount,0.0,VIAL,0.0,0.0,VIAL,48.0,,TREATMENT,2025-04-10,330
I8F-JE-GPGO-SURPASS,DA,I8F-JE-GPGO-SURPASS-JPN_HIROSHIMA01-0019,144,RETAMT,Returned Amount,0.0,VIAL,0.0,0.0,VIAL,48.0,,TREATMENT,2025-04-10,330
I8F-JE-GPGO-SURPASS,DA,I8F-JE-GPGO-SURPASS-JPN_HIROSHIMA01-0019,145,DISPAMT,Dispensed Amount,1.0,VIAL,1.0,1.0,VIAL,49.0,,TREATMENT,2025-04-17,337
I8F-JE-GPGO-SURPASS,DA,I8F-JE-GPGO-SURPASS-JPN_HIROSHIMA01-0019,146,REMAMT,Remaining Amount,0.0,VIAL,0.0,0.0,VIAL,49.0,,TREATMENT,2025-04-17,337
I8F-JE-GPGO-SURPASS,DA,I8F-JE-GPGO-SURPASS-JPN_HIROSHIMA01-0019,147,RETAMT,Returned Amount,0.0,VIAL,0.0,0.0,VIAL,49.0,,TREATMENT,2025-04-17,337
I8F-JE-GPGO-SURPASS,DA,I8F-JE-GPGO-SURPASS-JPN_HIROSHIMA01-0019,148,DISPAMT,Dispensed Amount,1.0,VIAL,1.0,1.0,VIAL,50.0,,TREATMENT,2025-04-24,344
I8F-JE-GPGO-SURPASS,DA,I8F-JE-GPGO-SURPASS-JPN_HIROSHIMA01-0019,149,REMAMT,Remaining Amount,0.0,VIAL,0.0,0.0,VIAL,50.0,,TREATMENT,2025-04-24,344
I8F-JE-GPGO-SURPASS,DA,I8F-JE-GPGO-SURPASS-JPN_HIROSHIMA01-0019,150,RETAMT,Returned Amount,0.0,VIAL,0.0,0.0,VIAL,50.0,,TREATMENT,2025-04-24,344
I8F-JE-GPGO-SURPASS,DA,I8F-JE-GPGO-SURPASS-JPN_HIROSHIMA01-0019,151,DISPAMT,Dispensed Amount,1.0,VIAL,1.0,1.0,VIAL,51.0,,TREATMENT,2025-05-01,351
I8F-JE-GPGO-SURPASS,DA,I8F-JE-GPGO-SURPASS-JPN_HIROSHIMA01-0019,152,REMAMT,Remaining Amount,0.0,VIAL,0.0,0.0,VIAL,51.0,,TREATMENT,2025-05-01,351
I8F-JE-GPGO-SURPASS,DA,I8F-JE-GPGO-SURPASS-JPN_HIROSHIMA01-0019,153,RETAMT,Returned Amount,0.0,VIAL,0.0,0.0,VIAL,51.0,,TREATMENT,2025-05-01,351
I8F-JE-GPGO-SURPASS,DA,I8F-JE-GPGO-SURPASS-JPN_HIROSHIMA01-0019,154,DISPAMT,Dispensed Amount,1.0,VIAL,1.0,1.0,VIAL,52.0,,TREATMENT,2025-05-08,358
I8F-JE-GPGO-SURPASS,DA,I8F-JE-GPGO-SURPASS-JPN_HIROSHIMA01-0019,155,REMAMT,Remaining Amount,0.0,VIAL,0.0,0.0,VIAL,52.0,,TREATMENT,2025-05-08,358
I8F-JE-GPGO-SURPASS,DA,I8F-JE-GPGO-SURPASS-JPN_HIROSHIMA01-0019,156,RETAMT,Returned Amount,0.0,VIAL,0.0,0.0,VIAL,52.0,,TREATMENT,2025-05-08,358
I8F-JE-GPGO-SURPASS,DA,I8F-JE-GPGO-SURPASS-JPN_KAWASAKI01-0018,1,DISPAMT,Dispensed Amount,1.0,VIAL,1.0,1.0,VIAL,2.0,BASELINE,TREATMENT,2024-03-20,1
I8F-JE-GPGO-SURPASS,DA,I8F-JE-GPGO-SURPASS-JPN_KAWASAKI01-0018,2,DISPAMT,Dispensed Amount,1.0,VIAL,1.0,1.0,VIAL,2.0,,TREATMENT,2024-03-27,8
I8F-JE-GPGO-SURPASS,DA,I8F-JE-GPGO-SURPASS-JPN_KAWASAKI01-0018,3,REMAMT,Remaining Amount,0.0,VIAL,0.0,0.0,VIAL,2.0,BASELINE,TREATMENT,2024-03-20,1
I8F-JE-GPGO-SURPASS,DA,I8F-JE-GPGO-SURPASS-JPN_KAWASAKI01-0018,4,REMAMT,Remaining Amount,0.0,VIAL,0.0,0.0,VIAL,2.0,,TREATMENT,2024-03-27,8
I8F-JE-GPGO-SURPASS,DA,I8F-JE-GPGO-SURPASS-JPN_KAWASAKI01-0018,5,RETAMT,Returned Amount,0.0,VIAL,0.0,0.0,VIAL,2.0,BASELINE,TREATMENT,2024-03-20,1
I8F-JE-GPGO-SURPASS,DA,I8F-JE-GPGO-SURPASS-JPN_KAWASAKI01-0018,6,RETAMT,Returned Amount,0.0,VIAL,0.0,0.0,VIAL,2.0,,TREATMENT,2024-03-27,8
I8F-JE-GPGO-SURPASS,DA,I8F-JE-GPGO-SURPASS-JPN_KAWASAKI01-0018,7,DISPAMT,Dispensed Amount,1.0,VIAL,1.0,1.0,VIAL,3.0,,TREATMENT,2024-04-03,15
I8F-JE-GPGO-SURPASS,DA,I8F-JE-GPGO-SURPASS-JPN_KAWASAKI01-0018,8,DISPAMT,Dispensed Amount,1.0,VIAL,1.0,1.0,VIAL,3.0,WEEK 4,TREATMENT,2024-04-17,29
I8F-JE-GPGO-SURPASS,DA,I8F-JE-GPGO-SURPASS-JPN_KAWASAKI01-0018,9,REMAMT,Remaining Amount,0.0,VIAL,0.0,0.0,VIAL,3.0,,TREATMENT,2024-04-03,15
I8F-JE-GPGO-SURPASS,DA,I8F-JE-GPGO-SURPASS-JPN_KAWASAKI01-0018,10,REMAMT,Remaining Amount,0.0,VIAL,0.0,0.0,VIAL,3.0,WEEK 4,TREATMENT,2024-04-17,29
I8F-JE-GPGO-SURPASS,DA,I8F-JE-GPGO-SURPASS-JPN_KAWASAKI01-0018,11,RETAMT,Returned Amount,0.0,VIAL,0.0,0.0,VIAL,3.0,,TREATMENT,2024-04-03,15
I8F-JE-GPGO-SURPASS,DA,I8F-JE-GPGO-SURPASS-JPN_KAWASAKI01-0018,12,RETAMT,Returned Amount,0.0,VIAL,0.0,0.0,VIAL,3.0,WEEK 4,TREATMENT,2024-04-17,29
I8F-JE-GPGO-SURPASS,DA,I8F-JE-GPGO-SURPASS-JPN_KAWASAKI01-0018,13,DISPAMT,Dispensed Amount,1.0,VIAL,1.0,1.0,VIAL,4.0,,TREATMENT,2024-04-10,22
I8F-JE-GPGO-SURPASS,DA,I8F-JE-GPGO-SURPASS-JPN_KAWASAKI01-0018,14,DISPAMT,Dispensed Amount,1.0,VIAL,1.0,1.0,VIAL,4.0,WEEK 8,TREATMENT,2024-05-15,57
I8F-JE-GPGO-SURPASS,DA,I8F-JE-GPGO-SURPASS-JPN_KAWASAKI01-0018,15,REMAMT,Remaining Amount,0.0,VIAL,0.0,0.0,VIAL,4.0,,TREATMENT,2024-04-10,22
I8F-JE-GPGO-SURPASS,DA,I8F-JE-GPGO-SURPASS-JPN_KAWASAKI01-0018,16,REMAMT,Remaining Amount,0.0,VIAL,0.0,0.0,VIAL,4.0,WEEK 8,TREATMENT,2024-05-15,57
I8F-JE-GPGO-SURPASS,DA,I8F-JE-GPGO-SURPASS-JPN_KAWASAKI01-0018,17,RETAMT,Returned Amount,0.0,VIAL,0.0,0.0,VIAL,4.0,,TREATMENT,2024-04-10,22
I8F-JE-GPGO-SURPASS,DA,I8F-JE-GPGO-SURPASS-JPN_KAWASAKI01-0018,18,RETAMT,Returned Amount,0.0,VIAL,0.0,0.0,VIAL,4.0,WEEK 8,TREATMENT,2024-05-15,57
I8F-JE-GPGO-SURPASS,DA,I8F-JE-GPGO-SURPASS-JPN_KAWASAKI01-0018,19,DISPAMT,Dispensed Amount,1.0,VIAL,1.0,1.0,VIAL,5.0,WEEK 12,TREATMENT,2024-06-12,85
I8F-JE-GPGO-SURPASS,DA,I8F-JE-GPGO-SURPASS-JPN_KAWASAKI01-0018,20,REMAMT,Remaining Amount,0.0,VIAL,0.0,0.0,VIAL,5.0,WEEK 12,TREATMENT,2024-06-12,85
I8F-JE-GPGO-SURPASS,DA,I8F-JE-GPGO-SURPASS-JPN_KAWASAKI01-0018,21,RETAMT,Returned Amount,0.0,VIAL,0.0,0.0,VIAL,5.0,WEEK 12,TREATMENT,2024-06-12,85
I8F-JE-GPGO-SURPASS,DA,I8F-JE-GPGO-SURPASS-JPN_KAWASAKI01-0018,22,DISPAMT,Dispensed Amount,1.0,VIAL,1.0,1.0,VIAL,6.0,,TREATMENT,2024-04-24,36
I8F-JE-GPGO-SURPASS,DA,I8F-JE-GPGO-SURPASS-JPN_KAWASAKI01-0018,23,DISPAMT,Dispensed Amount,1.0,VIAL,1.0,1.0,VIAL,6.0,WEEK 16,TREATMENT,2024-07-10,113
I8F-JE-GPGO-SURPASS,DA,I8F-JE-GPGO-SURPASS-JPN_KAWASAKI01-0018,24,REMAMT,Remaining Amount,0.0,VIAL,0.0,0.0,VIAL,6.0,,TREATMENT,2024-04-24,36
I8F-JE-GPGO-SURPASS,DA,I8F-JE-GPGO-SURPASS-JPN_KAWASAKI01-0018,25,REMAMT,Remaining Amount,0.0,VIAL,0.0,0.0,VIAL,6.0,WEEK 16,TREATMENT,2024-07-10,113
I8F-JE-GPGO-SURPASS,DA,I8F-JE-GPGO-SURPASS-JPN_KAWASAKI01-0018,26,RETAMT,Returned Amount,0.0,VIAL,0.0,0.0,VIAL,6.0,,TREATMENT,2024-04-24,36
I8F-JE-GPGO-SURPASS,DA,I8F-JE-GPGO-SURPASS-JPN_KAWASAKI01-0018,27,RETAMT,Returned Amount,0.0,VIAL,0.0,0.0,VIAL,6.0,WEEK 16,TREATMENT,2024-07-10,113
I8F-JE-GPGO-SURPASS,DA,I8F-JE-GPGO-SURPASS-JPN_KAWASAKI01-0018,28,DISPAMT,Dispensed Amount,1.0,VIAL,1.0,1.0,VIAL,7.0,,TREATMENT,2024-05-01,43
I8F-JE-GPGO-SURPASS,DA,I8F-JE-GPGO-SURPASS-JPN_KAWASAKI01-0018,29,DISPAMT,Dispensed Amount,1.0,VIAL,1.0,1.0,VIAL,7.0,WEEK 20,TREATMENT,2024-08-07,141
I8F-JE-GPGO-SURPASS,DA,I8F-JE-GPGO-SURPASS-JPN_KAWASAKI01-0018,30,REMAMT,Remaining Amount,0.0,VIAL,0.0,0.0,VIAL,7.0,,TREATMENT,2024-05-01,43
I8F-JE-GPGO-SURPASS,DA,I8F-JE-GPGO-SURPASS-JPN_KAWASAKI01-0018,31,REMAMT,Remaining Amount,0.0,VIAL,0.0,0.0,VIAL,7.0,WEEK 20,TREATMENT,2024-08-07,141
I8F-JE-GPGO-SURPASS,DA,I8F-JE-GPGO-SURPASS-JPN_KAWASAKI01-0018,32,RETAMT,Returned Amount,0.0,VIAL,0.0,0.0,VIAL,7.0,,TREATMENT,2024-05-01,43
I8F-JE-GPGO-SURPASS,DA,I8F-JE-GPGO-SURPASS-JPN_KAWASAKI01-0018,33,RETAMT,Returned Amount,0.0,VIAL,0.0,0.0,VIAL,7.0,WEEK 20,TREATMENT,2024-08-07,141
I8F-JE-GPGO-SURPASS,DA,I8F-JE-GPGO-SURPASS-JPN_KAWASAKI01-0018,34,DISPAMT,Dispensed Amount,1.0,VIAL,1.0,1.0,VIAL,8.0,,TREATMENT,2024-05-08,50
I8F-JE-GPGO-SURPASS,DA,I8F-JE-GPGO-SURPASS-JPN_KAWASAKI01-0018,35,DISPAMT,Dispensed Amount,1.0,VIAL,1.0,1.0,VIAL,8.0,WEEK 24,TREATMENT,2024-09-04,169
I8F-JE-GPGO-SURPASS,DA,I8F-JE-GPGO-SURPASS-JPN_KAWASAKI01-0018,36,REMAMT,Remaining Amount,0.0,VIAL,0.0,0.0,VIAL,8.0,,TREATMENT,2024-05-08,50
I8F-JE-GPGO-SURPASS,DA,I8F-JE-GPGO-SURPASS-JPN_KAWASAKI01-0018,37,REMAMT,Remaining Amount,0.0,VIAL,0.0,0.0,VIAL,8.0,WEEK 24,TREATMENT,2024-09-04,169
I8F-JE-GPGO-SURPASS,DA,I8F-JE-GPGO-SURPASS-JPN_KAWASAKI01-0018,38,RETAMT,Returned Amount,0.0,VIAL,0.0,0.0,VIAL,8.0,,TREATMENT,2024-05-08,50
I8F-JE-GPGO-SURPASS,DA,I8F-JE-GPGO-SURPASS-JPN_KAWASAKI01-0018,39,RETAMT,Returned Amount,0.0,VIAL,0.0,0.0,VIAL,8.0,WEEK 24,TREATMENT,2024-09-04,169
I8F-JE-GPGO-SURPASS,DA,I8F-JE-GPGO-SURPASS-JPN_KAWASAKI01-0018,40,DISPAMT,Dispensed Amount,1.0,VIAL,1.0,1.0,VIAL,9.0,WEEK 32,TREATMENT,2024-10-30,225
I8F-JE-GPGO-SURPASS,DA,I8F-JE-GPGO-SURPASS-JPN_KAWASAKI01-0018,41,REMAMT,Remaining Amount,0.0,VIAL,0.0,0.0,VIAL,9.0,WEEK 32,TREATMENT,2024-10-30,225
I8F-JE-GPGO-SURPASS,DA,I8F-JE-GPGO-SURPASS-JPN_KAWASAKI01-0018,42,RETAMT,Returned Amount,0.0,VIAL,0.0,0.0,VIAL,9.0,WEEK 32,TREATMENT,2024-10-30,225
I8F-JE-GPGO-SURPASS,DA,I8F-JE-GPGO-SURPASS-JPN_KAWASAKI01-0018,43,DISPAMT,Dispensed Amount,1.0,VIAL,1.0,1.0,VIAL,10.0,,TREATMENT,2024-05-22,64
I8F-JE-GPGO-SURPASS,DA,I8F-JE-GPGO-SURPASS-JPN_KAWASAKI01-0018,44,DISPAMT,Dispensed Amount,1.0,VIAL,1.0,1.0,VIAL,10.0,WEEK 40,TREATMENT,2024-12-25,281
I8F-JE-GPGO-SURPASS,DA,I8F-JE-GPGO-SURPASS-JPN_KAWASAKI01-0018,45,REMAMT,Remaining Amount,0.0,VIAL,0.0,0.0,VIAL,10.0,,TREATMENT,2024-05-22,64
I8F-JE-GPGO-SURPASS,DA,I8F-JE-GPGO-SURPASS-JPN_KAWASAKI01-0018,46,REMAMT,Remaining Amount,0.0,VIAL,0.0,0.0,VIAL,10.0,WEEK 40,TREATMENT,2024-12-25,281
I8F-JE-GPGO-SURPASS,DA,I8F-JE-GPGO-SURPASS-JPN_KAWASAKI01-0018,47,RETAMT,Returned Amount,0.0,VIAL,0.0,0.0,VIAL,10.0,,TREATMENT,2024-05-22,64
I8F-JE-GPGO-SURPASS,DA,I8F-JE-GPGO-SURPASS-JPN_KAWASAKI01-0018,48,RETAMT,Returned Amount,0.0,VIAL,0.0,0.0,VIAL,10.0,WEEK 40,TREATMENT,2024-12-25,281
I8F-JE-GPGO-SURPASS,DA,I8F-JE-GPGO-SURPASS-JPN_KAWASAKI01-0018,49,DISPAMT,Dispensed Amount,1.0,VIAL,1.0,1.0,VIAL,11.0,,TREATMENT,2024-05-29,71
I8F-JE-GPGO-SURPASS,DA,I8F-JE-GPGO-SURPASS-JPN_KAWASAKI01-0018,50,REMAMT,Remaining Amount,0.0,VIAL,0.0,0.0,VIAL,11.0,,TREATMENT,2024-05-29,71
I8F-JE-GPGO-SURPASS,DA,I8F-JE-GPGO-SURPASS-JPN_KAWASAKI01-0018,51,RETAMT,Returned Amount,0.0,VIAL,0.0,0.0,VIAL,11.0,,TREATMENT,2024-05-29,71
I8F-JE-GPGO-SURPASS,DA,I8F-JE-GPGO-SURPASS-JPN_KAWASAKI01-0018,52,DISPAMT,Dispensed Amount,1.0,VIAL,1.0,1.0,VIAL,12.0,,TREATMENT,2024-06-05,78
I8F-JE-GPGO-SURPASS,DA,I8F-JE-GPGO-SURPASS-JPN_KAWASAKI01-0018,53,REMAMT,Remaining Amount,0.0,VIAL,0.0,0.0,VIAL,12.0,,TREATMENT,2024-06-05,78
I8F-JE-GPGO-SURPASS,DA,I8F-JE-GPGO-SURPASS-JPN_KAWASAKI01-0018,54,RETAMT,Returned Amount,0.0,VIAL,0.0,0.0,VIAL,12.0,,TREATMENT,2024-06-05,78
I8F-JE-GPGO-SURPASS,DA,I8F-JE-GPGO-SURPASS-JPN_KAWASAKI01-0018,55,DISPAMT,Dispensed Amount,1.0,VIAL,1.0,1.0,VIAL,14.0,,TREATMENT,2024-06-19,92
I8F-JE-GPGO-SURPASS,DA,I8F-JE-GPGO-SURPASS-JPN_KAWASAKI01-0018,56,REMAMT,Remaining Amount,0.0,VIAL,0.0,0.0,VIAL,14.0,,TREATMENT,2024-06-19,92
I8F-JE-GPGO-SURPASS,DA,I8F-JE-GPGO-SURPASS-JPN_KAWASAKI01-0018,57,RETAMT,Returned Amount,0.0,VIAL,0.0,0.0,VIAL,14.0,,TREATMENT,2024-06-19,92
I8F-JE-GPGO-SURPASS,DA,I8F-JE-GPGO-SURPASS-JPN_KAWASAKI01-0018,58,DISPAMT,Dispensed Amount,1.0,VIAL,1.0,1.0,VIAL,15.0,,TREATMENT,2024-06-26,99
I8F-JE-GPGO-SURPASS,DA,I8F-JE-GPGO-SURPASS-JPN_KAWASAKI01-0018,59,REMAMT,Remaining Amount,1.0,VIAL,1.0,1.0,VIAL,15.0,,TREATMENT,2024-06-26,99
I8F-JE-GPGO-SURPASS,DA,I8F-JE-GPGO-SURPASS-JPN_KAWASAKI01-0018,60,RETAMT,Returned Amount,1.0,VIAL,1.0,1.0,VIAL,15.0,,TREATMENT,2024-06-26,99
I8F-JE-GPGO-SURPASS,DA,I8F-JE-GPGO-SURPASS-JPN_KAWASAKI01-0018,61,DISPAMT,Dispensed Amount,1.0,VIAL,1.0,1.0,VIAL,16.0,,TREATMENT,2024-07-03,106
I8F-JE-GPGO-SURPASS,DA,I8F-JE-GPGO-SURPASS-JPN_KAWASAKI01-0018,62,REMAMT,Remaining Amount,0.0,VIAL,0.0,0.0,VIAL,16.0,,TREATMENT,2024-07-03,106
I8F-JE-GPGO-SURPASS,DA,I8F-JE-GPGO-SURPASS-JPN_KAWASAKI01-0018,63,RETAMT,Returned Amount,0.0,VIAL,0.0,0.0,VIAL,16.0,,TREATMENT,2024-07-03,106
I8F-JE-GPGO-SURPASS,DA,I8F-JE-GPGO-SURPASS-JPN_KAWASAKI01-0018,64,DISPAMT,Dispensed Amount,1.0,VIAL,1.0,1.0,VIAL,18.0,,TREATMENT,2024-07-17,120
I8F-JE-GPGO-SURPASS,DA,I8F-JE-GPGO-SURPASS-JPN_KAWASAKI01-0018,65,REMAMT,Remaining Amount,0.0,VIAL,0.0,0.0,VIAL,18.0,,TREATMENT,2024-07-17,120
I8F-JE-GPGO-SURPASS,DA,I8F-JE-GPGO-SURPASS-JPN_KAWASAKI01-0018,66,RETAMT,Returned Amount,0.0,VIAL,0.0,0.0,VIAL,18.0,,TREATMENT,2024-07-17,120
I8F-JE-GPGO-SURPASS,DA,I8F-JE-GPGO-SURPASS-JPN_KAWASAKI01-0018,67,DISPAMT,Dispensed Amount,1.0,VIAL,1.0,1.0,VIAL,19.0,,TREATMENT,2024-07-24,127
I8F-JE-GPGO-SURPASS,DA,I8F-JE-GPGO-SURPASS-JPN_KAWASAKI01-0018,68,REMAMT,Remaining Amount,1.0,VIAL,1.0,1.0,VIAL,19.0,,TREATMENT,2024-07-24,127
I8F-JE-GPGO-SURPASS,DA,I8F-JE-GPGO-SURPASS-JPN_KAWASAKI01-0018,69,RETAMT,Returned Amount,1.0,VIAL,1.0,1.0,VIAL,19.0,,TREATMENT,2024-07-24,127
I8F-JE-GPGO-SURPASS,DA,I8F-JE-GPGO-SURPASS-JPN_KAWASAKI01-0018,70,DISPAMT,Dispensed Amount,1.0,VIAL,1.0,1.0,VIAL,20.0,,TREATMENT,2024-07-31,134
I8F-JE-GPGO-SURPASS,DA,I8F-JE-GPGO-SURPASS-JPN_KAWASAKI01-0018,71,REMAMT,Remaining Amount,0.0,VIAL,0.0,0.0,VIAL,20.0,,TREATMENT,2024-07-31,134
I8F-JE-GPGO-SURPASS,DA,I8F-JE-GPGO-SURPASS-JPN_KAWASAKI01-0018,72,RETAMT,Returned Amount,0.0,VIAL,0.0,0.0,VIAL,20.0,,TREATMENT,2024-07-31,134
I8F-JE-GPGO-SURPASS,DA,I8F-JE-GPGO-SURPASS-JPN_KAWASAKI01-0018,73,DISPAMT,Dispensed Amount,1.0,VIAL,1.0,1.0,VIAL,22.0,,TREATMENT,2024-08-14,148
I8F-JE-GPGO-SURPASS,DA,I8F-JE-GPGO-SURPASS-JPN_KAWASAKI01-0018,74,REMAMT,Remaining Amount,1.0,VIAL,1.0,1.0,VIAL,22.0,,TREATMENT,2024-08-14,148
I8F-JE-GPGO-SURPASS,DA,I8F-JE-GPGO-SURPASS-JPN_KAWASAKI01-0018,75,RETAMT,Returned Amount,1.0,VIAL,1.0,1.0,VIAL,22.0,,TREATMENT,2024-08-14,148
I8F-JE-GPGO-SURPASS,DA,I8F-JE-GPGO-SURPASS-JPN_KAWASAKI01-0018,76,DISPAMT,Dispensed Amount,1.0,VIAL,1.0,1.0,VIAL,23.0,,TREATMENT,2024-08-21,155
I8F-JE-GPGO-SURPASS,DA,I8F-JE-GPGO-SURPASS-JPN_KAWASAKI01-0018,77,REMAMT,Remaining Amount,0.0,VIAL,0.0,0.0,VIAL,23.0,,TREATMENT,2024-08-21,155
I8F-JE-GPGO-SURPASS,DA,I8F-JE-GPGO-SURPASS-JPN_KAWASAKI01-0018,78,RETAMT,Returned Amount,0.0,VIAL,0.0,0.0,VIAL,23.0,,TREATMENT,2024-08-21,155
I8F-JE-GPGO-SURPASS,DA,I8F-JE-GPGO-SURPASS-JPN_KAWASAKI01-0018,79,DISPAMT,Dispensed Amount,1.0,VIAL,1.0,1.0,VIAL,24.0,,TREATMENT,2024-08-28,162
I8F-JE-GPGO-SURPASS,DA,I8F-JE-GPGO-SURPASS-JPN_KAWASAKI01-0018,80,REMAMT,Remaining Amount,0.0,VIAL,0.0,0.0,VIAL,24.0,,TREATMENT,2024-08-28,162
I8F-JE-GPGO-SURPASS,DA,I8F-JE-GPGO-SURPASS-JPN_KAWASAKI01-0018,81,RETAMT,Returned Amount,0.0,VIAL,0.0,0.0,VIAL,24.0,,TREATMENT,2024-08-28,162
I8F-JE-GPGO-SURPASS,DA,I8F-JE-GPGO-SURPASS-JPN_KAWASAKI01-0018,82,DISPAMT,Dispensed Amount,1.0,VIAL,1.0,1.0,VIAL,26.0,,TREATMENT,2024-09-11,176
I8F-JE-GPGO-SURPASS,DA,I8F-JE-GPGO-SURPASS-JPN_KAWASAKI01-0018,83,REMAMT,Remaining Amount,0.0,VIAL,0.0,0.0,VIAL,26.0,,TREATMENT,2024-09-11,176
I8F-JE-GPGO-SURPASS,DA,I8F-JE-GPGO-SURPASS-JPN_KAWASAKI01-0018,84,RETAMT,Returned Amount,0.0,VIAL,0.0,0.0,VIAL,26.0,,TREATMENT,2024-09-11,176
I8F-JE-GPGO-SURPASS,DA,I8F-JE-GPGO-SURPASS-JPN_KAWASAKI01-0018,85,DISPAMT,Dispensed Amount,1.0,VIAL,1.0,1.0,VIAL,27.0,,TREATMENT,2024-09-18,183
I8F-JE-GPGO-SURPASS,DA,I8F-JE-GPGO-SURPASS-JPN_KAWASAKI01-0018,86,REMAMT,Remaining Amount,0.0,VIAL,0.0,0.0,VIAL,27.0,,TREATMENT,2024-09-18,183
I8F-JE-GPGO-SURPASS,DA,I8F-JE-GPGO-SURPASS-JPN_KAWASAKI01-0018,87,RETAMT,Returned Amount,0.0,VIAL,0.0,0.0,VIAL,27.0,,TREATMENT,2024-09-18,183
I8F-JE-GPGO-SURPASS,DA,I8F-JE-GPGO-SURPASS-JPN_KAWASAKI01-0018,88,DISPAMT,Dispensed Amount,1.0,VIAL,1.0,1.0,VIAL,28.0,,TREATMENT,2024-09-25,190
I8F-JE-GPGO-SURPASS,DA,I8F-JE-GPGO-SURPASS-JPN_KAWASAKI01-0018,89,REMAMT,Remaining Amount,0.0,VIAL,0.0,0.0,VIAL,28.0,,TREATMENT,2024-09-25,190
I8F-JE-GPGO-SURPASS,DA,I8F-JE-GPGO-SURPASS-JPN_KAWASAKI01-0018,90,RETAMT,Returned Amount,0.0,VIAL,0.0,0.0,VIAL,28.0,,TREATMENT,2024-09-25,190
I8F-JE-GPGO-SURPASS,DA,I8F-JE-GPGO-SURPASS-JPN_KAWASAKI01-0018,91,DISPAMT,Dispensed Amount,1.0,VIAL,1.0,1.0,VIAL,29.0,,TREATMENT,2024-10-02,197
I8F-JE-GPGO-SURPASS,DA,I8F-JE-GPGO-SURPASS-JPN_KAWASAKI01-0018,92,REMAMT,Remaining Amount,0.0,VIAL,0.0,0.0,VIAL,29.0,,TREATMENT,2024-10-02,197
I8F-JE-GPGO-SURPASS,DA,I8F-JE-GPGO-SURPASS-JPN_KAWASAKI01-0018,93,RETAMT,Returned Amount,0.0,VIAL,0.0,0.0,VIAL,29.0,,TREATMENT,2024-10-02,197
I8F-JE-GPGO-SURPASS,DA,I8F-JE-GPGO-SURPASS-JPN_KAWASAKI01-0018,94,DISPAMT,Dispensed Amount,1.0,VIAL,1.0,1.0,VIAL,30.0,,TREATMENT,2024-10-09,204
I8F-JE-GPGO-SURPASS,DA,I8F-JE-GPGO-SURPASS-JPN_KAWASAKI01-0018,95,REMAMT,Remaining Amount,0.0,VIAL,0.0,0.0,VIAL,30.0,,TREATMENT,2024-10-09,204
I8F-JE-GPGO-SURPASS,DA,I8F-JE-GPGO-SURPASS-JPN_KAWASAKI01-0018,96,RETAMT,Returned Amount,0.0,VIAL,0.0,0.0,VIAL,30.0,,TREATMENT,2024-10-09,204
I8F-JE-GPGO-SURPASS,DA,I8F-JE-GPGO-SURPASS-JPN_KAWASAKI01-0018,97,DISPAMT,Dispensed Amount,1.0,VIAL,1.0,1.0,VIAL,31.0,,TREATMENT,2024-10-16,211
I8F-JE-GPGO-SURPASS,DA,I8F-JE-GPGO-SURPASS-JPN_KAWASAKI01-0018,98,REMAMT,Remaining Amount,0.0,VIAL,0.0,0.0,VIAL,31.0,,TREATMENT,2024-10-16,211
I8F-JE-GPGO-SURPASS,DA,I8F-JE-GPGO-SURPASS-JPN_KAWASAKI01-0018,99,RETAMT,Returned Amount,0.0,VIAL,0.0,0.0,VIAL,31.0,,TREATMENT,2024-10-16,211
I8F-JE-GPGO-SURPASS,DA,I8F-JE-GPGO-SURPASS-JPN_KAWASAKI01-0018,100,DISPAMT,Dispensed Amount,1.0,VIAL,1.0,1.0,VIAL,32.0,,TREATMENT,2024-10-23,218
I8F-JE-GPGO-SURPASS,DA,I8F-JE-GPGO-SURPASS-JPN_KAWASAKI01-0018,101,REMAMT,Remaining Amount,0.0,VIAL,0.0,0.0,VIAL,32.0,,TREATMENT,2024-10-23,218
I8F-JE-GPGO-SURPASS,DA,I8F-JE-GPGO-SURPASS-JPN_KAWASAKI01-0018,102,RETAMT,Returned Amount,0.0,VIAL,0.0,0.0,VIAL,32.0,,TREATMENT,2024-10-23,218
I8F-JE-GPGO-SURPASS,DA,I8F-JE-GPGO-SURPASS-JPN_KAWASAKI01-0018,103,DISPAMT,Dispensed Amount,1.0,VIAL,1.0,1.0,VIAL,34.0,,TREATMENT,2024-11-06,232
I8F-JE-GPGO-SURPASS,DA,I8F-JE-GPGO-SURPASS-JPN_KAWASAKI01-0018,104,REMAMT,Remaining Amount,0.0,VIAL,0.0,0.0,VIAL,34.0,,TREATMENT,2024-11-06,232
I8F-JE-GPGO-SURPASS,DA,I8F-JE-GPGO-SURPASS-JPN_KAWASAKI01-0018,105,RETAMT,Returned Amount,0.0,VIAL,0.0,0.0,VIAL,34.0,,TREATMENT,2024-11-06,232
I8F-JE-GPGO-SURPASS,DA,I8F-JE-GPGO-SURPASS-JPN_KAWASAKI01-0018,106,DISPAMT,Dispensed Amount,1.0,VIAL,1.0,1.0,VIAL,35.0,,TREATMENT,2024-11-13,239
I8F-JE-GPGO-SURPASS,DA,I8F-JE-GPGO-SURPASS-JPN_KAWASAKI01-0018,107,REMAMT,Remaining Amount,0.0,VIAL,0.0,0.0,VIAL,35.0,,TREATMENT,2024-11-13,239
I8F-JE-GPGO-SURPASS,DA,I8F-JE-GPGO-SURPASS-JPN_KAWASAKI01-0018,108,RETAMT,Returned Amount,0.0,VIAL,0.0,0.0,VIAL,35.0,,TREATMENT,2024-11-13,239
I8F-JE-GPGO-SURPASS,DA,I8F-JE-GPGO-SURPASS-JPN_KAWASAKI01-0018,109,DISPAMT,Dispensed Amount,1.0,VIAL,1.0,1.0,VIAL,36.0,,TREATMENT,2024-11-20,246
I8F-JE-GPGO-SURPASS,DA,I8F-JE-GPGO-SURPASS-JPN_KAWASAKI01-0018,110,REMAMT,Remaining Amount,0.0,VIAL,0.0,0.0,VIAL,36.0,,TREATMENT,2024-11-20,246
I8F-JE-GPGO-SURPASS,DA,I8F-JE-GPGO-SURPASS-JPN_KAWASAKI01-0018,111,RETAMT,Returned Amount,0.0,VIAL,0.0,0.0,VIAL,36.0,,TREATMENT,2024-11-20,246
I8F-JE-GPGO-SURPASS,DA,I8F-JE-GPGO-SURPASS-JPN_KAWASAKI01-0018,112,DISPAMT,Dispensed Amount,1.0,VIAL,1.0,1.0,VIAL,37.0,,TREATMENT,2024-11-27,253
I8F-JE-GPGO-SURPASS,DA,I8F-JE-GPGO-SURPASS-JPN_KAWASAKI01-0018,113,REMAMT,Remaining Amount,0.0,VIAL,0.0,0.0,VIAL,37.0,,TREATMENT,2024-11-27,253
I8F-JE-GPGO-SURPASS,DA,I8F-JE-GPGO-SURPASS-JPN_KAWASAKI01-0018,114,RETAMT,Returned Amount,0.0,VIAL,0.0,0.0,VIAL,37.0,,TREATMENT,2024-11-27,253
I8F-JE-GPGO-SURPASS,DA,I8F-JE-GPGO-SURPASS-JPN_KAWASAKI01-0018,115,DISPAMT,Dispensed Amount,1.0,VIAL,1.0,1.0,VIAL,38.0,,TREATMENT,2024-12-04,260
I8F-JE-GPGO-SURPASS,DA,I8F-JE-GPGO-SURPASS-JPN_KAWASAKI01-0018,116,REMAMT,Remaining Amount,1.0,VIAL,1.0,1.0,VIAL,38.0,,TREATMENT,2024-12-04,260
I8F-JE-GPGO-SURPASS,DA,I8F-JE-GPGO-SURPASS-JPN_KAWASAKI01-0018,117,RETAMT,Returned Amount,1.0,VIAL,1.0,1.0,VIAL,38.0,,TREATMENT,2024-12-04,260
I8F-JE-GPGO-SURPASS,DA,I8F-JE-GPGO-SURPASS-JPN_KAWASAKI01-0018,118,DISPAMT,Dispensed Amount,1.0,VIAL,1.0,1.0,VIAL,39.0,,TREATMENT,2024-12-11,267
I8F-JE-GPGO-SURPASS,DA,I8F-JE-GPGO-SURPASS-JPN_KAWASAKI01-0018,119,REMAMT,Remaining Amount,0.0,VIAL,0.0,0.0,VIAL,39.0,,TREATMENT,2024-12-11,267
I8F-JE-GPGO-SURPASS,DA,I8F-JE-GPGO-SURPASS-JPN_KAWASAKI01-0018,120,RETAMT,Returned Amount,0.0,VIAL,0.0,0.0,VIAL,39.0,,TREATMENT,2024-12-11,267
I8F-JE-GPGO-SURPASS,DA,I8F-JE-GPGO-SURPASS-JPN_KAWASAKI01-0018,121,DISPAMT,Dispensed Amount,1.0,VIAL,1.0,1.0,VIAL,40.0,,TREATMENT,2024-12-18,274
I8F-JE-GPGO-SURPASS,DA,I8F-JE-GPGO-SURPASS-JPN_KAWASAKI01-0018,122,REMAMT,Remaining Amount,0.0,VIAL,0.0,0.0,VIAL,40.0,,TREATMENT,2024-12-18,274
I8F-JE-GPGO-SURPASS,DA,I8F-JE-GPGO-SURPASS-JPN_KAWASAKI01-0018,123,RETAMT,Returned Amount,0.0,VIAL,0.0,0.0,VIAL,40.0,,TREATMENT,2024-12-18,274
I8F-JE-GPGO-SURPASS,DA,I8F-JE-GPGO-SURPASS-JPN_KAWASAKI01-0018,124,DISPAMT,Dispensed Amount,1.0,VIAL,1.0,1.0,VIAL,42.0,,TREATMENT,2025-01-01,288
I8F-JE-GPGO-SURPASS,DA,I8F-JE-GPGO-SURPASS-JPN_KAWASAKI01-0018,125,REMAMT,Remaining Amount,0.0,VIAL,0.0,0.0,VIAL,42.0,,TREATMENT,2025-01-01,288
I8F-JE-GPGO-SURPASS,DA,I8F-JE-GPGO-SURPASS-JPN_KAWASAKI01-0018,126,RETAMT,Returned Amount,0.0,VIAL,0.0,0.0,VIAL,42.0,,TREATMENT,2025-01-01,288
I8F-JE-GPGO-SURPASS,DA,I8F-JE-GPGO-SURPASS-JPN_KAWASAKI01-0018,127,DISPAMT,Dispensed Amount,1.0,VIAL,1.0,1.0,VIAL,43.0,,TREATMENT,2025-01-08,295
I8F-JE-GPGO-SURPASS,DA,I8F-JE-GPGO-SURPASS-JPN_KAWASAKI01-0018,128,REMAMT,Remaining Amount,0.0,VIAL,0.0,0.0,VIAL,43.0,,TREATMENT,2025-01-08,295
I8F-JE-GPGO-SURPASS,DA,I8F-JE-GPGO-SURPASS-JPN_KAWASAKI01-0018,129,RETAMT,Returned Amount,0.0,VIAL,0.0,0.0,VIAL,43.0,,TREATMENT,2025-01-08,295
I8F-JE-GPGO-SURPASS,DA,I8F-JE-GPGO-SURPASS-JPN_KAWASAKI01-0018,130,DISPAMT,Dispensed Amount,1.0,VIAL,1.0,1.0,VIAL,44.0,,TREATMENT,2025-01-15,302
I8F-JE-GPGO-SURPASS,DA,I8F-JE-GPGO-SURPASS-JPN_KAWASAKI01-0018,131,REMAMT,Remaining Amount,0.0,VIAL,0.0,0.0,VIAL,44.0,,TREATMENT,2025-01-15,302
I8F-JE-GPGO-SURPASS,DA,I8F-JE-GPGO-SURPASS-JPN_KAWASAKI01-0018,132,RETAMT,Returned Amount,0.0,VIAL,0.0,0.0,VIAL,44.0,,TREATMENT,2025-01-15,302
I8F-JE-GPGO-SURPASS,DA,I8F-JE-GPGO-SURPASS-JPN_KAWASAKI01-0018,133,DISPAMT,Dispensed Amount,1.0,VIAL,1.0,1.0,VIAL,45.0,,TREATMENT,2025-01-22,309
I8F-JE-GPGO-SURPASS,DA,I8F-JE-GPGO-SURPASS-JPN_KAWASAKI01-0018,134,REMAMT,Remaining Amount,0.0,VIAL,0.0,0.0,VIAL,45.0,,TREATMENT,2025-01-22,309
I8F-JE-GPGO-SURPASS,DA,I8F-JE-GPGO-SURPASS-JPN_KAWASAKI01-0018,135,RETAMT,Returned Amount,0.0,VIAL,0.0,0.0,VIAL,45.0,,TREATMENT,2025-01-22,309
I8F-JE-GPGO-SURPASS,DA,I8F-JE-GPGO-SURPASS-JPN_KAWASAKI01-0018,136,DISPAMT,Dispensed Amount,1.0,VIAL,1.0,1.0,VIAL,46.0,,TREATMENT,2025-01-29,316
I8F-JE-GPGO-SURPASS,DA,I8F-JE-GPGO-SURPASS-JPN_KAWASAKI01-0018,137,REMAMT,Remaining Amount,0.0,VIAL,0.0,0.0,VIAL,46.0,,TREATMENT,2025-01-29,316
I8F-JE-GPGO-SURPASS,DA,I8F-JE-GPGO-SURPASS-JPN_KAWASAKI01-0018,138,RETAMT,Returned Amount,0.0,VIAL,0.0,0.0,VIAL,46.0,,TREATMENT,2025-01-29,316
I8F-JE-GPGO-SURPASS,DA,I8F-JE-GPGO-SURPASS-JPN_KAWASAKI01-0018,139,DISPAMT,Dispensed Amount,1.0,VIAL,1.0,1.0,VIAL,47.0,,TREATMENT,2025-02-05,323
I8F-JE-GPGO-SURPASS,DA,I8F-JE-GPGO-SURPASS-JPN_KAWASAKI01-0018,140,REMAMT,Remaining Amount,0.0,VIAL,0.0,0.0,VIAL,47.0,,TREATMENT,2025-02-05,323
I8F-JE-GPGO-SURPASS,DA,I8F-JE-GPGO-SURPASS-JPN_KAWASAKI01-0018,141,RETAMT,Returned Amount,0.0,VIAL,0.0,0.0,VIAL,47.0,,TREATMENT,2025-02-05,323
I8F-JE-GPGO-SURPASS,DA,I8F-JE-GPGO-SURPASS-JPN_KAWASAKI01-0018,142,DISPAMT,Dispensed Amount,1.0,VIAL,1.0,1.0,VIAL,48.0,,TREATMENT,2025-02-12,330
I8F-JE-GPGO-SURPASS,DA,I8F-JE-GPGO-SURPASS-JPN_KAWASAKI01-0018,143,REMAMT,Remaining Amount,0.0,VIAL,0.0,0.0,VIAL,48.0,,TREATMENT,2025-02-12,330
I8F-JE-GPGO-SURPASS,DA,I8F-JE-GPGO-SURPASS-JPN_KAWASAKI01-0018,144,RETAMT,Returned Amount,0.0,VIAL,0.0,0.0,VIAL,48.0,,TREATMENT,2025-02-12,330
I8F-JE-GPGO-SURPASS,DA,I8F-JE-GPGO-SURPASS-JPN_KAWASAKI01-0018,145,DISPAMT,Dispensed Amount,1.0,VIAL,1.0,1.0,VIAL,49.0,,TREATMENT,2025-02-19,337
I8F-JE-GPGO-SURPASS,DA,I8F-JE-GPGO-SURPASS-JPN_KAWASAKI01-0018,146,REMAMT,Remaining Amount,0.0,VIAL,0.0,0.0,VIAL,49.0,,TREATMENT,2025-02-19,337
I8F-JE-GPGO-SURPASS,DA,I8F-JE-GPGO-SURPASS-JPN_KAWASAKI01-0018,147,RETAMT,Returned Amount,0.0,VIAL,0.0,0.0,VIAL,49.0,,TREATMENT,2025-02-19,337
I8F-JE-GPGO-SURPASS,DA,I8F-JE-GPGO-SURPASS-JPN_KAWASAKI01-0018,148,DISPAMT,Dispensed Amount,1.0,VIAL,1.0,1.0,VIAL,50.0,,TREATMENT,2025-02-26,344
I8F-JE-GPGO-SURPASS,DA,I8F-JE-GPGO-SURPASS-JPN_KAWASAKI01-0018,149,REMAMT,Remaining Amount,0.0,VIAL,0.0,0.0,VIAL,50.0,,TREATMENT,2025-02-26,344
I8F-JE-GPGO-SURPASS,DA,I8F-JE-GPGO-SURPASS-JPN_KAWASAKI01-0018,150,RETAMT,Returned Amount,0.0,VIAL,0.0,0.0,VIAL,50.0,,TREATMENT,2025-02-26,344
I8F-JE-GPGO-SURPASS,DA,I8F-JE-GPGO-SURPASS-JPN_KAWASAKI01-0018,151,DISPAMT,Dispensed Amount,1.0,VIAL,1.0,1.0,VIAL,51.0,,TREATMENT,2025-03-05,351
I8F-JE-GPGO-SURPASS,DA,I8F-JE-GPGO-SURPASS-JPN_KAWASAKI01-0018,152,REMAMT,Remaining Amount,0.0,VIAL,0.0,0.0,VIAL,51.0,,TREATMENT,2025-03-05,351
I8F-JE-GPGO-SURPASS,DA,I8F-JE-GPGO-SURPASS-JPN_KAWASAKI01-0018,153,RETAMT,Returned Amount,0.0,VIAL,0.0,0.0,VIAL,51.0,,TREATMENT,2025-03-05,351
I8F-JE-GPGO-SURPASS,DA,I8F-JE-GPGO-SURPASS-JPN_KAWASAKI01-0018,154,DISPAMT,Dispensed Amount,1.0,VIAL,1.0,1.0,VIAL,52.0,,TREATMENT,2025-03-12,358
I8F-JE-GPGO-SURPASS,DA,I8F-JE-GPGO-SURPASS-JPN_KAWASAKI01-0018,155,REMAMT,Remaining Amount,0.0,VIAL,0.0,0.0,VIAL,52.0,,TREATMENT,2025-03-12,358
I8F-JE-GPGO-SURPASS,DA,I8F-JE-GPGO-SURPASS-JPN_KAWASAKI01-0018,156,RETAMT,Returned Amount,0.0,VIAL,0.0,0.0,VIAL,52.0,,TREATMENT,2025-03-12,358
I8F-JE-GPGO-SURPASS,DA,I8F-JE-GPGO-SURPASS-JPN_KYOTO01-0003,1,DISPAMT,Dispensed Amount,1.0,VIAL,1.0,1.0,VIAL,2.0,BASELINE,TREATMENT,2024-03-13,1
I8F-JE-GPGO-SURPASS,DA,I8F-JE-GPGO-SURPASS-JPN_KYOTO01-0003,2,DISPAMT,Dispensed Amount,1.0,VIAL,1.0,1.0,VIAL,2.0,,TREATMENT,2024-03-20,8
I8F-JE-GPGO-SURPASS,DA,I8F-JE-GPGO-SURPASS-JPN_KYOTO01-0003,3,REMAMT,Remaining Amount,0.0,VIAL,0.0,0.0,VIAL,2.0,BASELINE,TREATMENT,2024-03-13,1
I8F-JE-GPGO-SURPASS,DA,I8F-JE-GPGO-SURPASS-JPN_KYOTO01-0003,4,REMAMT,Remaining Amount,1.0,VIAL,1.0,1.0,VIAL,2.0,,TREATMENT,2024-03-20,8
I8F-JE-GPGO-SURPASS,DA,I8F-JE-GPGO-SURPASS-JPN_KYOTO01-0003,5,RETAMT,Returned Amount,0.0,VIAL,0.0,0.0,VIAL,2.0,BASELINE,TREATMENT,2024-03-13,1
I8F-JE-GPGO-SURPASS,DA,I8F-JE-GPGO-SURPASS-JPN_KYOTO01-0003,6,RETAMT,Returned Amount,1.0,VIAL,1.0,1.0,VIAL,2.0,,TREATMENT,2024-03-20,8
I8F-JE-GPGO-SURPASS,DA,I8F-JE-GPGO-SURPASS-JPN_KYOTO01-0003,7,DISPAMT,Dispensed Amount,1.0,VIAL,1.0,1.0,VIAL,3.0,,TREATMENT,2024-03-27,15
I8F-JE-GPGO-SURPASS,DA,I8F-JE-GPGO-SURPASS-JPN_KYOTO01-0003,8,DISPAMT,Dispensed Amount,1.0,VIAL,1.0,1.0,VIAL,3.0,WEEK 4,TREATMENT,2024-04-10,29
I8F-JE-GPGO-SURPASS,DA,I8F-JE-GPGO-SURPASS-JPN_KYOTO01-0003,9,REMAMT,Remaining Amount,0.0,VIAL,0.0,0.0,VIAL,3.0,,TREATMENT,2024-03-27,15
I8F-JE-GPGO-SURPASS,DA,I8F-JE-GPGO-SURPASS-JPN_KYOTO01-0003,10,REMAMT,Remaining Amount,0.0,VIAL,0.0,0.0,VIAL,3.0,WEEK 4,TREATMENT,2024-04-10,29
I8F-JE-GPGO-SURPASS,DA,I8F-JE-GPGO-SURPASS-JPN_KYOTO01-0003,11,RETAMT,Returned Amount,0.0,VIAL,0.0,0.0,VIAL,3.0,,TREATMENT,2024-03-27,15
I8F-JE-GPGO-SURPASS,DA,I8F-JE-GPGO-SURPASS-JPN_KYOTO01-0003,12,RETAMT,Returned Amount,0.0,VIAL,0.0,0.0,VIAL,3.0,WEEK 4,TREATMENT,2024-04-10,29
I8F-JE-GPGO-SURPASS,DA,I8F-JE-GPGO-SURPASS-JPN_KYOTO01-0003,13,DISPAMT,Dispensed Amount,1.0,VIAL,1.0,1.0,VIAL,4.0,,TREATMENT,2024-04-03,22
I8F-JE-GPGO-SURPASS,DA,I8F-JE-GPGO-SURPASS-JPN_KYOTO01-0003,14,DISPAMT,Dispensed Amount,1.0,VIAL,1.0,1.0,VIAL,4.0,WEEK 8,TREATMENT,2024-05-08,57
I8F-JE-GPGO-SURPASS,DA,I8F-JE-GPGO-SURPASS-JPN_KYOTO01-0003,15,REMAMT,Remaining Amount,0.0,VIAL,0.0,0.0,VIAL,4.0,,TREATMENT,2024-04-03,22
I8F-JE-GPGO-SURPASS,DA,I8F-JE-GPGO-SURPASS-JPN_KYOTO01-0003,16,REMAMT,Remaining Amount,1.0,VIAL,1.0,1.0,VIAL,4.0,WEEK 8,TREATMENT,2024-05-08,57
I8F-JE-GPGO-SURPASS,DA,I8F-JE-GPGO-SURPASS-JPN_KYOTO01-0003,17,RETAMT,Returned Amount,0.0,VIAL,0.0,0.0,VIAL,4.0,,TREATMENT,2024-04-03,22
I8F-JE-GPGO-SURPASS,DA,I8F-JE-GPGO-SURPASS-JPN_KYOTO01-0003,18,RETAMT,Returned Amount,1.0,VIAL,1.0,1.0,VIAL,4.0,WEEK 8,TREATMENT,2024-05-08,57
I8F-JE-GPGO-SURPASS,DA,I8F-JE-GPGO-SURPASS-JPN_KYOTO01-0003,19,DISPAMT,Dispensed Amount,1.0,VIAL,1.0,1.0,VIAL,5.0,WEEK 12,TREATMENT,2024-06-05,85
I8F-JE-GPGO-SURPASS,DA,I8F-JE-GPGO-SURPASS-JPN_KYOTO01-0003,20,REMAMT,Remaining Amount,0.0,VIAL,0.0,0.0,VIAL,5.0,WEEK 12,TREATMENT,2024-06-05,85
I8F-JE-GPGO-SURPASS,DA,I8F-JE-GPGO-SURPASS-JPN_KYOTO01-0003,21,RETAMT,Returned Amount,0.0,VIAL,0.0,0.0,VIAL,5.0,WEEK 12,TREATMENT,2024-06-05,85
I8F-JE-GPGO-SURPASS,DA,I8F-JE-GPGO-SURPASS-JPN_KYOTO01-0003,22,DISPAMT,Dispensed Amount,1.0,VIAL,1.0,1.0,VIAL,6.0,,TREATMENT,2024-04-17,36
I8F-JE-GPGO-SURPASS,DA,I8F-JE-GPGO-SURPASS-JPN_KYOTO01-0003,23,DISPAMT,Dispensed Amount,1.0,VIAL,1.0,1.0,VIAL,6.0,WEEK 16,TREATMENT,2024-07-03,113
I8F-JE-GPGO-SURPASS,DA,I8F-JE-GPGO-SURPASS-JPN_KYOTO01-0003,24,REMAMT,Remaining Amount,0.0,VIAL,0.0,0.0,VIAL,6.0,,TREATMENT,2024-04-17,36
I8F-JE-GPGO-SURPASS,DA,I8F-JE-GPGO-SURPASS-JPN_KYOTO01-0003,25,REMAMT,Remaining Amount,0.0,VIAL,0.0,0.0,VIAL,6.0,WEEK 16,TREATMENT,2024-07-03,113
I8F-JE-GPGO-SURPASS,DA,I8F-JE-GPGO-SURPASS-JPN_KYOTO01-0003,26,RETAMT,Returned Amount,0.0,VIAL,0.0,0.0,VIAL,6.0,,TREATMENT,2024-04-17,36
I8F-JE-GPGO-SURPASS,DA,I8F-JE-GPGO-SURPASS-JPN_KYOTO01-0003,27,RETAMT,Returned Amount,0.0,VIAL,0.0,0.0,VIAL,6.0,WEEK 16,TREATMENT,2024-07-03,113
I8F-JE-GPGO-SURPASS,DA,I8F-JE-GPGO-SURPASS-JPN_KYOTO01-0003,28,DISPAMT,Dispensed Amount,1.0,VIAL,1.0,1.0,VIAL,7.0,,TREATMENT,2024-04-24,43
I8F-JE-GPGO-SURPASS,DA,I8F-JE-GPGO-SURPASS-JPN_KYOTO01-0003,29,DISPAMT,Dispensed Amount,1.0,VIAL,1.0,1.0,VIAL,7.0,WEEK 20,TREATMENT,2024-07-31,141
I8F-JE-GPGO-SURPASS,DA,I8F-JE-GPGO-SURPASS-JPN_KYOTO01-0003,30,REMAMT,Remaining Amount,0.0,VIAL,0.0,0.0,VIAL,7.0,,TREATMENT,2024-04-24,43
I8F-JE-GPGO-SURPASS,DA,I8F-JE-GPGO-SURPASS-JPN_KYOTO01-0003,31,REMAMT,Remaining Amount,0.0,VIAL,0.0,0.0,VIAL,7.0,WEEK 20,TREATMENT,2024-07-31,141
I8F-JE-GPGO-SURPASS,DA,I8F-JE-GPGO-SURPASS-JPN_KYOTO01-0003,32,RETAMT,Returned Amount,0.0,VIAL,0.0,0.0,VIAL,7.0,,TREATMENT,2024-04-24,43
I8F-JE-GPGO-SURPASS,DA,I8F-JE-GPGO-SURPASS-JPN_KYOTO01-0003,33,RETAMT,Returned Amount,0.0,VIAL,0.0,0.0,VIAL,7.0,WEEK 20,TREATMENT,2024-07-31,141
I8F-JE-GPGO-SURPASS,DA,I8F-JE-GPGO-SURPASS-JPN_KYOTO01-0003,34,DISPAMT,Dispensed Amount,1.0,VIAL,1.0,1.0,VIAL,8.0,,TREATMENT,2024-05-01,50
I8F-JE-GPGO-SURPASS,DA,I8F-JE-GPGO-SURPASS-JPN_KYOTO01-0003,35,REMAMT,Remaining Amount,0.0,VIAL,0.0,0.0,VIAL,8.0,,TREATMENT,2024-05-01,50
I8F-JE-GPGO-SURPASS,DA,I8F-JE-GPGO-SURPASS-JPN_KYOTO01-0003,36,RETAMT,Returned Amount,0.0,VIAL,0.0,0.0,VIAL,8.0,,TREATMENT,2024-05-01,50
I8F-JE-GPGO-SURPASS,DA,I8F-JE-GPGO-SURPASS-JPN_KYOTO01-0003,37,DISPAMT,Dispensed Amount,1.0,VIAL,1.0,1.0,VIAL,10.0,,TREATMENT,2024-05-15,64
I8F-JE-GPGO-SURPASS,DA,I8F-JE-GPGO-SURPASS-JPN_KYOTO01-0003,38,REMAMT,Remaining Amount,0.0,VIAL,0.0,0.0,VIAL,10.0,,TREATMENT,2024-05-15,64
I8F-JE-GPGO-SURPASS,DA,I8F-JE-GPGO-SURPASS-JPN_KYOTO01-0003,39,RETAMT,Returned Amount,0.0,VIAL,0.0,0.0,VIAL,10.0,,TREATMENT,2024-05-15,64
I8F-JE-GPGO-SURPASS,DA,I8F-JE-GPGO-SURPASS-JPN_KYOTO01-0003,40,DISPAMT,Dispensed Amount,1.0,VIAL,1.0,1.0,VIAL,11.0,,TREATMENT,2024-05-22,71
I8F-JE-GPGO-SURPASS,DA,I8F-JE-GPGO-SURPASS-JPN_KYOTO01-0003,41,REMAMT,Remaining Amount,0.0,VIAL,0.0,0.0,VIAL,11.0,,TREATMENT,2024-05-22,71
I8F-JE-GPGO-SURPASS,DA,I8F-JE-GPGO-SURPASS-JPN_KYOTO01-0003,42,RETAMT,Returned Amount,0.0,VIAL,0.0,0.0,VIAL,11.0,,TREATMENT,2024-05-22,71
I8F-JE-GPGO-SURPASS,DA,I8F-JE-GPGO-SURPASS-JPN_KYOTO01-0003,43,DISPAMT,Dispensed Amount,1.0,VIAL,1.0,1.0,VIAL,12.0,,TREATMENT,2024-05-29,78
I8F-JE-GPGO-SURPASS,DA,I8F-JE-GPGO-SURPASS-JPN_KYOTO01-0003,44,REMAMT,Remaining Amount,0.0,VIAL,0.0,0.0,VIAL,12.0,,TREATMENT,2024-05-29,78
I8F-JE-GPGO-SURPASS,DA,I8F-JE-GPGO-SURPASS-JPN_KYOTO01-0003,45,RETAMT,Returned Amount,0.0,VIAL,0.0,0.0,VIAL,12.0,,TREATMENT,2024-05-29,78
I8F-JE-GPGO-SURPASS,DA,I8F-JE-GPGO-SURPASS-JPN_KYOTO01-0003,46,DISPAMT,Dispensed Amount,1.0,VIAL,1.0,1.0,VIAL,14.0,,TREATMENT,2024-06-12,92
I8F-JE-GPGO-SURPASS,DA,I8F-JE-GPGO-SURPASS-JPN_KYOTO01-0003,47,REMAMT,Remaining Amount,0.0,VIAL,0.0,0.0,VIAL,14.0,,TREATMENT,2024-06-12,92
I8F-JE-GPGO-SURPASS,DA,I8F-JE-GPGO-SURPASS-JPN_KYOTO01-0003,48,RETAMT,Returned Amount,0.0,VIAL,0.0,0.0,VIAL,14.0,,TREATMENT,2024-06-12,92
I8F-JE-GPGO-SURPASS,DA,I8F-JE-GPGO-SURPASS-JPN_KYOTO01-0003,49,DISPAMT,Dispensed Amount,1.0,VIAL,1.0,1.0,VIAL,15.0,,TREATMENT,2024-06-19,99
I8F-JE-GPGO-SURPASS,DA,I8F-JE-GPGO-SURPASS-JPN_KYOTO01-0003,50,REMAMT,Remaining Amount,0.0,VIAL,0.0,0.0,VIAL,15.0,,TREATMENT,2024-06-19,99
I8F-JE-GPGO-SURPASS,DA,I8F-JE-GPGO-SURPASS-JPN_KYOTO01-0003,51,RETAMT,Returned Amount,0.0,VIAL,0.0,0.0,VIAL,15.0,,TREATMENT,2024-06-19,99
I8F-JE-GPGO-SURPASS,DA,I8F-JE-GPGO-SURPASS-JPN_KYOTO01-0003,52,DISPAMT,Dispensed Amount,1.0,VIAL,1.0,1.0,VIAL,16.0,,TREATMENT,2024-06-26,106
I8F-JE-GPGO-SURPASS,DA,I8F-JE-GPGO-SURPASS-JPN_KYOTO01-0003,53,REMAMT,Remaining Amount,0.0,VIAL,0.0,0.0,VIAL,16.0,,TREATMENT,2024-06-26,106
I8F-JE-GPGO-SURPASS,DA,I8F-JE-GPGO-SURPASS-JPN_KYOTO01-0003,54,RETAMT,Returned Amount,0.0,VIAL,0.0,0.0,VIAL,16.0,,TREATMENT,2024-06-26,106
I8F-JE-GPGO-SURPASS,DA,I8F-JE-GPGO-SURPASS-JPN_KYOTO01-0003,55,DISPAMT,Dispensed Amount,1.0,VIAL,1.0,1.0,VIAL,18.0,,TREATMENT,2024-07-10,120
I8F-JE-GPGO-SURPASS,DA,I8F-JE-GPGO-SURPASS-JPN_KYOTO01-0003,56,REMAMT,Remaining Amount,0.0,VIAL,0.0,0.0,VIAL,18.0,,TREATMENT,2024-07-10,120
I8F-JE-GPGO-SURPASS,DA,I8F-JE-GPGO-SURPASS-JPN_KYOTO01-0003,57,RETAMT,Returned Amount,0.0,VIAL,0.0,0.0,VIAL,18.0,,TREATMENT,2024-07-10,120
I8F-JE-GPGO-SURPASS,DA,I8F-JE-GPGO-SURPASS-JPN_KYOTO01-0003,58,DISPAMT,Dispensed Amount,1.0,VIAL,1.0,1.0,VIAL,19.0,,TREATMENT,2024-07-17,127
I8F-JE-GPGO-SURPASS,DA,I8F-JE-GPGO-SURPASS-JPN_KYOTO01-0003,59,REMAMT,Remaining Amount,0.0,VIAL,0.0,0.0,VIAL,19.0,,TREATMENT,2024-07-17,127
I8F-JE-GPGO-SURPASS,DA,I8F-JE-GPGO-SURPASS-JPN_KYOTO01-0003,60,RETAMT,Returned Amount,0.0,VIAL,0.0,0.0,VIAL,19.0,,TREATMENT,2024-07-17,127
I8F-JE-GPGO-SURPASS,DA,I8F-JE-GPGO-SURPASS-JPN_KYOTO01-0003,61,DISPAMT,Dispensed Amount,1.0,VIAL,1.0,1.0,VIAL,20.0,,TREATMENT,2024-07-24,134
I8F-JE-GPGO-SURPASS,DA,I8F-JE-GPGO-SURPASS-JPN_KYOTO01-0003,62,REMAMT,Remaining Amount,0.0,VIAL,0.0,0.0,VIAL,20.0,,TREATMENT,2024-07-24,134
I8F-JE-GPGO-SURPASS,DA,I8F-JE-GPGO-SURPASS-JPN_KYOTO01-0003,63,RETAMT,Returned Amount,0.0,VIAL,0.0,0.0,VIAL,20.0,,TREATMENT,2024-07-24,134
I8F-JE-GPGO-SURPASS,DA,I8F-JE-GPGO-SURPASS-JPN_KYOTO01-0003,64,DISPAMT,Dispensed Amount,1.0,VIAL,1.0,1.0,VIAL,22.0,,TREATMENT,2024-08-07,148
I8F-JE-GPGO-SURPASS,DA,I8F-JE-GPGO-SURPASS-JPN_KYOTO01-0003,65,REMAMT,Remaining Amount,0.0,VIAL,0.0,0.0,VIAL,22.0,,TREATMENT,2024-08-07,148
I8F-JE-GPGO-SURPASS,DA,I8F-JE-GPGO-SURPASS-JPN_KYOTO01-0003,66,RETAMT,Returned Amount,0.0,VIAL,0.0,0.0,VIAL,22.0,,TREATMENT,2024-08-07,148
I8F-JE-GPGO-SURPASS,DA,I8F-JE-GPGO-SURPASS-JPN_KYOTO01-0003,67,DISPAMT,Dispensed Amount,1.0,VIAL,1.0,1.0,VIAL,23.0,,TREATMENT,2024-08-14,155
I8F-JE-GPGO-SURPASS,DA,I8F-JE-GPGO-SURPASS-JPN_KYOTO01-0003,68,REMAMT,Remaining Amount,0.0,VIAL,0.0,0.0,VIAL,23.0,,TREATMENT,2024-08-14,155
I8F-JE-GPGO-SURPASS,DA,I8F-JE-GPGO-SURPASS-JPN_KYOTO01-0003,69,RETAMT,Returned Amount,0.0,VIAL,0.0,0.0,VIAL,23.0,,TREATMENT,2024-08-14,155
I8F-JE-GPGO-SURPASS,DA,I8F-JE-GPGO-SURPASS-JPN_KYOTO01-0003,70,DISPAMT,Dispensed Amount,1.0,VIAL,1.0,1.0,VIAL,24.0,,TREATMENT,2024-08-21,162
I8F-JE-GPGO-SURPASS,DA,I8F-JE-GPGO-SURPASS-JPN_KYOTO01-0003,71,REMAMT,Remaining Amount,0.0,VIAL,0.0,0.0,VIAL,24.0,,TREATMENT,2024-08-21,162
I8F-JE-GPGO-SURPASS,DA,I8F-JE-GPGO-SURPASS-JPN_KYOTO01-0003,72,RETAMT,Returned Amount,0.0,VIAL,0.0,0.0,VIAL,24.0,,TREATMENT,2024-08-21,162
I8F-JE-GPGO-SURPASS,DA,I8F-JE-GPGO-SURPASS-JPN_KYOTO01-0004,1,DISPAMT,Dispensed Amount,1.0,VIAL,1.0,1.0,VIAL,2.0,BASELINE,TREATMENT,2024-03-28,1
I8F-JE-GPGO-SURPASS,DA,I8F-JE-GPGO-SURPASS-JPN_KYOTO01-0004,2,DISPAMT,Dispensed Amount,1.0,VIAL,1.0,1.0,VIAL,2.0,,TREATMENT,2024-04-04,8
I8F-JE-GPGO-SURPASS,DA,I8F-JE-GPGO-SURPASS-JPN_KYOTO01-0004,3,REMAMT,Remaining Amount,0.0,VIAL,0.0,0.0,VIAL,2.0,BASELINE,TREATMENT,2024-03-28,1
I8F-JE-GPGO-SURPASS,DA,I8F-JE-GPGO-SURPASS-JPN_KYOTO01-0004,4,REMAMT,Remaining Amount,0.0,VIAL,0.0,0.0,VIAL,2.0,,TREATMENT,2024-04-04,8
I8F-JE-GPGO-SURPASS,DA,I8F-JE-GPGO-SURPASS-JPN_KYOTO01-0004,5,RETAMT,Returned Amount,0.0,VIAL,0.0,0.0,VIAL,2.0,BASELINE,TREATMENT,2024-03-28,1
I8F-JE-GPGO-SURPASS,DA,I8F-JE-GPGO-SURPASS-JPN_KYOTO01-0004,6,RETAMT,Returned Amount,0.0,VIAL,0.0,0.0,VIAL,2.0,,TREATMENT,2024-04-04,8
I8F-JE-GPGO-SURPASS,DA,I8F-JE-GPGO-SURPASS-JPN_KYOTO01-0004,7,DISPAMT,Dispensed Amount,1.0,VIAL,1.0,1.0,VIAL,3.0,,TREATMENT,2024-04-11,15
I8F-JE-GPGO-SURPASS,DA,I8F-JE-GPGO-SURPASS-JPN_KYOTO01-0004,8,DISPAMT,Dispensed Amount,1.0,VIAL,1.0,1.0,VIAL,3.0,WEEK 4,TREATMENT,2024-04-25,29
I8F-JE-GPGO-SURPASS,DA,I8F-JE-GPGO-SURPASS-JPN_KYOTO01-0004,9,REMAMT,Remaining Amount,0.0,VIAL,0.0,0.0,VIAL,3.0,,TREATMENT,2024-04-11,15
I8F-JE-GPGO-SURPASS,DA,I8F-JE-GPGO-SURPASS-JPN_KYOTO01-0004,10,REMAMT,Remaining Amount,1.0,VIAL,1.0,1.0,VIAL,3.0,WEEK 4,TREATMENT,2024-04-25,29
I8F-JE-GPGO-SURPASS,DA,I8F-JE-GPGO-SURPASS-JPN_KYOTO01-0004,11,RETAMT,Returned Amount,0.0,VIAL,0.0,0.0,VIAL,3.0,,TREATMENT,2024-04-11,15
I8F-JE-GPGO-SURPASS,DA,I8F-JE-GPGO-SURPASS-JPN_KYOTO01-0004,12,RETAMT,Returned Amount,1.0,VIAL,1.0,1.0,VIAL,3.0,WEEK 4,TREATMENT,2024-04-25,29
I8F-JE-GPGO-SURPASS,DA,I8F-JE-GPGO-SURPASS-JPN_KYOTO01-0004,13,DISPAMT,Dispensed Amount,1.0,VIAL,1.0,1.0,VIAL,4.0,,TREATMENT,2024-04-18,22
I8F-JE-GPGO-SURPASS,DA,I8F-JE-GPGO-SURPASS-JPN_KYOTO01-0004,14,DISPAMT,Dispensed Amount,1.0,VIAL,1.0,1.0,VIAL,4.0,WEEK 8,TREATMENT,2024-05-23,57
I8F-JE-GPGO-SURPASS,DA,I8F-JE-GPGO-SURPASS-JPN_KYOTO01-0004,15,REMAMT,Remaining Amount,0.0,VIAL,0.0,0.0,VIAL,4.0,,TREATMENT,2024-04-18,22
I8F-JE-GPGO-SURPASS,DA,I8F-JE-GPGO-SURPASS-JPN_KYOTO01-0004,16,REMAMT,Remaining Amount,0.0,VIAL,0.0,0.0,VIAL,4.0,WEEK 8,TREATMENT,2024-05-23,57
I8F-JE-GPGO-SURPASS,DA,I8F-JE-GPGO-SURPASS-JPN_KYOTO01-0004,17,RETAMT,Returned Amount,0.0,VIAL,0.0,0.0,VIAL,4.0,,TREATMENT,2024-04-18,22
I8F-JE-GPGO-SURPASS,DA,I8F-JE-GPGO-SURPASS-JPN_KYOTO01-0004,18,RETAMT,Returned Amount,0.0,VIAL,0.0,0.0,VIAL,4.0,WEEK 8,TREATMENT,2024-05-23,57
I8F-JE-GPGO-SURPASS,DA,I8F-JE-GPGO-SURPASS-JPN_KYOTO01-0004,19,DISPAMT,Dispensed Amount,1.0,VIAL,1.0,1.0,VIAL,5.0,WEEK 12,TREATMENT,2024-06-20,85
I8F-JE-GPGO-SURPASS,DA,I8F-JE-GPGO-SURPASS-JPN_KYOTO01-0004,20,REMAMT,Remaining Amount,0.0,VIAL,0.0,0.0,VIAL,5.0,WEEK 12,TREATMENT,2024-06-20,85
I8F-JE-GPGO-SURPASS,DA,I8F-JE-GPGO-SURPASS-JPN_KYOTO01-0004,21,RETAMT,Returned Amount,0.0,VIAL,0.0,0.0,VIAL,5.0,WEEK 12,TREATMENT,2024-06-20,85
I8F-JE-GPGO-SURPASS,DA,I8F-JE-GPGO-SURPASS-JPN_KYOTO01-0004,22,DISPAMT,Dispensed Amount,1.0,VIAL,1.0,1.0,VIAL,6.0,,TREATMENT,2024-05-02,36
I8F-JE-GPGO-SURPASS,DA,I8F-JE-GPGO-SURPASS-JPN_KYOTO01-0004,23,DISPAMT,Dispensed Amount,1.0,VIAL,1.0,1.0,VIAL,6.0,WEEK 16,TREATMENT,2024-07-18,113
I8F-JE-GPGO-SURPASS,DA,I8F-JE-GPGO-SURPASS-JPN_KYOTO01-0004,24,REMAMT,Remaining Amount,1.0,VIAL,1.0,1.0,VIAL,6.0,,TREATMENT,2024-05-02,36
I8F-JE-GPGO-SURPASS,DA,I8F-JE-GPGO-SURPASS-JPN_KYOTO01-0004,25,REMAMT,Remaining Amount,0.0,VIAL,0.0,0.0,VIAL,6.0,WEEK 16,TREATMENT,2024-07-18,113
I8F-JE-GPGO-SURPASS,DA,I8F-JE-GPGO-SURPASS-JPN_KYOTO01-0004,26,RETAMT,Returned Amount,1.0,VIAL,1.0,1.0,VIAL,6.0,,TREATMENT,2024-05-02,36
I8F-JE-GPGO-SURPASS,DA,I8F-JE-GPGO-SURPASS-JPN_KYOTO01-0004,27,RETAMT,Returned Amount,0.0,VIAL,0.0,0.0,VIAL,6.0,WEEK 16,TREATMENT,2024-07-18,113
I8F-JE-GPGO-SURPASS,DA,I8F-JE-GPGO-SURPASS-JPN_KYOTO01-0004,28,DISPAMT,Dispensed Amount,1.0,VIAL,1.0,1.0,VIAL,7.0,,TREATMENT,2024-05-09,43
I8F-JE-GPGO-SURPASS,DA,I8F-JE-GPGO-SURPASS-JPN_KYOTO01-0004,29,DISPAMT,Dispensed Amount,1.0,VIAL,1.0,1.0,VIAL,7.0,WEEK 20,TREATMENT,2024-08-15,141
I8F-JE-GPGO-SURPASS,DA,I8F-JE-GPGO-SURPASS-JPN_KYOTO01-0004,30,REMAMT,Remaining Amount,1.0,VIAL,1.0,1.0,VIAL,7.0,,TREATMENT,2024-05-09,43
I8F-JE-GPGO-SURPASS,DA,I8F-JE-GPGO-SURPASS-JPN_KYOTO01-0004,31,REMAMT,Remaining Amount,0.0,VIAL,0.0,0.0,VIAL,7.0,WEEK 20,TREATMENT,2024-08-15,141
I8F-JE-GPGO-SURPASS,DA,I8F-JE-GPGO-SURPASS-JPN_KYOTO01-0004,32,RETAMT,Returned Amount,1.0,VIAL,1.0,1.0,VIAL,7.0,,TREATMENT,2024-05-09,43
I8F-JE-GPGO-SURPASS,DA,I8F-JE-GPGO-SURPASS-JPN_KYOTO01-0004,33,RETAMT,Returned Amount,0.0,VIAL,0.0,0.0,VIAL,7.0,WEEK 20,TREATMENT,2024-08-15,141
I8F-JE-GPGO-SURPASS,DA,I8F-JE-GPGO-SURPASS-JPN_KYOTO01-0004,34,DISPAMT,Dispensed Amount,1.0,VIAL,1.0,1.0,VIAL,8.0,,TREATMENT,2024-05-16,50
I8F-JE-GPGO-SURPASS,DA,I8F-JE-GPGO-SURPASS-JPN_KYOTO01-0004,35,DISPAMT,Dispensed Amount,1.0,VIAL,1.0,1.0,VIAL,8.0,WEEK 24,TREATMENT,2024-09-12,169
I8F-JE-GPGO-SURPASS,DA,I8F-JE-GPGO-SURPASS-JPN_KYOTO01-0004,36,REMAMT,Remaining Amount,0.0,VIAL,0.0,0.0,VIAL,8.0,,TREATMENT,2024-05-16,50
I8F-JE-GPGO-SURPASS,DA,I8F-JE-GPGO-SURPASS-JPN_KYOTO01-0004,37,REMAMT,Remaining Amount,0.0,VIAL,0.0,0.0,VIAL,8.0,WEEK 24,TREATMENT,2024-09-12,169
I8F-JE-GPGO-SURPASS,DA,I8F-JE-GPGO-SURPASS-JPN_KYOTO01-0004,38,RETAMT,Returned Amount,0.0,VIAL,0.0,0.0,VIAL,8.0,,TREATMENT,2024-05-16,50
I8F-JE-GPGO-SURPASS,DA,I8F-JE-GPGO-SURPASS-JPN_KYOTO01-0004,39,RETAMT,Returned Amount,0.0,VIAL,0.0,0.0,VIAL,8.0,WEEK 24,TREATMENT,2024-09-12,169
I8F-JE-GPGO-SURPASS,DA,I8F-JE-GPGO-SURPASS-JPN_KYOTO01-0004,40,DISPAMT,Dispensed Amount,1.0,VIAL,1.0,1.0,VIAL,9.0,WEEK 32,TREATMENT,2024-11-07,225
I8F-JE-GPGO-SURPASS,DA,I8F-JE-GPGO-SURPASS-JPN_KYOTO01-0004,41,REMAMT,Remaining Amount,0.0,VIAL,0.0,0.0,VIAL,9.0,WEEK 32,TREATMENT,2024-11-07,225
I8F-JE-GPGO-SURPASS,DA,I8F-JE-GPGO-SURPASS-JPN_KYOTO01-0004,42,RETAMT,Returned Amount,0.0,VIAL,0.0,0.0,VIAL,9.0,WEEK 32,TREATMENT,2024-11-07,225
I8F-JE-GPGO-SURPASS,DA,I8F-JE-GPGO-SURPASS-JPN_KYOTO01-0004,43,DISPAMT,Dispensed Amount,1.0,VIAL,1.0,1.0,VIAL,10.0,,TREATMENT,2024-05-30,64
I8F-JE-GPGO-SURPASS,DA,I8F-JE-GPGO-SURPASS-JPN_KYOTO01-0004,44,DISPAMT,Dispensed Amount,1.0,VIAL,1.0,1.0,VIAL,10.0,WEEK 40,TREATMENT,2025-01-02,281
I8F-JE-GPGO-SURPASS,DA,I8F-JE-GPGO-SURPASS-JPN_KYOTO01-0004,45,REMAMT,Remaining Amount,0.0,VIAL,0.0,0.0,VIAL,10.0,,TREATMENT,2024-05-30,64
I8F-JE-GPGO-SURPASS,DA,I8F-JE-GPGO-SURPASS-JPN_KYOTO01-0004,46,REMAMT,Remaining Amount,0.0,VIAL,0.0,0.0,VIAL,10.0,WEEK 40,TREATMENT,2025-01-02,281
I8F-JE-GPGO-SURPASS,DA,I8F-JE-GPGO-SURPASS-JPN_KYOTO01-0004,47,RETAMT,Returned Amount,0.0,VIAL,0.0,0.0,VIAL,10.0,,TREATMENT,2024-05-30,64
I8F-JE-GPGO-SURPASS,DA,I8F-JE-GPGO-SURPASS-JPN_KYOTO01-0004,48,RETAMT,Returned Amount,0.0,VIAL,0.0,0.0,VIAL,10.0,WEEK 40,TREATMENT,2025-01-02,281
I8F-JE-GPGO-SURPASS,DA,I8F-JE-GPGO-SURPASS-JPN_KYOTO01-0004,49,DISPAMT,Dispensed Amount,1.0,VIAL,1.0,1.0,VIAL,11.0,,TREATMENT,2024-06-06,71
I8F-JE-GPGO-SURPASS,DA,I8F-JE-GPGO-SURPASS-JPN_KYOTO01-0004,50,REMAMT,Remaining Amount,0.0,VIAL,0.0,0.0,VIAL,11.0,,TREATMENT,2024-06-06,71
I8F-JE-GPGO-SURPASS,DA,I8F-JE-GPGO-SURPASS-JPN_KYOTO01-0004,51,RETAMT,Returned Amount,0.0,VIAL,0.0,0.0,VIAL,11.0,,TREATMENT,2024-06-06,71
I8F-JE-GPGO-SURPASS,DA,I8F-JE-GPGO-SURPASS-JPN_KYOTO01-0004,52,DISPAMT,Dispensed Amount,1.0,VIAL,1.0,1.0,VIAL,12.0,,TREATMENT,2024-06-13,78
I8F-JE-GPGO-SURPASS,DA,I8F-JE-GPGO-SURPASS-JPN_KYOTO01-0004,53,REMAMT,Remaining Amount,0.0,VIAL,0.0,0.0,VIAL,12.0,,TREATMENT,2024-06-13,78
I8F-JE-GPGO-SURPASS,DA,I8F-JE-GPGO-SURPASS-JPN_KYOTO01-0004,54,RETAMT,Returned Amount,0.0,VIAL,0.0,0.0,VIAL,12.0,,TREATMENT,2024-06-13,78
I8F-JE-GPGO-SURPASS,DA,I8F-JE-GPGO-SURPASS-JPN_KYOTO01-0004,55,DISPAMT,Dispensed Amount,1.0,VIAL,1.0,1.0,VIAL,14.0,,TREATMENT,2024-06-27,92
I8F-JE-GPGO-SURPASS,DA,I8F-JE-GPGO-SURPASS-JPN_KYOTO01-0004,56,REMAMT,Remaining Amount,0.0,VIAL,0.0,0.0,VIAL,14.0,,TREATMENT,2024-06-27,92
I8F-JE-GPGO-SURPASS,DA,I8F-JE-GPGO-SURPASS-JPN_KYOTO01-0004,57,RETAMT,Returned Amount,0.0,VIAL,0.0,0.0,VIAL,14.0,,TREATMENT,2024-06-27,92
I8F-JE-GPGO-SURPASS,DA,I8F-JE-GPGO-SURPASS-JPN_KYOTO01-0004,58,DISPAMT,Dispensed Amount,1.0,VIAL,1.0,1.0,VIAL,15.0,,TREATMENT,2024-07-04,99
I8F-JE-GPGO-SURPASS,DA,I8F-JE-GPGO-SURPASS-JPN_KYOTO01-0004,59,REMAMT,Remaining Amount,0.0,VIAL,0.0,0.0,VIAL,15.0,,TREATMENT,2024-07-04,99
I8F-JE-GPGO-SURPASS,DA,I8F-JE-GPGO-SURPASS-JPN_KYOTO01-0004,60,RETAMT,Returned Amount,0.0,VIAL,0.0,0.0,VIAL,15.0,,TREATMENT,2024-07-04,99
I8F-JE-GPGO-SURPASS,DA,I8F-JE-GPGO-SURPASS-JPN_KYOTO01-0004,61,DISPAMT,Dispensed Amount,1.0,VIAL,1.0,1.0,VIAL,16.0,,TREATMENT,2024-07-11,106
I8F-JE-GPGO-SURPASS,DA,I8F-JE-GPGO-SURPASS-JPN_KYOTO01-0004,62,REMAMT,Remaining Amount,0.0,VIAL,0.0,0.0,VIAL,16.0,,TREATMENT,2024-07-11,106
I8F-JE-GPGO-SURPASS,DA,I8F-JE-GPGO-SURPASS-JPN_KYOTO01-0004,63,RETAMT,Returned Amount,0.0,VIAL,0.0,0.0,VIAL,16.0,,TREATMENT,2024-07-11,106
I8F-JE-GPGO-SURPASS,DA,I8F-JE-GPGO-SURPASS-JPN_KYOTO01-0004,64,DISPAMT,Dispensed Amount,1.0,VIAL,1.0,1.0,VIAL,18.0,,TREATMENT,2024-07-25,120
I8F-JE-GPGO-SURPASS,DA,I8F-JE-GPGO-SURPASS-JPN_KYOTO01-0004,65,REMAMT,Remaining Amount,0.0,VIAL,0.0,0.0,VIAL,18.0,,TREATMENT,2024-07-25,120
I8F-JE-GPGO-SURPASS,DA,I8F-JE-GPGO-SURPASS-JPN_KYOTO01-0004,66,RETAMT,Returned Amount,0.0,VIAL,0.0,0.0,VIAL,18.0,,TREATMENT,2024-07-25,120
I8F-JE-GPGO-SURPASS,DA,I8F-JE-GPGO-SURPASS-JPN_KYOTO01-0004,67,DISPAMT,Dispensed Amount,1.0,VIAL,1.0,1.0,VIAL,19.0,,TREATMENT,2024-08-01,127
I8F-JE-GPGO-SURPASS,DA,I8F-JE-GPGO-SURPASS-JPN_KYOTO01-0004,68,REMAMT,Remaining Amount,0.0,VIAL,0.0,0.0,VIAL,19.0,,TREATMENT,2024-08-01,127
I8F-JE-GPGO-SURPASS,DA,I8F-JE-GPGO-SURPASS-JPN_KYOTO01-0004,69,RETAMT,Returned Amount,0.0,VIAL,0.0,0.0,VIAL,19.0,,TREATMENT,2024-08-01,127
I8F-JE-GPGO-SURPASS,DA,I8F-JE-GPGO-SURPASS-JPN_KYOTO01-0004,70,DISPAMT,Dispensed Amount,1.0,VIAL,1.0,1.0,VIAL,20.0,,TREATMENT,2024-08-08,134
I8F-JE-GPGO-SURPASS,DA,I8F-JE-GPGO-SURPASS-JPN_KYOTO01-0004,71,REMAMT,Remaining Amount,1.0,VIAL,1.0,1.0,VIAL,20.0,,TREATMENT,2024-08-08,134
I8F-JE-GPGO-SURPASS,DA,I8F-JE-GPGO-SURPASS-JPN_KYOTO01-0004,72,RETAMT,Returned Amount,1.0,VIAL,1.0,1.0,VIAL,20.0,,TREATMENT,2024-08-08,134
I8F-JE-GPGO-SURPASS,DA,I8F-JE-GPGO-SURPASS-JPN_KYOTO01-0004,73,DISPAMT,Dispensed Amount,1.0,VIAL,1.0,1.0,VIAL,22.0,,TREATMENT,2024-08-22,148
I8F-JE-GPGO-SURPASS,DA,I8F-JE-GPGO-SURPASS-JPN_KYOTO01-0004,74,REMAMT,Remaining Amount,1.0,VIAL,1.0,1.0,VIAL,22.0,,TREATMENT,2024-08-22,148
I8F-JE-GPGO-SURPASS,DA,I8F-JE-GPGO-SURPASS-JPN_KYOTO01-0004,75,RETAMT,Returned Amount,1.0,VIAL,1.0,1.0,VIAL,22.0,,TREATMENT,2024-08-22,148
I8F-JE-GPGO-SURPASS,DA,I8F-JE-GPGO-SURPASS-JPN_KYOTO01-0004,76,DISPAMT,Dispensed Amount,1.0,VIAL,1.0,1.0,VIAL,23.0,,TREATMENT,2024-08-29,155
I8F-JE-GPGO-SURPASS,DA,I8F-JE-GPGO-SURPASS-JPN_KYOTO01-0004,77,REMAMT,Remaining Amount,0.0,VIAL,0.0,0.0,VIAL,23.0,,TREATMENT,2024-08-29,155
I8F-JE-GPGO-SURPASS,DA,I8F-JE-GPGO-SURPASS-JPN_KYOTO01-0004,78,RETAMT,Returned Amount,0.0,VIAL,0.0,0.0,VIAL,23.0,,TREATMENT,2024-08-29,155
I8F-JE-GPGO-SURPASS,DA,I8F-JE-GPGO-SURPASS-JPN_KYOTO01-0004,79,DISPAMT,Dispensed Amount,1.0,VIAL,1.0,1.0,VIAL,24.0,,TREATMENT,2024-09-05,162
I8F-JE-GPGO-SURPASS,DA,I8F-JE-GPGO-SURPASS-JPN_KYOTO01-0004,80,REMAMT,Remaining Amount,0.0,VIAL,0.0,0.0,VIAL,24.0,,TREATMENT,2024-09-05,162
I8F-JE-GPGO-SURPASS,DA,I8F-JE-GPGO-SURPASS-JPN_KYOTO01-0004,81,RETAMT,Returned Amount,0.0,VIAL,0.0,0.0,VIAL,24.0,,TREATMENT,2024-09-05,162
I8F-JE-GPGO-SURPASS,DA,I8F-JE-GPGO-SURPASS-JPN_KYOTO01-0004,82,DISPAMT,Dispensed Amount,1.0,VIAL,1.0,1.0,VIAL,26.0,,TREATMENT,2024-09-19,176
I8F-JE-GPGO-SURPASS,DA,I8F-JE-GPGO-SURPASS-JPN_KYOTO01-0004,83,REMAMT,Remaining Amount,0.0,VIAL,0.0,0.0,VIAL,26.0,,TREATMENT,2024-09-19,176
I8F-JE-GPGO-SURPASS,DA,I8F-JE-GPGO-SURPASS-JPN_KYOTO01-0004,84,RETAMT,Returned Amount,0.0,VIAL,0.0,0.0,VIAL,26.0,,TREATMENT,2024-09-19,176
I8F-JE-GPGO-SURPASS,DA,I8F-JE-GPGO-SURPASS-JPN_KYOTO01-0004,85,DISPAMT,Dispensed Amount,1.0,VIAL,1.0,1.0,VIAL,27.0,,TREATMENT,2024-09-26,183
I8F-JE-GPGO-SURPASS,DA,I8F-JE-GPGO-SURPASS-JPN_KYOTO01-0004,86,REMAMT,Remaining Amount,0.0,VIAL,0.0,0.0,VIAL,27.0,,TREATMENT,2024-09-26,183
I8F-JE-GPGO-SURPASS,DA,I8F-JE-GPGO-SURPASS-JPN_KYOTO01-0004,87,RETAMT,Returned Amount,0.0,VIAL,0.0,0.0,VIAL,27.0,,TREATMENT,2024-09-26,183
I8F-JE-GPGO-SURPASS,DA,I8F-JE-GPGO-SURPASS-JPN_KYOTO01-0004,88,DISPAMT,Dispensed Amount,1.0,VIAL,1.0,1.0,VIAL,28.0,,TREATMENT,2024-10-03,190
I8F-JE-GPGO-SURPASS,DA,I8F-JE-GPGO-SURPASS-JPN_KYOTO01-0004,89,REMAMT,Remaining Amount,0.0,VIAL,0.0,0.0,VIAL,28.0,,TREATMENT,2024-10-03,190
I8F-JE-GPGO-SURPASS,DA,I8F-JE-GPGO-SURPASS-JPN_KYOTO01-0004,90,RETAMT,Returned Amount,0.0,VIAL,0.0,0.0,VIAL,28.0,,TREATMENT,2024-10-03,190
I8F-JE-GPGO-SURPASS,DA,I8F-JE-GPGO-SURPASS-JPN_KYOTO01-0004,91,DISPAMT,Dispensed Amount,1.0,VIAL,1.0,1.0,VIAL,29.0,,TREATMENT,2024-10-10,197
I8F-JE-GPGO-SURPASS,DA,I8F-JE-GPGO-SURPASS-JPN_KYOTO01-0004,92,REMAMT,Remaining Amount,0.0,VIAL,0.0,0.0,VIAL,29.0,,TREATMENT,2024-10-10,197
I8F-JE-GPGO-SURPASS,DA,I8F-JE-GPGO-SURPASS-JPN_KYOTO01-0004,93,RETAMT,Returned Amount,0.0,VIAL,0.0,0.0,VIAL,29.0,,TREATMENT,2024-10-10,197
I8F-JE-GPGO-SURPASS,DA,I8F-JE-GPGO-SURPASS-JPN_KYOTO01-0004,94,DISPAMT,Dispensed Amount,1.0,VIAL,1.0,1.0,VIAL,30.0,,TREATMENT,2024-10-17,204
I8F-JE-GPGO-SURPASS,DA,I8F-JE-GPGO-SURPASS-JPN_KYOTO01-0004,95,REMAMT,Remaining Amount,0.0,VIAL,0.0,0.0,VIAL,30.0,,TREATMENT,2024-10-17,204
I8F-JE-GPGO-SURPASS,DA,I8F-JE-GPGO-SURPASS-JPN_KYOTO01-0004,96,RETAMT,Returned Amount,0.0,VIAL,0.0,0.0,VIAL,30.0,,TREATMENT,2024-10-17,204
I8F-JE-GPGO-SURPASS,DA,I8F-JE-GPGO-SURPASS-JPN_KYOTO01-0004,97,DISPAMT,Dispensed Amount,1.0,VIAL,1.0,1.0,VIAL,31.0,,TREATMENT,2024-10-24,211
I8F-JE-GPGO-SURPASS,DA,I8F-JE-GPGO-SURPASS-JPN_KYOTO01-0004,98,REMAMT,Remaining Amount,0.0,VIAL,0.0,0.0,VIAL,31.0,,TREATMENT,2024-10-24,211
I8F-JE-GPGO-SURPASS,DA,I8F-JE-GPGO-SURPASS-JPN_KYOTO01-0004,99,RETAMT,Returned Amount,0.0,VIAL,0.0,0.0,VIAL,31.0,,TREATMENT,2024-10-24,211
I8F-JE-GPGO-SURPASS,DA,I8F-JE-GPGO-SURPASS-JPN_KYOTO01-0004,100,DISPAMT,Dispensed Amount,1.0,VIAL,1.0,1.0,VIAL,32.0,,TREATMENT,2024-10-31,218
I8F-JE-GPGO-SURPASS,DA,I8F-JE-GPGO-SURPASS-JPN_KYOTO01-0004,101,REMAMT,Remaining Amount,0.0,VIAL,0.0,0.0,VIAL,32.0,,TREATMENT,2024-10-31,218
I8F-JE-GPGO-SURPASS,DA,I8F-JE-GPGO-SURPASS-JPN_KYOTO01-0004,102,RETAMT,Returned Amount,0.0,VIAL,0.0,0.0,VIAL,32.0,,TREATMENT,2024-10-31,218
I8F-JE-GPGO-SURPASS,DA,I8F-JE-GPGO-SURPASS-JPN_KYOTO01-0004,103,DISPAMT,Dispensed Amount,1.0,VIAL,1.0,1.0,VIAL,34.0,,TREATMENT,2024-11-14,232
I8F-JE-GPGO-SURPASS,DA,I8F-JE-GPGO-SURPASS-JPN_KYOTO01-0004,104,REMAMT,Remaining Amount,0.0,VIAL,0.0,0.0,VIAL,34.0,,TREATMENT,2024-11-14,232
I8F-JE-GPGO-SURPASS,DA,I8F-JE-GPGO-SURPASS-JPN_KYOTO01-0004,105,RETAMT,Returned Amount,0.0,VIAL,0.0,0.0,VIAL,34.0,,TREATMENT,2024-11-14,232
I8F-JE-GPGO-SURPASS,DA,I8F-JE-GPGO-SURPASS-JPN_KYOTO01-0004,106,DISPAMT,Dispensed Amount,1.0,VIAL,1.0,1.0,VIAL,35.0,,TREATMENT,2024-11-21,239
I8F-JE-GPGO-SURPASS,DA,I8F-JE-GPGO-SURPASS-JPN_KYOTO01-0004,107,REMAMT,Remaining Amount,0.0,VIAL,0.0,0.0,VIAL,35.0,,TREATMENT,2024-11-21,239
I8F-JE-GPGO-SURPASS,DA,I8F-JE-GPGO-SURPASS-JPN_KYOTO01-0004,108,RETAMT,Returned Amount,0.0,VIAL,0.0,0.0,VIAL,35.0,,TREATMENT,2024-11-21,239
I8F-JE-GPGO-SURPASS,DA,I8F-JE-GPGO-SURPASS-JPN_KYOTO01-0004,109,DISPAMT,Dispensed Amount,1.0,VIAL,1.0,1.0,VIAL,36.0,,TREATMENT,2024-11-28,246
I8F-JE-GPGO-SURPASS,DA,I8F-JE-GPGO-SURPASS-JPN_KYOTO01-0004,110,REMAMT,Remaining Amount,0.0,VIAL,0.0,0.0,VIAL,36.0,,TREATMENT,2024-11-28,246
I8F-JE-GPGO-SURPASS,DA,I8F-JE-GPGO-SURPASS-JPN_KYOTO01-0004,111,RETAMT,Returned Amount,0.0,VIAL,0.0,0.0,VIAL,36.0,,TREATMENT,2024-11-28,246
I8F-JE-GPGO-SURPASS,DA,I8F-JE-GPGO-SURPASS-JPN_KYOTO01-0004,112,DISPAMT,Dispensed Amount,1.0,VIAL,1.0,1.0,VIAL,37.0,,TREATMENT,2024-12-05,253
I8F-JE-GPGO-SURPASS,DA,I8F-JE-GPGO-SURPASS-JPN_KYOTO01-0004,113,REMAMT,Remaining Amount,1.0,VIAL,1.0,1.0,VIAL,37.0,,TREATMENT,2024-12-05,253
I8F-JE-GPGO-SURPASS,DA,I8F-JE-GPGO-SURPASS-JPN_KYOTO01-0004,114,RETAMT,Returned Amount,1.0,VIAL,1.0,1.0,VIAL,37.0,,TREATMENT,2024-12-05,253
I8F-JE-GPGO-SURPASS,DA,I8F-JE-GPGO-SURPASS-JPN_KYOTO01-0004,115,DISPAMT,Dispensed Amount,1.0,VIAL,1.0,1.0,VIAL,38.0,,TREATMENT,2024-12-12,260
I8F-JE-GPGO-SURPASS,DA,I8F-JE-GPGO-SURPASS-JPN_KYOTO01-0004,116,REMAMT,Remaining Amount,0.0,VIAL,0.0,0.0,VIAL,38.0,,TREATMENT,2024-12-12,260
I8F-JE-GPGO-SURPASS,DA,I8F-JE-GPGO-SURPASS-JPN_KYOTO01-0004,117,RETAMT,Returned Amount,0.0,VIAL,0.0,0.0,VIAL,38.0,,TREATMENT,2024-12-12,260
I8F-JE-GPGO-SURPASS,DA,I8F-JE-GPGO-SURPASS-JPN_KYOTO01-0004,118,DISPAMT,Dispensed Amount,1.0,VIAL,1.0,1.0,VIAL,39.0,,TREATMENT,2024-12-19,267
I8F-JE-GPGO-SURPASS,DA,I8F-JE-GPGO-SURPASS-JPN_KYOTO01-0004,119,REMAMT,Remaining Amount,0.0,VIAL,0.0,0.0,VIAL,39.0,,TREATMENT,2024-12-19,267
I8F-JE-GPGO-SURPASS,DA,I8F-JE-GPGO-SURPASS-JPN_KYOTO01-0004,120,RETAMT,Returned Amount,0.0,VIAL,0.0,0.0,VIAL,39.0,,TREATMENT,2024-12-19,267
I8F-JE-GPGO-SURPASS,DA,I8F-JE-GPGO-SURPASS-JPN_KYOTO01-0004,121,DISPAMT,Dispensed Amount,1.0,VIAL,1.0,1.0,VIAL,40.0,,TREATMENT,2024-12-26,274
I8F-JE-GPGO-SURPASS,DA,I8F-JE-GPGO-SURPASS-JPN_KYOTO01-0004,122,REMAMT,Remaining Amount,0.0,VIAL,0.0,0.0,VIAL,40.0,,TREATMENT,2024-12-26,274
I8F-JE-GPGO-SURPASS,DA,I8F-JE-GPGO-SURPASS-JPN_KYOTO01-0004,123,RETAMT,Returned Amount,0.0,VIAL,0.0,0.0,VIAL,40.0,,TREATMENT,2024-12-26,274
I8F-JE-GPGO-SURPASS,DA,I8F-JE-GPGO-SURPASS-JPN_KYOTO01-0004,124,DISPAMT,Dispensed Amount,1.0,VIAL,1.0,1.0,VIAL,42.0,,TREATMENT,2025-01-09,288
I8F-JE-GPGO-SURPASS,DA,I8F-JE-GPGO-SURPASS-JPN_KYOTO01-0004,125,REMAMT,Remaining Amount,0.0,VIAL,0.0,0.0,VIAL,42.0,,TREATMENT,2025-01-09,288
I8F-JE-GPGO-SURPASS,DA,I8F-JE-GPGO-SURPASS-JPN_KYOTO01-0004,126,RETAMT,Returned Amount,0.0,VIAL,0.0,0.0,VIAL,42.0,,TREATMENT,2025-01-09,288
I8F-JE-GPGO-SURPASS,DA,I8F-JE-GPGO-SURPASS-JPN_KYOTO01-0004,127,DISPAMT,Dispensed Amount,1.0,VIAL,1.0,1.0,VIAL,43.0,,TREATMENT,2025-01-16,295
I8F-JE-GPGO-SURPASS,DA,I8F-JE-GPGO-SURPASS-JPN_KYOTO01-0004,128,REMAMT,Remaining Amount,0.0,VIAL,0.0,0.0,VIAL,43.0,,TREATMENT,2025-01-16,295
I8F-JE-GPGO-SURPASS,DA,I8F-JE-GPGO-SURPASS-JPN_KYOTO01-0004,129,RETAMT,Returned Amount,0.0,VIAL,0.0,0.0,VIAL,43.0,,TREATMENT,2025-01-16,295
I8F-JE-GPGO-SURPASS,DA,I8F-JE-GPGO-SURPASS-JPN_KYOTO01-0004,130,DISPAMT,Dispensed Amount,1.0,VIAL,1.0,1.0,VIAL,44.0,,TREATMENT,2025-01-23,302
I8F-JE-GPGO-SURPASS,DA,I8F-JE-GPGO-SURPASS-JPN_KYOTO01-0004,131,REMAMT,Remaining Amount,0.0,VIAL,0.0,0.0,VIAL,44.0,,TREATMENT,2025-01-23,302
I8F-JE-GPGO-SURPASS,DA,I8F-JE-GPGO-SURPASS-JPN_KYOTO01-0004,132,RETAMT,Returned Amount,0.0,VIAL,0.0,0.0,VIAL,44.0,,TREATMENT,2025-01-23,302
I8F-JE-GPGO-SURPASS,DA,I8F-JE-GPGO-SURPASS-JPN_KYOTO01-0004,133,DISPAMT,Dispensed Amount,1.0,VIAL,1.0,1.0,VIAL,45.0,,TREATMENT,2025-01-30,309
I8F-JE-GPGO-SURPASS,DA,I8F-JE-GPGO-SURPASS-JPN_KYOTO01-0004,134,REMAMT,Remaining Amount,0.0,VIAL,0.0,0.0,VIAL,45.0,,TREATMENT,2025-01-30,309
I8F-JE-GPGO-SURPASS,DA,I8F-JE-GPGO-SURPASS-JPN_KYOTO01-0004,135,RETAMT,Returned Amount,0.0,VIAL,0.0,0.0,VIAL,45.0,,TREATMENT,2025-01-30,309
I8F-JE-GPGO-SURPASS,DA,I8F-JE-GPGO-SURPASS-JPN_KYOTO01-0004,136,DISPAMT,Dispensed Amount,1.0,VIAL,1.0,1.0,VIAL,46.0,,TREATMENT,2025-02-06,316
I8F-JE-GPGO-SURPASS,DA,I8F-JE-GPGO-SURPASS-JPN_KYOTO01-0004,137,REMAMT,Remaining Amount,0.0,VIAL,0.0,0.0,VIAL,46.0,,TREATMENT,2025-02-06,316
I8F-JE-GPGO-SURPASS,DA,I8F-JE-GPGO-SURPASS-JPN_KYOTO01-0004,138,RETAMT,Returned Amount,0.0,VIAL,0.0,0.0,VIAL,46.0,,TREATMENT,2025-02-06,316
I8F-JE-GPGO-SURPASS,DA,I8F-JE-GPGO-SURPASS-JPN_KYOTO01-0004,139,DISPAMT,Dispensed Amount,1.0,VIAL,1.0,1.0,VIAL,47.0,,TREATMENT,2025-02-13,323
I8F-JE-GPGO-SURPASS,DA,I8F-JE-GPGO-SURPASS-JPN_KYOTO01-0004,140,REMAMT,Remaining Amount,0.0,VIAL,0.0,0.0,VIAL,47.0,,TREATMENT,2025-02-13,323
I8F-JE-GPGO-SURPASS,DA,I8F-JE-GPGO-SURPASS-JPN_KYOTO01-0004,141,RETAMT,Returned Amount,0.0,VIAL,0.0,0.0,VIAL,47.0,,TREATMENT,2025-02-13,323
I8F-JE-GPGO-SURPASS,DA,I8F-JE-GPGO-SURPASS-JPN_KYOTO01-0004,142,DISPAMT,Dispensed Amount,1.0,VIAL,1.0,1.0,VIAL,48.0,,TREATMENT,2025-02-20,330
I8F-JE-GPGO-SURPASS,DA,I8F-JE-GPGO-SURPASS-JPN_KYOTO01-0004,143,REMAMT,Remaining Amount,0.0,VIAL,0.0,0.0,VIAL,48.0,,TREATMENT,2025-02-20,330
I8F-JE-GPGO-SURPASS,DA,I8F-JE-GPGO-SURPASS-JPN_KYOTO01-0004,144,RETAMT,Returned Amount,0.0,VIAL,0.0,0.0,VIAL,48.0,,TREATMENT,2025-02-20,330
I8F-JE-GPGO-SURPASS,DA,I8F-JE-GPGO-SURPASS-JPN_KYOTO01-0004,145,DISPAMT,Dispensed Amount,1.0,VIAL,1.0,1.0,VIAL,49.0,,TREATMENT,2025-02-27,337
I8F-JE-GPGO-SURPASS,DA,I8F-JE-GPGO-SURPASS-JPN_KYOTO01-0004,146,REMAMT,Remaining Amount,0.0,VIAL,0.0,0.0,VIAL,49.0,,TREATMENT,2025-02-27,337
I8F-JE-GPGO-SURPASS,DA,I8F-JE-GPGO-SURPASS-JPN_KYOTO01-0004,147,RETAMT,Returned Amount,0.0,VIAL,0.0,0.0,VIAL,49.0,,TREATMENT,2025-02-27,337
I8F-JE-GPGO-SURPASS,DA,I8F-JE-GPGO-SURPASS-JPN_KYOTO01-0004,148,DISPAMT,Dispensed Amount,1.0,VIAL,1.0,1.0,VIAL,50.0,,TREATMENT,2025-03-06,344
I8F-JE-GPGO-SURPASS,DA,I8F-JE-GPGO-SURPASS-JPN_KYOTO01-0004,149,REMAMT,Remaining Amount,0.0,VIAL,0.0,0.0,VIAL,50.0,,TREATMENT,2025-03-06,344
I8F-JE-GPGO-SURPASS,DA,I8F-JE-GPGO-SURPASS-JPN_KYOTO01-0004,150,RETAMT,Returned Amount,0.0,VIAL,0.0,0.0,VIAL,50.0,,TREATMENT,2025-03-06,344
I8F-JE-GPGO-SURPASS,DA,I8F-JE-GPGO-SURPASS-JPN_KYOTO01-0004,151,DISPAMT,Dispensed Amount,1.0,VIAL,1.0,1.0,VIAL,51.0,,TREATMENT,2025-03-13,351
I8F-JE-GPGO-SURPASS,DA,I8F-JE-GPGO-SURPASS-JPN_KYOTO01-0004,152,REMAMT,Remaining Amount,0.0,VIAL,0.0,0.0,VIAL,51.0,,TREATMENT,2025-03-13,351
I8F-JE-GPGO-SURPASS,DA,I8F-JE-GPGO-SURPASS-JPN_KYOTO01-0004,153,RETAMT,Returned Amount,0.0,VIAL,0.0,0.0,VIAL,51.0,,TREATMENT,2025-03-13,351
I8F-JE-GPGO-SURPASS,DA,I8F-JE-GPGO-SURPASS-JPN_KYOTO01-0004,154,DISPAMT,Dispensed Amount,1.0,VIAL,1.0,1.0,VIAL,52.0,,TREATMENT,2025-03-20,358
I8F-JE-GPGO-SURPASS,DA,I8F-JE-GPGO-SURPASS-JPN_KYOTO01-0004,155,REMAMT,Remaining Amount,0.0,VIAL,0.0,0.0,VIAL,52.0,,TREATMENT,2025-03-20,358
I8F-JE-GPGO-SURPASS,DA,I8F-JE-GPGO-SURPASS-JPN_KYOTO01-0004,156,RETAMT,Returned Amount,0.0,VIAL,0.0,0.0,VIAL,52.0,,TREATMENT,2025-03-20,358
I8F-JE-GPGO-SURPASS,DA,I8F-JE-GPGO-SURPASS-JPN_KYOTO01-0007,1,DISPAMT,Dispensed Amount,1.0,VIAL,1.0,1.0,VIAL,2.0,BASELINE,TREATMENT,2024-03-28,1
I8F-JE-GPGO-SURPASS,DA,I8F-JE-GPGO-SURPASS-JPN_KYOTO01-0007,2,DISPAMT,Dispensed Amount,1.0,VIAL,1.0,1.0,VIAL,2.0,,TREATMENT,2024-04-04,8
I8F-JE-GPGO-SURPASS,DA,I8F-JE-GPGO-SURPASS-JPN_KYOTO01-0007,3,REMAMT,Remaining Amount,0.0,VIAL,0.0,0.0,VIAL,2.0,BASELINE,TREATMENT,2024-03-28,1
I8F-JE-GPGO-SURPASS,DA,I8F-JE-GPGO-SURPASS-JPN_KYOTO01-0007,4,REMAMT,Remaining Amount,0.0,VIAL,0.0,0.0,VIAL,2.0,,TREATMENT,2024-04-04,8
I8F-JE-GPGO-SURPASS,DA,I8F-JE-GPGO-SURPASS-JPN_KYOTO01-0007,5,RETAMT,Returned Amount,0.0,VIAL,0.0,0.0,VIAL,2.0,BASELINE,TREATMENT,2024-03-28,1
I8F-JE-GPGO-SURPASS,DA,I8F-JE-GPGO-SURPASS-JPN_KYOTO01-0007,6,RETAMT,Returned Amount,0.0,VIAL,0.0,0.0,VIAL,2.0,,TREATMENT,2024-04-04,8
I8F-JE-GPGO-SURPASS,DA,I8F-JE-GPGO-SURPASS-JPN_KYOTO01-0007,7,DISPAMT,Dispensed Amount,1.0,VIAL,1.0,1.0,VIAL,3.0,,TREATMENT,2024-04-11,15
I8F-JE-GPGO-SURPASS,DA,I8F-JE-GPGO-SURPASS-JPN_KYOTO01-0007,8,DISPAMT,Dispensed Amount,1.0,VIAL,1.0,1.0,VIAL,3.0,WEEK 4,TREATMENT,2024-04-25,29
I8F-JE-GPGO-SURPASS,DA,I8F-JE-GPGO-SURPASS-JPN_KYOTO01-0007,9,REMAMT,Remaining Amount,0.0,VIAL,0.0,0.0,VIAL,3.0,,TREATMENT,2024-04-11,15
I8F-JE-GPGO-SURPASS,DA,I8F-JE-GPGO-SURPASS-JPN_KYOTO01-0007,10,REMAMT,Remaining Amount,0.0,VIAL,0.0,0.0,VIAL,3.0,WEEK 4,TREATMENT,2024-04-25,29
I8F-JE-GPGO-SURPASS,DA,I8F-JE-GPGO-SURPASS-JPN_KYOTO01-0007,11,RETAMT,Returned Amount,0.0,VIAL,0.0,0.0,VIAL,3.0,,TREATMENT,2024-04-11,15
I8F-JE-GPGO-SURPASS,DA,I8F-JE-GPGO-SURPASS-JPN_KYOTO01-0007,12,RETAMT,Returned Amount,0.0,VIAL,0.0,0.0,VIAL,3.0,WEEK 4,TREATMENT,2024-04-25,29
I8F-JE-GPGO-SURPASS,DA,I8F-JE-GPGO-SURPASS-JPN_KYOTO01-0007,13,DISPAMT,Dispensed Amount,1.0,VIAL,1.0,1.0,VIAL,4.0,,TREATMENT,2024-04-18,22
I8F-JE-GPGO-SURPASS,DA,I8F-JE-GPGO-SURPASS-JPN_KYOTO01-0007,14,DISPAMT,Dispensed Amount,1.0,VIAL,1.0,1.0,VIAL,4.0,WEEK 8,TREATMENT,2024-05-23,57
I8F-JE-GPGO-SURPASS,DA,I8F-JE-GPGO-SURPASS-JPN_KYOTO01-0007,15,REMAMT,Remaining Amount,0.0,VIAL,0.0,0.0,VIAL,4.0,,TREATMENT,2024-04-18,22
I8F-JE-GPGO-SURPASS,DA,I8F-JE-GPGO-SURPASS-JPN_KYOTO01-0007,16,REMAMT,Remaining Amount,1.0,VIAL,1.0,1.0,VIAL,4.0,WEEK 8,TREATMENT,2024-05-23,57
I8F-JE-GPGO-SURPASS,DA,I8F-JE-GPGO-SURPASS-JPN_KYOTO01-0007,17,RETAMT,Returned Amount,0.0,VIAL,0.0,0.0,VIAL,4.0,,TREATMENT,2024-04-18,22
I8F-JE-GPGO-SURPASS,DA,I8F-JE-GPGO-SURPASS-JPN_KYOTO01-0007,18,RETAMT,Returned Amount,1.0,VIAL,1.0,1.0,VIAL,4.0,WEEK 8,TREATMENT,2024-05-23,57
I8F-JE-GPGO-SURPASS,DA,I8F-JE-GPGO-SURPASS-JPN_KYOTO01-0007,19,DISPAMT,Dispensed Amount,1.0,VIAL,1.0,1.0,VIAL,5.0,WEEK 12,TREATMENT,2024-06-20,85
I8F-JE-GPGO-SURPASS,DA,I8F-JE-GPGO-SURPASS-JPN_KYOTO01-0007,20,REMAMT,Remaining Amount,0.0,VIAL,0.0,0.0,VIAL,5.0,WEEK 12,TREATMENT,2024-06-20,85
I8F-JE-GPGO-SURPASS,DA,I8F-JE-GPGO-SURPASS-JPN_KYOTO01-0007,21,RETAMT,Returned Amount,0.0,VIAL,0.0,0.0,VIAL,5.0,WEEK 12,TREATMENT,2024-06-20,85
I8F-JE-GPGO-SURPASS,DA,I8F-JE-GPGO-SURPASS-JPN_KYOTO01-0007,22,DISPAMT,Dispensed Amount,1.0,VIAL,1.0,1.0,VIAL,6.0,,TREATMENT,2024-05-02,36
I8F-JE-GPGO-SURPASS,DA,I8F-JE-GPGO-SURPASS-JPN_KYOTO01-0007,23,REMAMT,Remaining Amount,0.0,VIAL,0.0,0.0,VIAL,6.0,,TREATMENT,2024-05-02,36
I8F-JE-GPGO-SURPASS,DA,I8F-JE-GPGO-SURPASS-JPN_KYOTO01-0007,24,RETAMT,Returned Amount,0.0,VIAL,0.0,0.0,VIAL,6.0,,TREATMENT,2024-05-02,36
I8F-JE-GPGO-SURPASS,DA,I8F-JE-GPGO-SURPASS-JPN_KYOTO01-0007,25,DISPAMT,Dispensed Amount,1.0,VIAL,1.0,1.0,VIAL,7.0,,TREATMENT,2024-05-09,43
I8F-JE-GPGO-SURPASS,DA,I8F-JE-GPGO-SURPASS-JPN_KYOTO01-0007,26,REMAMT,Remaining Amount,0.0,VIAL,0.0,0.0,VIAL,7.0,,TREATMENT,2024-05-09,43
I8F-JE-GPGO-SURPASS,DA,I8F-JE-GPGO-SURPASS-JPN_KYOTO01-0007,27,RETAMT,Returned Amount,0.0,VIAL,0.0,0.0,VIAL,7.0,,TREATMENT,2024-05-09,43
I8F-JE-GPGO-SURPASS,DA,I8F-JE-GPGO-SURPASS-JPN_KYOTO01-0007,28,DISPAMT,Dispensed Amount,1.0,VIAL,1.0,1.0,VIAL,8.0,,TREATMENT,2024-05-16,50
I8F-JE-GPGO-SURPASS,DA,I8F-JE-GPGO-SURPASS-JPN_KYOTO01-0007,29,REMAMT,Remaining Amount,0.0,VIAL,0.0,0.0,VIAL,8.0,,TREATMENT,2024-05-16,50
I8F-JE-GPGO-SURPASS,DA,I8F-JE-GPGO-SURPASS-JPN_KYOTO01-0007,30,RETAMT,Returned Amount,0.0,VIAL,0.0,0.0,VIAL,8.0,,TREATMENT,2024-05-16,50
I8F-JE-GPGO-SURPASS,DA,I8F-JE-GPGO-SURPASS-JPN_KYOTO01-0007,31,DISPAMT,Dispensed Amount,1.0,VIAL,1.0,1.0,VIAL,10.0,,TREATMENT,2024-05-30,64
I8F-JE-GPGO-SURPASS,DA,I8F-JE-GPGO-SURPASS-JPN_KYOTO01-0007,32,REMAMT,Remaining Amount,0.0,VIAL,0.0,0.0,VIAL,10.0,,TREATMENT,2024-05-30,64
I8F-JE-GPGO-SURPASS,DA,I8F-JE-GPGO-SURPASS-JPN_KYOTO01-0007,33,RETAMT,Returned Amount,0.0,VIAL,0.0,0.0,VIAL,10.0,,TREATMENT,2024-05-30,64
I8F-JE-GPGO-SURPASS,DA,I8F-JE-GPGO-SURPASS-JPN_KYOTO01-0007,34,DISPAMT,Dispensed Amount,1.0,VIAL,1.0,1.0,VIAL,11.0,,TREATMENT,2024-06-06,71
I8F-JE-GPGO-SURPASS,DA,I8F-JE-GPGO-SURPASS-JPN_KYOTO01-0007,35,REMAMT,Remaining Amount,0.0,VIAL,0.0,0.0,VIAL,11.0,,TREATMENT,2024-06-06,71
I8F-JE-GPGO-SURPASS,DA,I8F-JE-GPGO-SURPASS-JPN_KYOTO01-0007,36,RETAMT,Returned Amount,0.0,VIAL,0.0,0.0,VIAL,11.0,,TREATMENT,2024-06-06,71
I8F-JE-GPGO-SURPASS,DA,I8F-JE-GPGO-SURPASS-JPN_KYOTO01-0007,37,DISPAMT,Dispensed Amount,1.0,VIAL,1.0,1.0,VIAL,12.0,,TREATMENT,2024-06-13,78
I8F-JE-GPGO-SURPASS,DA,I8F-JE-GPGO-SURPASS-JPN_KYOTO01-0007,38,REMAMT,Remaining Amount,0.0,VIAL,0.0,0.0,VIAL,12.0,,TREATMENT,2024-06-13,78
I8F-JE-GPGO-SURPASS,DA,I8F-JE-GPGO-SURPASS-JPN_KYOTO01-0007,39,RETAMT,Returned Amount,0.0,VIAL,0.0,0.0,VIAL,12.0,,TREATMENT,2024-06-13,78
I8F-JE-GPGO-SURPASS,DA,I8F-JE-GPGO-SURPASS-JPN_KYOTO01-0007,40,DISPAMT,Dispensed Amount,1.0,VIAL,1.0,1.0,VIAL,14.0,,TREATMENT,2024-06-27,92
I8F-JE-GPGO-SURPASS,DA,I8F-JE-GPGO-SURPASS-JPN_KYOTO01-0007,41,REMAMT,Remaining Amount,0.0,VIAL,0.0,0.0,VIAL,14.0,,TREATMENT,2024-06-27,92
I8F-JE-GPGO-SURPASS,DA,I8F-JE-GPGO-SURPASS-JPN_KYOTO01-0007,42,RETAMT,Returned Amount,0.0,VIAL,0.0,0.0,VIAL,14.0,,TREATMENT,2024-06-27,92
I8F-JE-GPGO-SURPASS,DA,I8F-JE-GPGO-SURPASS-JPN_KYOTO01-0007,43,DISPAMT,Dispensed Amount,1.0,VIAL,1.0,1.0,VIAL,15.0,,TREATMENT,2024-07-04,99
I8F-JE-GPGO-SURPASS,DA,I8F-JE-GPGO-SURPASS-JPN_KYOTO01-0007,44,REMAMT,Remaining Amount,1.0,VIAL,1.0,1.0,VIAL,15.0,,TREATMENT,2024-07-04,99
I8F-JE-GPGO-SURPASS,DA,I8F-JE-GPGO-SURPASS-JPN_KYOTO01-0007,45,RETAMT,Returned Amount,1.0,VIAL,1.0,1.0,VIAL,15.0,,TREATMENT,2024-07-04,99
I8F-JE-GPGO-SURPASS,DA,I8F-JE-GPGO-SURPASS-JPN_NAGOYA01-0001,1,DISPAMT,Dispensed Amount,1.0,VIAL,1.0,1.0,VIAL,2.0,BASELINE,TREATMENT,2024-04-25,1
I8F-JE-GPGO-SURPASS,DA,I8F-JE-GPGO-SURPASS-JPN_NAGOYA01-0001,2,DISPAMT,Dispensed Amount,1.0,VIAL,1.0,1.0,VIAL,2.0,,TREATMENT,2024-05-02,8
I8F-JE-GPGO-SURPASS,DA,I8F-JE-GPGO-SURPASS-JPN_NAGOYA01-0001,3,REMAMT,Remaining Amount,1.0,VIAL,1.0,1.0,VIAL,2.0,BASELINE,TREATMENT,2024-04-25,1
I8F-JE-GPGO-SURPASS,DA,I8F-JE-GPGO-SURPASS-JPN_NAGOYA01-0001,4,REMAMT,Remaining Amount,0.0,VIAL,0.0,0.0,VIAL,2.0,,TREATMENT,2024-05-02,8
I8F-JE-GPGO-SURPASS,DA,I8F-JE-GPGO-SURPASS-JPN_NAGOYA01-0001,5,RETAMT,Returned Amount,1.0,VIAL,1.0,1.0,VIAL,2.0,BASELINE,TREATMENT,2024-04-25,1
I8F-JE-GPGO-SURPASS,DA,I8F-JE-GPGO-SURPASS-JPN_NAGOYA01-0001,6,RETAMT,Returned Amount,0.0,VIAL,0.0,0.0,VIAL,2.0,,TREATMENT,2024-05-02,8
I8F-JE-GPGO-SURPASS,DA,I8F-JE-GPGO-SURPASS-JPN_NAGOYA01-0001,7,DISPAMT,Dispensed Amount,1.0,VIAL,1.0,1.0,VIAL,3.0,,TREATMENT,2024-05-09,15
I8F-JE-GPGO-SURPASS,DA,I8F-JE-GPGO-SURPASS-JPN_NAGOYA01-0001,8,DISPAMT,Dispensed Amount,1.0,VIAL,1.0,1.0,VIAL,3.0,WEEK 4,TREATMENT,2024-05-23,29
I8F-JE-GPGO-SURPASS,DA,I8F-JE-GPGO-SURPASS-JPN_NAGOYA01-0001,9,REMAMT,Remaining Amount,0.0,VIAL,0.0,0.0,VIAL,3.0,,TREATMENT,2024-05-09,15
I8F-JE-GPGO-SURPASS,DA,I8F-JE-GPGO-SURPASS-JPN_NAGOYA01-0001,10,REMAMT,Remaining Amount,1.0,VIAL,1.0,1.0,VIAL,3.0,WEEK 4,TREATMENT,2024-05-23,29
I8F-JE-GPGO-SURPASS,DA,I8F-JE-GPGO-SURPASS-JPN_NAGOYA01-0001,11,RETAMT,Returned Amount,0.0,VIAL,0.0,0.0,VIAL,3.0,,TREATMENT,2024-05-09,15
I8F-JE-GPGO-SURPASS,DA,I8F-JE-GPGO-SURPASS-JPN_NAGOYA01-0001,12,RETAMT,Returned Amount,1.0,VIAL,1.0,1.0,VIAL,3.0,WEEK 4,TREATMENT,2024-05-23,29
I8F-JE-GPGO-SURPASS,DA,I8F-JE-GPGO-SURPASS-JPN_NAGOYA01-0001,13,DISPAMT,Dispensed Amount,1.0,VIAL,1.0,1.0,VIAL,4.0,,TREATMENT,2024-05-16,22
I8F-JE-GPGO-SURPASS,DA,I8F-JE-GPGO-SURPASS-JPN_NAGOYA01-0001,14,DISPAMT,Dispensed Amount,1.0,VIAL,1.0,1.0,VIAL,4.0,WEEK 8,TREATMENT,2024-06-20,57
I8F-JE-GPGO-SURPASS,DA,I8F-JE-GPGO-SURPASS-JPN_NAGOYA01-0001,15,REMAMT,Remaining Amount,0.0,VIAL,0.0,0.0,VIAL,4.0,,TREATMENT,2024-05-16,22
I8F-JE-GPGO-SURPASS,DA,I8F-JE-GPGO-SURPASS-JPN_NAGOYA01-0001,16,REMAMT,Remaining Amount,0.0,VIAL,0.0,0.0,VIAL,4.0,WEEK 8,TREATMENT,2024-06-20,57
I8F-JE-GPGO-SURPASS,DA,I8F-JE-GPGO-SURPASS-JPN_NAGOYA01-0001,17,RETAMT,Returned Amount,0.0,VIAL,0.0,0.0,VIAL,4.0,,TREATMENT,2024-05-16,22
I8F-JE-GPGO-SURPASS,DA,I8F-JE-GPGO-SURPASS-JPN_NAGOYA01-0001,18,RETAMT,Returned Amount,0.0,VIAL,0.0,0.0,VIAL,4.0,WEEK 8,TREATMENT,2024-06-20,57
I8F-JE-GPGO-SURPASS,DA,I8F-JE-GPGO-SURPASS-JPN_NAGOYA01-0001,19,DISPAMT,Dispensed Amount,1.0,VIAL,1.0,1.0,VIAL,5.0,WEEK 12,TREATMENT,2024-07-18,85
I8F-JE-GPGO-SURPASS,DA,I8F-JE-GPGO-SURPASS-JPN_NAGOYA01-0001,20,REMAMT,Remaining Amount,0.0,VIAL,0.0,0.0,VIAL,5.0,WEEK 12,TREATMENT,2024-07-18,85
I8F-JE-GPGO-SURPASS,DA,I8F-JE-GPGO-SURPASS-JPN_NAGOYA01-0001,21,RETAMT,Returned Amount,0.0,VIAL,0.0,0.0,VIAL,5.0,WEEK 12,TREATMENT,2024-07-18,85
I8F-JE-GPGO-SURPASS,DA,I8F-JE-GPGO-SURPASS-JPN_NAGOYA01-0001,22,DISPAMT,Dispensed Amount,1.0,VIAL,1.0,1.0,VIAL,6.0,,TREATMENT,2024-05-30,36
I8F-JE-GPGO-SURPASS,DA,I8F-JE-GPGO-SURPASS-JPN_NAGOYA01-0001,23,DISPAMT,Dispensed Amount,1.0,VIAL,1.0,1.0,VIAL,6.0,WEEK 16,TREATMENT,2024-08-15,113
I8F-JE-GPGO-SURPASS,DA,I8F-JE-GPGO-SURPASS-JPN_NAGOYA01-0001,24,REMAMT,Remaining Amount,0.0,VIAL,0.0,0.0,VIAL,6.0,,TREATMENT,2024-05-30,36
I8F-JE-GPGO-SURPASS,DA,I8F-JE-GPGO-SURPASS-JPN_NAGOYA01-0001,25,REMAMT,Remaining Amount,1.0,VIAL,1.0,1.0,VIAL,6.0,WEEK 16,TREATMENT,2024-08-15,113
I8F-JE-GPGO-SURPASS,DA,I8F-JE-GPGO-SURPASS-JPN_NAGOYA01-0001,26,RETAMT,Returned Amount,0.0,VIAL,0.0,0.0,VIAL,6.0,,TREATMENT,2024-05-30,36
I8F-JE-GPGO-SURPASS,DA,I8F-JE-GPGO-SURPASS-JPN_NAGOYA01-0001,27,RETAMT,Returned Amount,1.0,VIAL,1.0,1.0,VIAL,6.0,WEEK 16,TREATMENT,2024-08-15,113
I8F-JE-GPGO-SURPASS,DA,I8F-JE-GPGO-SURPASS-JPN_NAGOYA01-0001,28,DISPAMT,Dispensed Amount,1.0,VIAL,1.0,1.0,VIAL,7.0,,TREATMENT,2024-06-06,43
I8F-JE-GPGO-SURPASS,DA,I8F-JE-GPGO-SURPASS-JPN_NAGOYA01-0001,29,DISPAMT,Dispensed Amount,1.0,VIAL,1.0,1.0,VIAL,7.0,WEEK 20,TREATMENT,2024-09-12,141
I8F-JE-GPGO-SURPASS,DA,I8F-JE-GPGO-SURPASS-JPN_NAGOYA01-0001,30,REMAMT,Remaining Amount,0.0,VIAL,0.0,0.0,VIAL,7.0,,TREATMENT,2024-06-06,43
I8F-JE-GPGO-SURPASS,DA,I8F-JE-GPGO-SURPASS-JPN_NAGOYA01-0001,31,REMAMT,Remaining Amount,0.0,VIAL,0.0,0.0,VIAL,7.0,WEEK 20,TREATMENT,2024-09-12,141
I8F-JE-GPGO-SURPASS,DA,I8F-JE-GPGO-SURPASS-JPN_NAGOYA01-0001,32,RETAMT,Returned Amount,0.0,VIAL,0.0,0.0,VIAL,7.0,,TREATMENT,2024-06-06,43
I8F-JE-GPGO-SURPASS,DA,I8F-JE-GPGO-SURPASS-JPN_NAGOYA01-0001,33,RETAMT,Returned Amount,0.0,VIAL,0.0,0.0,VIAL,7.0,WEEK 20,TREATMENT,2024-09-12,141
I8F-JE-GPGO-SURPASS,DA,I8F-JE-GPGO-SURPASS-JPN_NAGOYA01-0001,34,DISPAMT,Dispensed Amount,1.0,VIAL,1.0,1.0,VIAL,8.0,,TREATMENT,2024-06-13,50
I8F-JE-GPGO-SURPASS,DA,I8F-JE-GPGO-SURPASS-JPN_NAGOYA01-0001,35,DISPAMT,Dispensed Amount,1.0,VIAL,1.0,1.0,VIAL,8.0,WEEK 24,TREATMENT,2024-10-10,169
I8F-JE-GPGO-SURPASS,DA,I8F-JE-GPGO-SURPASS-JPN_NAGOYA01-0001,36,REMAMT,Remaining Amount,0.0,VIAL,0.0,0.0,VIAL,8.0,,TREATMENT,2024-06-13,50
I8F-JE-GPGO-SURPASS,DA,I8F-JE-GPGO-SURPASS-JPN_NAGOYA01-0001,37,REMAMT,Remaining Amount,0.0,VIAL,0.0,0.0,VIAL,8.0,WEEK 24,TREATMENT,2024-10-10,169
I8F-JE-GPGO-SURPASS,DA,I8F-JE-GPGO-SURPASS-JPN_NAGOYA01-0001,38,RETAMT,Returned Amount,0.0,VIAL,0.0,0.0,VIAL,8.0,,TREATMENT,2024-06-13,50
I8F-JE-GPGO-SURPASS,DA,I8F-JE-GPGO-SURPASS-JPN_NAGOYA01-0001,39,RETAMT,Returned Amount,0.0,VIAL,0.0,0.0,VIAL,8.0,WEEK 24,TREATMENT,2024-10-10,169
I8F-JE-GPGO-SURPASS,DA,I8F-JE-GPGO-SURPASS-JPN_NAGOYA01-0001,40,DISPAMT,Dispensed Amount,1.0,VIAL,1.0,1.0,VIAL,9.0,WEEK 32,TREATMENT,2024-12-05,225
I8F-JE-GPGO-SURPASS,DA,I8F-JE-GPGO-SURPASS-JPN_NAGOYA01-0001,41,REMAMT,Remaining Amount,0.0,VIAL,0.0,0.0,VIAL,9.0,WEEK 32,TREATMENT,2024-12-05,225
I8F-JE-GPGO-SURPASS,DA,I8F-JE-GPGO-SURPASS-JPN_NAGOYA01-0001,42,RETAMT,Returned Amount,0.0,VIAL,0.0,0.0,VIAL,9.0,WEEK 32,TREATMENT,2024-12-05,225
I8F-JE-GPGO-SURPASS,DA,I8F-JE-GPGO-SURPASS-JPN_NAGOYA01-0001,43,DISPAMT,Dispensed Amount,1.0,VIAL,1.0,1.0,VIAL,10.0,,TREATMENT,2024-06-27,64
I8F-JE-GPGO-SURPASS,DA,I8F-JE-GPGO-SURPASS-JPN_NAGOYA01-0001,44,DISPAMT,Dispensed Amount,1.0,VIAL,1.0,1.0,VIAL,10.0,WEEK 40,TREATMENT,2025-01-30,281
I8F-JE-GPGO-SURPASS,DA,I8F-JE-GPGO-SURPASS-JPN_NAGOYA01-0001,45,REMAMT,Remaining Amount,0.0,VIAL,0.0,0.0,VIAL,10.0,,TREATMENT,2024-06-27,64
I8F-JE-GPGO-SURPASS,DA,I8F-JE-GPGO-SURPASS-JPN_NAGOYA01-0001,46,REMAMT,Remaining Amount,0.0,VIAL,0.0,0.0,VIAL,10.0,WEEK 40,TREATMENT,2025-01-30,281
I8F-JE-GPGO-SURPASS,DA,I8F-JE-GPGO-SURPASS-JPN_NAGOYA01-0001,47,RETAMT,Returned Amount,0.0,VIAL,0.0,0.0,VIAL,10.0,,TREATMENT,2024-06-27,64
I8F-JE-GPGO-SURPASS,DA,I8F-JE-GPGO-SURPASS-JPN_NAGOYA01-0001,48,RETAMT,Returned Amount,0.0,VIAL,0.0,0.0,VIAL,10.0,WEEK 40,TREATMENT,2025-01-30,281
I8F-JE-GPGO-SURPASS,DA,I8F-JE-GPGO-SURPASS-JPN_NAGOYA01-0001,49,DISPAMT,Dispensed Amount,1.0,VIAL,1.0,1.0,VIAL,11.0,,TREATMENT,2024-07-04,71
I8F-JE-GPGO-SURPASS,DA,I8F-JE-GPGO-SURPASS-JPN_NAGOYA01-0001,50,REMAMT,Remaining Amount,0.0,VIAL,0.0,0.0,VIAL,11.0,,TREATMENT,2024-07-04,71
I8F-JE-GPGO-SURPASS,DA,I8F-JE-GPGO-SURPASS-JPN_NAGOYA01-0001,51,RETAMT,Returned Amount,0.0,VIAL,0.0,0.0,VIAL,11.0,,TREATMENT,2024-07-04,71
I8F-JE-GPGO-SURPASS,DA,I8F-JE-GPGO-SURPASS-JPN_NAGOYA01-0001,52,DISPAMT,Dispensed Amount,1.0,VIAL,1.0,1.0,VIAL,12.0,,TREATMENT,2024-07-11,78
I8F-JE-GPGO-SURPASS,DA,I8F-JE-GPGO-SURPASS-JPN_NAGOYA01-0001,53,REMAMT,Remaining Amount,0.0,VIAL,0.0,0.0,VIAL,12.0,,TREATMENT,2024-07-11,78
I8F-JE-GPGO-SURPASS,DA,I8F-JE-GPGO-SURPASS-JPN_NAGOYA01-0001,54,RETAMT,Returned Amount,0.0,VIAL,0.0,0.0,VIAL,12.0,,TREATMENT,2024-07-11,78
I8F-JE-GPGO-SURPASS,DA,I8F-JE-GPGO-SURPASS-JPN_NAGOYA01-0001,55,DISPAMT,Dispensed Amount,1.0,VIAL,1.0,1.0,VIAL,14.0,,TREATMENT,2024-07-25,92
I8F-JE-GPGO-SURPASS,DA,I8F-JE-GPGO-SURPASS-JPN_NAGOYA01-0001,56,REMAMT,Remaining Amount,0.0,VIAL,0.0,0.0,VIAL,14.0,,TREATMENT,2024-07-25,92
I8F-JE-GPGO-SURPASS,DA,I8F-JE-GPGO-SURPASS-JPN_NAGOYA01-0001,57,RETAMT,Returned Amount,0.0,VIAL,0.0,0.0,VIAL,14.0,,TREATMENT,2024-07-25,92
I8F-JE-GPGO-SURPASS,DA,I8F-JE-GPGO-SURPASS-JPN_NAGOYA01-0001,58,DISPAMT,Dispensed Amount,1.0,VIAL,1.0,1.0,VIAL,15.0,,TREATMENT,2024-08-01,99
I8F-JE-GPGO-SURPASS,DA,I8F-JE-GPGO-SURPASS-JPN_NAGOYA01-0001,59,REMAMT,Remaining Amount,0.0,VIAL,0.0,0.0,VIAL,15.0,,TREATMENT,2024-08-01,99
I8F-JE-GPGO-SURPASS,DA,I8F-JE-GPGO-SURPASS-JPN_NAGOYA01-0001,60,RETAMT,Returned Amount,0.0,VIAL,0.0,0.0,VIAL,15.0,,TREATMENT,2024-08-01,99
I8F-JE-GPGO-SURPASS,DA,I8F-JE-GPGO-SURPASS-JPN_NAGOYA01-0001,61,DISPAMT,Dispensed Amount,1.0,VIAL,1.0,1.0,VIAL,16.0,,TREATMENT,2024-08-08,106
I8F-JE-GPGO-SURPASS,DA,I8F-JE-GPGO-SURPASS-JPN_NAGOYA01-0001,62,REMAMT,Remaining Amount,0.0,VIAL,0.0,0.0,VIAL,16.0,,TREATMENT,2024-08-08,106
I8F-JE-GPGO-SURPASS,DA,I8F-JE-GPGO-SURPASS-JPN_NAGOYA01-0001,63,RETAMT,Returned Amount,0.0,VIAL,0.0,0.0,VIAL,16.0,,TREATMENT,2024-08-08,106
I8F-JE-GPGO-SURPASS,DA,I8F-JE-GPGO-SURPASS-JPN_NAGOYA01-0001,64,DISPAMT,Dispensed Amount,1.0,VIAL,1.0,1.0,VIAL,18.0,,TREATMENT,2024-08-22,120
I8F-JE-GPGO-SURPASS,DA,I8F-JE-GPGO-SURPASS-JPN_NAGOYA01-0001,65,REMAMT,Remaining Amount,1.0,VIAL,1.0,1.0,VIAL,18.0,,TREATMENT,2024-08-22,120
I8F-JE-GPGO-SURPASS,DA,I8F-JE-GPGO-SURPASS-JPN_NAGOYA01-0001,66,RETAMT,Returned Amount,1.0,VIAL,1.0,1.0,VIAL,18.0,,TREATMENT,2024-08-22,120
I8F-JE-GPGO-SURPASS,DA,I8F-JE-GPGO-SURPASS-JPN_NAGOYA01-0001,67,DISPAMT,Dispensed Amount,1.0,VIAL,1.0,1.0,VIAL,19.0,,TREATMENT,2024-08-29,127
I8F-JE-GPGO-SURPASS,DA,I8F-JE-GPGO-SURPASS-JPN_NAGOYA01-0001,68,REMAMT,Remaining Amount,0.0,VIAL,0.0,0.0,VIAL,19.0,,TREATMENT,2024-08-29,127
I8F-JE-GPGO-SURPASS,DA,I8F-JE-GPGO-SURPASS-JPN_NAGOYA01-0001,69,RETAMT,Returned Amount,0.0,VIAL,0.0,0.0,VIAL,19.0,,TREATMENT,2024-08-29,127
I8F-JE-GPGO-SURPASS,DA,I8F-JE-GPGO-SURPASS-JPN_NAGOYA01-0001,70,DISPAMT,Dispensed Amount,1.0,VIAL,1.0,1.0,VIAL,20.0,,TREATMENT,2024-09-05,134
I8F-JE-GPGO-SURPASS,DA,I8F-JE-GPGO-SURPASS-JPN_NAGOYA01-0001,71,REMAMT,Remaining Amount,1.0,VIAL,1.0,1.0,VIAL,20.0,,TREATMENT,2024-09-05,134
I8F-JE-GPGO-SURPASS,DA,I8F-JE-GPGO-SURPASS-JPN_NAGOYA01-0001,72,RETAMT,Returned Amount,1.0,VIAL,1.0,1.0,VIAL,20.0,,TREATMENT,2024-09-05,134
I8F-JE-GPGO-SURPASS,DA,I8F-JE-GPGO-SURPASS-JPN_NAGOYA01-0001,73,DISPAMT,Dispensed Amount,1.0,VIAL,1.0,1.0,VIAL,22.0,,TREATMENT,2024-09-19,148
I8F-JE-GPGO-SURPASS,DA,I8F-JE-GPGO-SURPASS-JPN_NAGOYA01-0001,74,REMAMT,Remaining Amount,0.0,VIAL,0.0,0.0,VIAL,22.0,,TREATMENT,2024-09-19,148
I8F-JE-GPGO-SURPASS,DA,I8F-JE-GPGO-SURPASS-JPN_NAGOYA01-0001,75,RETAMT,Returned Amount,0.0,VIAL,0.0,0.0,VIAL,22.0,,TREATMENT,2024-09-19,148
I8F-JE-GPGO-SURPASS,DA,I8F-JE-GPGO-SURPASS-JPN_NAGOYA01-0001,76,DISPAMT,Dispensed Amount,1.0,VIAL,1.0,1.0,VIAL,23.0,,TREATMENT,2024-09-26,155
I8F-JE-GPGO-SURPASS,DA,I8F-JE-GPGO-SURPASS-JPN_NAGOYA01-0001,77,REMAMT,Remaining Amount,0.0,VIAL,0.0,0.0,VIAL,23.0,,TREATMENT,2024-09-26,155
I8F-JE-GPGO-SURPASS,DA,I8F-JE-GPGO-SURPASS-JPN_NAGOYA01-0001,78,RETAMT,Returned Amount,0.0,VIAL,0.0,0.0,VIAL,23.0,,TREATMENT,2024-09-26,155
I8F-JE-GPGO-SURPASS,DA,I8F-JE-GPGO-SURPASS-JPN_NAGOYA01-0001,79,DISPAMT,Dispensed Amount,1.0,VIAL,1.0,1.0,VIAL,24.0,,TREATMENT,2024-10-03,162
I8F-JE-GPGO-SURPASS,DA,I8F-JE-GPGO-SURPASS-JPN_NAGOYA01-0001,80,REMAMT,Remaining Amount,0.0,VIAL,0.0,0.0,VIAL,24.0,,TREATMENT,2024-10-03,162
I8F-JE-GPGO-SURPASS,DA,I8F-JE-GPGO-SURPASS-JPN_NAGOYA01-0001,81,RETAMT,Returned Amount,0.0,VIAL,0.0,0.0,VIAL,24.0,,TREATMENT,2024-10-03,162
I8F-JE-GPGO-SURPASS,DA,I8F-JE-GPGO-SURPASS-JPN_NAGOYA01-0001,82,DISPAMT,Dispensed Amount,1.0,VIAL,1.0,1.0,VIAL,26.0,,TREATMENT,2024-10-17,176
I8F-JE-GPGO-SURPASS,DA,I8F-JE-GPGO-SURPASS-JPN_NAGOYA01-0001,83,REMAMT,Remaining Amount,0.0,VIAL,0.0,0.0,VIAL,26.0,,TREATMENT,2024-10-17,176
I8F-JE-GPGO-SURPASS,DA,I8F-JE-GPGO-SURPASS-JPN_NAGOYA01-0001,84,RETAMT,Returned Amount,0.0,VIAL,0.0,0.0,VIAL,26.0,,TREATMENT,2024-10-17,176
I8F-JE-GPGO-SURPASS,DA,I8F-JE-GPGO-SURPASS-JPN_NAGOYA01-0001,85,DISPAMT,Dispensed Amount,1.0,VIAL,1.0,1.0,VIAL,27.0,,TREATMENT,2024-10-24,183
I8F-JE-GPGO-SURPASS,DA,I8F-JE-GPGO-SURPASS-JPN_NAGOYA01-0001,86,REMAMT,Remaining Amount,0.0,VIAL,0.0,0.0,VIAL,27.0,,TREATMENT,2024-10-24,183
I8F-JE-GPGO-SURPASS,DA,I8F-JE-GPGO-SURPASS-JPN_NAGOYA01-0001,87,RETAMT,Returned Amount,0.0,VIAL,0.0,0.0,VIAL,27.0,,TREATMENT,2024-10-24,183
I8F-JE-GPGO-SURPASS,DA,I8F-JE-GPGO-SURPASS-JPN_NAGOYA01-0001,88,DISPAMT,Dispensed Amount,1.0,VIAL,1.0,1.0,VIAL,28.0,,TREATMENT,2024-10-31,190
I8F-JE-GPGO-SURPASS,DA,I8F-JE-GPGO-SURPASS-JPN_NAGOYA01-0001,89,REMAMT,Remaining Amount,0.0,VIAL,0.0,0.0,VIAL,28.0,,TREATMENT,2024-10-31,190
I8F-JE-GPGO-SURPASS,DA,I8F-JE-GPGO-SURPASS-JPN_NAGOYA01-0001,90,RETAMT,Returned Amount,0.0,VIAL,0.0,0.0,VIAL,28.0,,TREATMENT,2024-10-31,190
I8F-JE-GPGO-SURPASS,DA,I8F-JE-GPGO-SURPASS-JPN_NAGOYA01-0001,91,DISPAMT,Dispensed Amount,1.0,VIAL,1.0,1.0,VIAL,29.0,,TREATMENT,2024-11-07,197
I8F-JE-GPGO-SURPASS,DA,I8F-JE-GPGO-SURPASS-JPN_NAGOYA01-0001,92,REMAMT,Remaining Amount,0.0,VIAL,0.0,0.0,VIAL,29.0,,TREATMENT,2024-11-07,197
I8F-JE-GPGO-SURPASS,DA,I8F-JE-GPGO-SURPASS-JPN_NAGOYA01-0001,93,RETAMT,Returned Amount,0.0,VIAL,0.0,0.0,VIAL,29.0,,TREATMENT,2024-11-07,197
I8F-JE-GPGO-SURPASS,DA,I8F-JE-GPGO-SURPASS-JPN_NAGOYA01-0001,94,DISPAMT,Dispensed Amount,1.0,VIAL,1.0,1.0,VIAL,30.0,,TREATMENT,2024-11-14,204
I8F-JE-GPGO-SURPASS,DA,I8F-JE-GPGO-SURPASS-JPN_NAGOYA01-0001,95,REMAMT,Remaining Amount,0.0,VIAL,0.0,0.0,VIAL,30.0,,TREATMENT,2024-11-14,204
I8F-JE-GPGO-SURPASS,DA,I8F-JE-GPGO-SURPASS-JPN_NAGOYA01-0001,96,RETAMT,Returned Amount,0.0,VIAL,0.0,0.0,VIAL,30.0,,TREATMENT,2024-11-14,204
I8F-JE-GPGO-SURPASS,DA,I8F-JE-GPGO-SURPASS-JPN_NAGOYA01-0001,97,DISPAMT,Dispensed Amount,1.0,VIAL,1.0,1.0,VIAL,31.0,,TREATMENT,2024-11-21,211
I8F-JE-GPGO-SURPASS,DA,I8F-JE-GPGO-SURPASS-JPN_NAGOYA01-0001,98,REMAMT,Remaining Amount,0.0,VIAL,0.0,0.0,VIAL,31.0,,TREATMENT,2024-11-21,211
I8F-JE-GPGO-SURPASS,DA,I8F-JE-GPGO-SURPASS-JPN_NAGOYA01-0001,99,RETAMT,Returned Amount,0.0,VIAL,0.0,0.0,VIAL,31.0,,TREATMENT,2024-11-21,211
I8F-JE-GPGO-SURPASS,DA,I8F-JE-GPGO-SURPASS-JPN_NAGOYA01-0001,100,DISPAMT,Dispensed Amount,1.0,VIAL,1.0,1.0,VIAL,32.0,,TREATMENT,2024-11-28,218
I8F-JE-GPGO-SURPASS,DA,I8F-JE-GPGO-SURPASS-JPN_NAGOYA01-0001,101,REMAMT,Remaining Amount,0.0,VIAL,0.0,0.0,VIAL,32.0,,TREATMENT,2024-11-28,218
I8F-JE-GPGO-SURPASS,DA,I8F-JE-GPGO-SURPASS-JPN_NAGOYA01-0001,102,RETAMT,Returned Amount,0.0,VIAL,0.0,0.0,VIAL,32.0,,TREATMENT,2024-11-28,218
I8F-JE-GPGO-SURPASS,DA,I8F-JE-GPGO-SURPASS-JPN_NAGOYA01-0001,103,DISPAMT,Dispensed Amount,1.0,VIAL,1.0,1.0,VIAL,34.0,,TREATMENT,2024-12-12,232
I8F-JE-GPGO-SURPASS,DA,I8F-JE-GPGO-SURPASS-JPN_NAGOYA01-0001,104,REMAMT,Remaining Amount,1.0,VIAL,1.0,1.0,VIAL,34.0,,TREATMENT,2024-12-12,232
I8F-JE-GPGO-SURPASS,DA,I8F-JE-GPGO-SURPASS-JPN_NAGOYA01-0001,105,RETAMT,Returned Amount,1.0,VIAL,1.0,1.0,VIAL,34.0,,TREATMENT,2024-12-12,232
I8F-JE-GPGO-SURPASS,DA,I8F-JE-GPGO-SURPASS-JPN_NAGOYA01-0001,106,DISPAMT,Dispensed Amount,1.0,VIAL,1.0,1.0,VIAL,35.0,,TREATMENT,2024-12-19,239
I8F-JE-GPGO-SURPASS,DA,I8F-JE-GPGO-SURPASS-JPN_NAGOYA01-0001,107,REMAMT,Remaining Amount,0.0,VIAL,0.0,0.0,VIAL,35.0,,TREATMENT,2024-12-19,239
I8F-JE-GPGO-SURPASS,DA,I8F-JE-GPGO-SURPASS-JPN_NAGOYA01-0001,108,RETAMT,Returned Amount,0.0,VIAL,0.0,0.0,VIAL,35.0,,TREATMENT,2024-12-19,239
I8F-JE-GPGO-SURPASS,DA,I8F-JE-GPGO-SURPASS-JPN_NAGOYA01-0001,109,DISPAMT,Dispensed Amount,1.0,VIAL,1.0,1.0,VIAL,36.0,,TREATMENT,2024-12-26,246
I8F-JE-GPGO-SURPASS,DA,I8F-JE-GPGO-SURPASS-JPN_NAGOYA01-0001,110,REMAMT,Remaining Amount,0.0,VIAL,0.0,0.0,VIAL,36.0,,TREATMENT,2024-12-26,246
I8F-JE-GPGO-SURPASS,DA,I8F-JE-GPGO-SURPASS-JPN_NAGOYA01-0001,111,RETAMT,Returned Amount,0.0,VIAL,0.0,0.0,VIAL,36.0,,TREATMENT,2024-12-26,246
I8F-JE-GPGO-SURPASS,DA,I8F-JE-GPGO-SURPASS-JPN_NAGOYA01-0001,112,DISPAMT,Dispensed Amount,1.0,VIAL,1.0,1.0,VIAL,37.0,,TREATMENT,2025-01-02,253
I8F-JE-GPGO-SURPASS,DA,I8F-JE-GPGO-SURPASS-JPN_NAGOYA01-0001,113,REMAMT,Remaining Amount,0.0,VIAL,0.0,0.0,VIAL,37.0,,TREATMENT,2025-01-02,253
I8F-JE-GPGO-SURPASS,DA,I8F-JE-GPGO-SURPASS-JPN_NAGOYA01-0001,114,RETAMT,Returned Amount,0.0,VIAL,0.0,0.0,VIAL,37.0,,TREATMENT,2025-01-02,253
I8F-JE-GPGO-SURPASS,DA,I8F-JE-GPGO-SURPASS-JPN_NAGOYA01-0001,115,DISPAMT,Dispensed Amount,1.0,VIAL,1.0,1.0,VIAL,38.0,,TREATMENT,2025-01-09,260
I8F-JE-GPGO-SURPASS,DA,I8F-JE-GPGO-SURPASS-JPN_NAGOYA01-0001,116,REMAMT,Remaining Amount,0.0,VIAL,0.0,0.0,VIAL,38.0,,TREATMENT,2025-01-09,260
I8F-JE-GPGO-SURPASS,DA,I8F-JE-GPGO-SURPASS-JPN_NAGOYA01-0001,117,RETAMT,Returned Amount,0.0,VIAL,0.0,0.0,VIAL,38.0,,TREATMENT,2025-01-09,260
I8F-JE-GPGO-SURPASS,DA,I8F-JE-GPGO-SURPASS-JPN_NAGOYA01-0001,118,DISPAMT,Dispensed Amount,1.0,VIAL,1.0,1.0,VIAL,39.0,,TREATMENT,2025-01-16,267
I8F-JE-GPGO-SURPASS,DA,I8F-JE-GPGO-SURPASS-JPN_NAGOYA01-0001,119,REMAMT,Remaining Amount,0.0,VIAL,0.0,0.0,VIAL,39.0,,TREATMENT,2025-01-16,267
I8F-JE-GPGO-SURPASS,DA,I8F-JE-GPGO-SURPASS-JPN_NAGOYA01-0001,120,RETAMT,Returned Amount,0.0,VIAL,0.0,0.0,VIAL,39.0,,TREATMENT,2025-01-16,267
I8F-JE-GPGO-SURPASS,DA,I8F-JE-GPGO-SURPASS-JPN_NAGOYA01-0001,121,DISPAMT,Dispensed Amount,1.0,VIAL,1.0,1.0,VIAL,40.0,,TREATMENT,2025-01-23,274
I8F-JE-GPGO-SURPASS,DA,I8F-JE-GPGO-SURPASS-JPN_NAGOYA01-0001,122,REMAMT,Remaining Amount,0.0,VIAL,0.0,0.0,VIAL,40.0,,TREATMENT,2025-01-23,274
I8F-JE-GPGO-SURPASS,DA,I8F-JE-GPGO-SURPASS-JPN_NAGOYA01-0001,123,RETAMT,Returned Amount,0.0,VIAL,0.0,0.0,VIAL,40.0,,TREATMENT,2025-01-23,274
I8F-JE-GPGO-SURPASS,DA,I8F-JE-GPGO-SURPASS-JPN_NAGOYA01-0001,124,DISPAMT,Dispensed Amount,1.0,VIAL,1.0,1.0,VIAL,42.0,,TREATMENT,2025-02-06,288
I8F-JE-GPGO-SURPASS,DA,I8F-JE-GPGO-SURPASS-JPN_NAGOYA01-0001,125,REMAMT,Remaining Amount,0.0,VIAL,0.0,0.0,VIAL,42.0,,TREATMENT,2025-02-06,288
I8F-JE-GPGO-SURPASS,DA,I8F-JE-GPGO-SURPASS-JPN_NAGOYA01-0001,126,RETAMT,Returned Amount,0.0,VIAL,0.0,0.0,VIAL,42.0,,TREATMENT,2025-02-06,288
I8F-JE-GPGO-SURPASS,DA,I8F-JE-GPGO-SURPASS-JPN_NAGOYA01-0001,127,DISPAMT,Dispensed Amount,1.0,VIAL,1.0,1.0,VIAL,43.0,,TREATMENT,2025-02-13,295
I8F-JE-GPGO-SURPASS,DA,I8F-JE-GPGO-SURPASS-JPN_NAGOYA01-0001,128,REMAMT,Remaining Amount,0.0,VIAL,0.0,0.0,VIAL,43.0,,TREATMENT,2025-02-13,295
I8F-JE-GPGO-SURPASS,DA,I8F-JE-GPGO-SURPASS-JPN_NAGOYA01-0001,129,RETAMT,Returned Amount,0.0,VIAL,0.0,0.0,VIAL,43.0,,TREATMENT,2025-02-13,295
I8F-JE-GPGO-SURPASS,DA,I8F-JE-GPGO-SURPASS-JPN_NAGOYA01-0001,130,DISPAMT,Dispensed Amount,1.0,VIAL,1.0,1.0,VIAL,44.0,,TREATMENT,2025-02-20,302
I8F-JE-GPGO-SURPASS,DA,I8F-JE-GPGO-SURPASS-JPN_NAGOYA01-0001,131,REMAMT,Remaining Amount,0.0,VIAL,0.0,0.0,VIAL,44.0,,TREATMENT,2025-02-20,302
I8F-JE-GPGO-SURPASS,DA,I8F-JE-GPGO-SURPASS-JPN_NAGOYA01-0001,132,RETAMT,Returned Amount,0.0,VIAL,0.0,0.0,VIAL,44.0,,TREATMENT,2025-02-20,302
I8F-JE-GPGO-SURPASS,DA,I8F-JE-GPGO-SURPASS-JPN_NAGOYA01-0001,133,DISPAMT,Dispensed Amount,1.0,VIAL,1.0,1.0,VIAL,45.0,,TREATMENT,2025-02-27,309
I8F-JE-GPGO-SURPASS,DA,I8F-JE-GPGO-SURPASS-JPN_NAGOYA01-0001,134,REMAMT,Remaining Amount,0.0,VIAL,0.0,0.0,VIAL,45.0,,TREATMENT,2025-02-27,309
I8F-JE-GPGO-SURPASS,DA,I8F-JE-GPGO-SURPASS-JPN_NAGOYA01-0001,135,RETAMT,Returned Amount,0.0,VIAL,0.0,0.0,VIAL,45.0,,TREATMENT,2025-02-27,309
I8F-JE-GPGO-SURPASS,DA,I8F-JE-GPGO-SURPASS-JPN_NAGOYA01-0001,136,DISPAMT,Dispensed Amount,1.0,VIAL,1.0,1.0,VIAL,46.0,,TREATMENT,2025-03-06,316
I8F-JE-GPGO-SURPASS,DA,I8F-JE-GPGO-SURPASS-JPN_NAGOYA01-0001,137,REMAMT,Remaining Amount,0.0,VIAL,0.0,0.0,VIAL,46.0,,TREATMENT,2025-03-06,316
I8F-JE-GPGO-SURPASS,DA,I8F-JE-GPGO-SURPASS-JPN_NAGOYA01-0001,138,RETAMT,Returned Amount,0.0,VIAL,0.0,0.0,VIAL,46.0,,TREATMENT,2025-03-06,316
I8F-JE-GPGO-SURPASS,DA,I8F-JE-GPGO-SURPASS-JPN_NAGOYA01-0001,139,DISPAMT,Dispensed Amount,1.0,VIAL,1.0,1.0,VIAL,47.0,,TREATMENT,2025-03-13,323
I8F-JE-GPGO-SURPASS,DA,I8F-JE-GPGO-SURPASS-JPN_NAGOYA01-0001,140,REMAMT,Remaining Amount,0.0,VIAL,0.0,0.0,VIAL,47.0,,TREATMENT,2025-03-13,323
I8F-JE-GPGO-SURPASS,DA,I8F-JE-GPGO-SURPASS-JPN_NAGOYA01-0001,141,RETAMT,Returned Amount,0.0,VIAL,0.0,0.0,VIAL,47.0,,TREATMENT,2025-03-13,323
I8F-JE-GPGO-SURPASS,DA,I8F-JE-GPGO-SURPASS-JPN_NAGOYA01-0001,142,DISPAMT,Dispensed Amount,1.0,VIAL,1.0,1.0,VIAL,48.0,,TREATMENT,2025-03-20,330
I8F-JE-GPGO-SURPASS,DA,I8F-JE-GPGO-SURPASS-JPN_NAGOYA01-0001,143,REMAMT,Remaining Amount,0.0,VIAL,0.0,0.0,VIAL,48.0,,TREATMENT,2025-03-20,330
I8F-JE-GPGO-SURPASS,DA,I8F-JE-GPGO-SURPASS-JPN_NAGOYA01-0001,144,RETAMT,Returned Amount,0.0,VIAL,0.0,0.0,VIAL,48.0,,TREATMENT,2025-03-20,330
I8F-JE-GPGO-SURPASS,DA,I8F-JE-GPGO-SURPASS-JPN_NAGOYA01-0001,145,DISPAMT,Dispensed Amount,1.0,VIAL,1.0,1.0,VIAL,49.0,,TREATMENT,2025-03-27,337
I8F-JE-GPGO-SURPASS,DA,I8F-JE-GPGO-SURPASS-JPN_NAGOYA01-0001,146,REMAMT,Remaining Amount,0.0,VIAL,0.0,0.0,VIAL,49.0,,TREATMENT,2025-03-27,337
I8F-JE-GPGO-SURPASS,DA,I8F-JE-GPGO-SURPASS-JPN_NAGOYA01-0001,147,RETAMT,Returned Amount,0.0,VIAL,0.0,0.0,VIAL,49.0,,TREATMENT,2025-03-27,337
I8F-JE-GPGO-SURPASS,DA,I8F-JE-GPGO-SURPASS-JPN_NAGOYA01-0001,148,DISPAMT,Dispensed Amount,1.0,VIAL,1.0,1.0,VIAL,50.0,,TREATMENT,2025-04-03,344
I8F-JE-GPGO-SURPASS,DA,I8F-JE-GPGO-SURPASS-JPN_NAGOYA01-0001,149,REMAMT,Remaining Amount,0.0,VIAL,0.0,0.0,VIAL,50.0,,TREATMENT,2025-04-03,344
I8F-JE-GPGO-SURPASS,DA,I8F-JE-GPGO-SURPASS-JPN_NAGOYA01-0001,150,RETAMT,Returned Amount,0.0,VIAL,0.0,0.0,VIAL,50.0,,TREATMENT,2025-04-03,344
I8F-JE-GPGO-SURPASS,DA,I8F-JE-GPGO-SURPASS-JPN_NAGOYA01-0001,151,DISPAMT,Dispensed Amount,1.0,VIAL,1.0,1.0,VIAL,51.0,,TREATMENT,2025-04-10,351
I8F-JE-GPGO-SURPASS,DA,I8F-JE-GPGO-SURPASS-JPN_NAGOYA01-0001,152,REMAMT,Remaining Amount,0.0,VIAL,0.0,0.0,VIAL,51.0,,TREATMENT,2025-04-10,351
I8F-JE-GPGO-SURPASS,DA,I8F-JE-GPGO-SURPASS-JPN_NAGOYA01-0001,153,RETAMT,Returned Amount,0.0,VIAL,0.0,0.0,VIAL,51.0,,TREATMENT,2025-04-10,351
I8F-JE-GPGO-SURPASS,DA,I8F-JE-GPGO-SURPASS-JPN_NAGOYA01-0001,154,DISPAMT,Dispensed Amount,1.0,VIAL,1.0,1.0,VIAL,52.0,,TREATMENT,2025-04-17,358
I8F-JE-GPGO-SURPASS,DA,I8F-JE-GPGO-SURPASS-JPN_NAGOYA01-0001,155,REMAMT,Remaining Amount,0.0,VIAL,0.0,0.0,VIAL,52.0,,TREATMENT,2025-04-17,358
I8F-JE-GPGO-SURPASS,DA,I8F-JE-GPGO-SURPASS-JPN_NAGOYA01-0001,156,RETAMT,Returned Amount,0.0,VIAL,0.0,0.0,VIAL,52.0,,TREATMENT,2025-04-17,358
I8F-JE-GPGO-SURPASS,DA,I8F-JE-GPGO-SURPASS-JPN_OSAKA01-0002,1,DISPAMT,Dispensed Amount,1.0,VIAL,1.0,1.0,VIAL,2.0,BASELINE,TREATMENT,2024-02-25,1
I8F-JE-GPGO-SURPASS,DA,I8F-JE-GPGO-SURPASS-JPN_OSAKA01-0002,2,DISPAMT,Dispensed Amount,1.0,VIAL,1.0,1.0,VIAL,2.0,,TREATMENT,2024-03-03,8
I8F-JE-GPGO-SURPASS,DA,I8F-JE-GPGO-SURPASS-JPN_OSAKA01-0002,3,REMAMT,Remaining Amount,0.0,VIAL,0.0,0.0,VIAL,2.0,BASELINE,TREATMENT,2024-02-25,1
I8F-JE-GPGO-SURPASS,DA,I8F-JE-GPGO-SURPASS-JPN_OSAKA01-0002,4,REMAMT,Remaining Amount,0.0,VIAL,0.0,0.0,VIAL,2.0,,TREATMENT,2024-03-03,8
I8F-JE-GPGO-SURPASS,DA,I8F-JE-GPGO-SURPASS-JPN_OSAKA01-0002,5,RETAMT,Returned Amount,0.0,VIAL,0.0,0.0,VIAL,2.0,BASELINE,TREATMENT,2024-02-25,1
I8F-JE-GPGO-SURPASS,DA,I8F-JE-GPGO-SURPASS-JPN_OSAKA01-0002,6,RETAMT,Returned Amount,0.0,VIAL,0.0,0.0,VIAL,2.0,,TREATMENT,2024-03-03,8
I8F-JE-GPGO-SURPASS,DA,I8F-JE-GPGO-SURPASS-JPN_OSAKA01-0002,7,DISPAMT,Dispensed Amount,1.0,VIAL,1.0,1.0,VIAL,3.0,,TREATMENT,2024-03-10,15
I8F-JE-GPGO-SURPASS,DA,I8F-JE-GPGO-SURPASS-JPN_OSAKA01-0002,8,DISPAMT,Dispensed Amount,1.0,VIAL,1.0,1.0,VIAL,3.0,WEEK 4,TREATMENT,2024-03-24,29
I8F-JE-GPGO-SURPASS,DA,I8F-JE-GPGO-SURPASS-JPN_OSAKA01-0002,9,REMAMT,Remaining Amount,0.0,VIAL,0.0,0.0,VIAL,3.0,,TREATMENT,2024-03-10,15
I8F-JE-GPGO-SURPASS,DA,I8F-JE-GPGO-SURPASS-JPN_OSAKA01-0002,10,REMAMT,Remaining Amount,0.0,VIAL,0.0,0.0,VIAL,3.0,WEEK 4,TREATMENT,2024-03-24,29
I8F-JE-GPGO-SURPASS,DA,I8F-JE-GPGO-SURPASS-JPN_OSAKA01-0002,11,RETAMT,Returned Amount,0.0,VIAL,0.0,0.0,VIAL,3.0,,TREATMENT,2024-03-10,15
I8F-JE-GPGO-SURPASS,DA,I8F-JE-GPGO-SURPASS-JPN_OSAKA01-0002,12,RETAMT,Returned Amount,0.0,VIAL,0.0,0.0,VIAL,3.0,WEEK 4,TREATMENT,2024-03-24,29
I8F-JE-GPGO-SURPASS,DA,I8F-JE-GPGO-SURPASS-JPN_OSAKA01-0002,13,DISPAMT,Dispensed Amount,1.0,VIAL,1.0,1.0,VIAL,4.0,,TREATMENT,2024-03-17,22
I8F-JE-GPGO-SURPASS,DA,I8F-JE-GPGO-SURPASS-JPN_OSAKA01-0002,14,DISPAMT,Dispensed Amount,1.0,VIAL,1.0,1.0,VIAL,4.0,WEEK 8,TREATMENT,2024-04-21,57
I8F-JE-GPGO-SURPASS,DA,I8F-JE-GPGO-SURPASS-JPN_OSAKA01-0002,15,REMAMT,Remaining Amount,0.0,VIAL,0.0,0.0,VIAL,4.0,,TREATMENT,2024-03-17,22
I8F-JE-GPGO-SURPASS,DA,I8F-JE-GPGO-SURPASS-JPN_OSAKA01-0002,16,REMAMT,Remaining Amount,0.0,VIAL,0.0,0.0,VIAL,4.0,WEEK 8,TREATMENT,2024-04-21,57
I8F-JE-GPGO-SURPASS,DA,I8F-JE-GPGO-SURPASS-JPN_OSAKA01-0002,17,RETAMT,Returned Amount,0.0,VIAL,0.0,0.0,VIAL,4.0,,TREATMENT,2024-03-17,22
I8F-JE-GPGO-SURPASS,DA,I8F-JE-GPGO-SURPASS-JPN_OSAKA01-0002,18,RETAMT,Returned Amount,0.0,VIAL,0.0,0.0,VIAL,4.0,WEEK 8,TREATMENT,2024-04-21,57
I8F-JE-GPGO-SURPASS,DA,I8F-JE-GPGO-SURPASS-JPN_OSAKA01-0002,19,DISPAMT,Dispensed Amount,1.0,VIAL,1.0,1.0,VIAL,5.0,WEEK 12,TREATMENT,2024-05-19,85
I8F-JE-GPGO-SURPASS,DA,I8F-JE-GPGO-SURPASS-JPN_OSAKA01-0002,20,REMAMT,Remaining Amount,0.0,VIAL,0.0,0.0,VIAL,5.0,WEEK 12,TREATMENT,2024-05-19,85
I8F-JE-GPGO-SURPASS,DA,I8F-JE-GPGO-SURPASS-JPN_OSAKA01-0002,21,RETAMT,Returned Amount,0.0,VIAL,0.0,0.0,VIAL,5.0,WEEK 12,TREATMENT,2024-05-19,85
I8F-JE-GPGO-SURPASS,DA,I8F-JE-GPGO-SURPASS-JPN_OSAKA01-0002,22,DISPAMT,Dispensed Amount,1.0,VIAL,1.0,1.0,VIAL,6.0,,TREATMENT,2024-03-31,36
I8F-JE-GPGO-SURPASS,DA,I8F-JE-GPGO-SURPASS-JPN_OSAKA01-0002,23,DISPAMT,Dispensed Amount,1.0,VIAL,1.0,1.0,VIAL,6.0,WEEK 16,TREATMENT,2024-06-16,113
I8F-JE-GPGO-SURPASS,DA,I8F-JE-GPGO-SURPASS-JPN_OSAKA01-0002,24,REMAMT,Remaining Amount,0.0,VIAL,0.0,0.0,VIAL,6.0,,TREATMENT,2024-03-31,36
I8F-JE-GPGO-SURPASS,DA,I8F-JE-GPGO-SURPASS-JPN_OSAKA01-0002,25,REMAMT,Remaining Amount,0.0,VIAL,0.0,0.0,VIAL,6.0,WEEK 16,TREATMENT,2024-06-16,113
I8F-JE-GPGO-SURPASS,DA,I8F-JE-GPGO-SURPASS-JPN_OSAKA01-0002,26,RETAMT,Returned Amount,0.0,VIAL,0.0,0.0,VIAL,6.0,,TREATMENT,2024-03-31,36
I8F-JE-GPGO-SURPASS,DA,I8F-JE-GPGO-SURPASS-JPN_OSAKA01-0002,27,RETAMT,Returned Amount,0.0,VIAL,0.0,0.0,VIAL,6.0,WEEK 16,TREATMENT,2024-06-16,113
I8F-JE-GPGO-SURPASS,DA,I8F-JE-GPGO-SURPASS-JPN_OSAKA01-0002,28,DISPAMT,Dispensed Amount,1.0,VIAL,1.0,1.0,VIAL,7.0,,TREATMENT,2024-04-07,43
I8F-JE-GPGO-SURPASS,DA,I8F-JE-GPGO-SURPASS-JPN_OSAKA01-0002,29,DISPAMT,Dispensed Amount,1.0,VIAL,1.0,1.0,VIAL,7.0,WEEK 20,TREATMENT,2024-07-14,141
I8F-JE-GPGO-SURPASS,DA,I8F-JE-GPGO-SURPASS-JPN_OSAKA01-0002,30,REMAMT,Remaining Amount,0.0,VIAL,0.0,0.0,VIAL,7.0,,TREATMENT,2024-04-07,43
I8F-JE-GPGO-SURPASS,DA,I8F-JE-GPGO-SURPASS-JPN_OSAKA01-0002,31,REMAMT,Remaining Amount,0.0,VIAL,0.0,0.0,VIAL,7.0,WEEK 20,TREATMENT,2024-07-14,141
I8F-JE-GPGO-SURPASS,DA,I8F-JE-GPGO-SURPASS-JPN_OSAKA01-0002,32,RETAMT,Returned Amount,0.0,VIAL,0.0,0.0,VIAL,7.0,,TREATMENT,2024-04-07,43
I8F-JE-GPGO-SURPASS,DA,I8F-JE-GPGO-SURPASS-JPN_OSAKA01-0002,33,RETAMT,Returned Amount,0.0,VIAL,0.0,0.0,VIAL,7.0,WEEK 20,TREATMENT,2024-07-14,141
I8F-JE-GPGO-SURPASS,DA,I8F-JE-GPGO-SURPASS-JPN_OSAKA01-0002,34,DISPAMT,Dispensed Amount,1.0,VIAL,1.0,1.0,VIAL,8.0,,TREATMENT,2024-04-14,50
I8F-JE-GPGO-SURPASS,DA,I8F-JE-GPGO-SURPASS-JPN_OSAKA01-0002,35,DISPAMT,Dispensed Amount,1.0,VIAL,1.0,1.0,VIAL,8.0,WEEK 24,TREATMENT,2024-08-11,169
I8F-JE-GPGO-SURPASS,DA,I8F-JE-GPGO-SURPASS-JPN_OSAKA01-0002,36,REMAMT,Remaining Amount,0.0,VIAL,0.0,0.0,VIAL,8.0,,TREATMENT,2024-04-14,50
I8F-JE-GPGO-SURPASS,DA,I8F-JE-GPGO-SURPASS-JPN_OSAKA01-0002,37,REMAMT,Remaining Amount,1.0,VIAL,1.0,1.0,VIAL,8.0,WEEK 24,TREATMENT,2024-08-11,169
I8F-JE-GPGO-SURPASS,DA,I8F-JE-GPGO-SURPASS-JPN_OSAKA01-0002,38,RETAMT,Returned Amount,0.0,VIAL,0.0,0.0,VIAL,8.0,,TREATMENT,2024-04-14,50
I8F-JE-GPGO-SURPASS,DA,I8F-JE-GPGO-SURPASS-JPN_OSAKA01-0002,39,RETAMT,Returned Amount,1.0,VIAL,1.0,1.0,VIAL,8.0,WEEK 24,TREATMENT,2024-08-11,169
I8F-JE-GPGO-SURPASS,DA,I8F-JE-GPGO-SURPASS-JPN_OSAKA01-0002,40,DISPAMT,Dispensed Amount,1.0,VIAL,1.0,1.0,VIAL,9.0,WEEK 32,TREATMENT,2024-10-06,225
I8F-JE-GPGO-SURPASS,DA,I8F-JE-GPGO-SURPASS-JPN_OSAKA01-0002,41,REMAMT,Remaining Amount,0.0,VIAL,0.0,0.0,VIAL,9.0,WEEK 32,TREATMENT,2024-10-06,225
I8F-JE-GPGO-SURPASS,DA,I8F-JE-GPGO-SURPASS-JPN_OSAKA01-0002,42,RETAMT,Returned Amount,0.0,VIAL,0.0,0.0,VIAL,9.0,WEEK 32,TREATMENT,2024-10-06,225
I8F-JE-GPGO-SURPASS,DA,I8F-JE-GPGO-SURPASS-JPN_OSAKA01-0002,43,DISPAMT,Dispensed Amount,1.0,VIAL,1.0,1.0,VIAL,10.0,,TREATMENT,2024-04-28,64
I8F-JE-GPGO-SURPASS,DA,I8F-JE-GPGO-SURPASS-JPN_OSAKA01-0002,44,DISPAMT,Dispensed Amount,1.0,VIAL,1.0,1.0,VIAL,10.0,WEEK 40,TREATMENT,2024-12-01,281
I8F-JE-GPGO-SURPASS,DA,I8F-JE-GPGO-SURPASS-JPN_OSAKA01-0002,45,REMAMT,Remaining Amount,0.0,VIAL,0.0,0.0,VIAL,10.0,,TREATMENT,2024-04-28,64
I8F-JE-GPGO-SURPASS,DA,I8F-JE-GPGO-SURPASS-JPN_OSAKA01-0002,46,REMAMT,Remaining Amount,0.0,VIAL,0.0,0.0,VIAL,10.0,WEEK 40,TREATMENT,2024-12-01,281
I8F-JE-GPGO-SURPASS,DA,I8F-JE-GPGO-SURPASS-JPN_OSAKA01-0002,47,RETAMT,Returned Amount,0.0,VIAL,0.0,0.0,VIAL,10.0,,TREATMENT,2024-04-28,64
I8F-JE-GPGO-SURPASS,DA,I8F-JE-GPGO-SURPASS-JPN_OSAKA01-0002,48,RETAMT,Returned Amount,0.0,VIAL,0.0,0.0,VIAL,10.0,WEEK 40,TREATMENT,2024-12-01,281
I8F-JE-GPGO-SURPASS,DA,I8F-JE-GPGO-SURPASS-JPN_OSAKA01-0002,49,DISPAMT,Dispensed Amount,1.0,VIAL,1.0,1.0,VIAL,11.0,,TREATMENT,2024-05-05,71
I8F-JE-GPGO-SURPASS,DA,I8F-JE-GPGO-SURPASS-JPN_OSAKA01-0002,50,REMAMT,Remaining Amount,0.0,VIAL,0.0,0.0,VIAL,11.0,,TREATMENT,2024-05-05,71
I8F-JE-GPGO-SURPASS,DA,I8F-JE-GPGO-SURPASS-JPN_OSAKA01-0002,51,RETAMT,Returned Amount,0.0,VIAL,0.0,0.0,VIAL,11.0,,TREATMENT,2024-05-05,71
I8F-JE-GPGO-SURPASS,DA,I8F-JE-GPGO-SURPASS-JPN_OSAKA01-0002,52,DISPAMT,Dispensed Amount,1.0,VIAL,1.0,1.0,VIAL,12.0,,TREATMENT,2024-05-12,78
I8F-JE-GPGO-SURPASS,DA,I8F-JE-GPGO-SURPASS-JPN_OSAKA01-0002,53,REMAMT,Remaining Amount,0.0,VIAL,0.0,0.0,VIAL,12.0,,TREATMENT,2024-05-12,78
I8F-JE-GPGO-SURPASS,DA,I8F-JE-GPGO-SURPASS-JPN_OSAKA01-0002,54,RETAMT,Returned Amount,0.0,VIAL,0.0,0.0,VIAL,12.0,,TREATMENT,2024-05-12,78
I8F-JE-GPGO-SURPASS,DA,I8F-JE-GPGO-SURPASS-JPN_OSAKA01-0002,55,DISPAMT,Dispensed Amount,1.0,VIAL,1.0,1.0,VIAL,14.0,,TREATMENT,2024-05-26,92
I8F-JE-GPGO-SURPASS,DA,I8F-JE-GPGO-SURPASS-JPN_OSAKA01-0002,56,REMAMT,Remaining Amount,0.0,VIAL,0.0,0.0,VIAL,14.0,,TREATMENT,2024-05-26,92
I8F-JE-GPGO-SURPASS,DA,I8F-JE-GPGO-SURPASS-JPN_OSAKA01-0002,57,RETAMT,Returned Amount,0.0,VIAL,0.0,0.0,VIAL,14.0,,TREATMENT,2024-05-26,92
I8F-JE-GPGO-SURPASS,DA,I8F-JE-GPGO-SURPASS-JPN_OSAKA01-0002,58,DISPAMT,Dispensed Amount,1.0,VIAL,1.0,1.0,VIAL,15.0,,TREATMENT,2024-06-02,99
I8F-JE-GPGO-SURPASS,DA,I8F-JE-GPGO-SURPASS-JPN_OSAKA01-0002,59,REMAMT,Remaining Amount,1.0,VIAL,1.0,1.0,VIAL,15.0,,TREATMENT,2024-06-02,99
I8F-JE-GPGO-SURPASS,DA,I8F-JE-GPGO-SURPASS-JPN_OSAKA01-0002,60,RETAMT,Returned Amount,1.0,VIAL,1.0,1.0,VIAL,15.0,,TREATMENT,2024-06-02,99
I8F-JE-GPGO-SURPASS,DA,I8F-JE-GPGO-SURPASS-JPN_OSAKA01-0002,61,DISPAMT,Dispensed Amount,1.0,VIAL,1.0,1.0,VIAL,16.0,,TREATMENT,2024-06-09,106
I8F-JE-GPGO-SURPASS,DA,I8F-JE-GPGO-SURPASS-JPN_OSAKA01-0002,62,REMAMT,Remaining Amount,1.0,VIAL,1.0,1.0,VIAL,16.0,,TREATMENT,2024-06-09,106
I8F-JE-GPGO-SURPASS,DA,I8F-JE-GPGO-SURPASS-JPN_OSAKA01-0002,63,RETAMT,Returned Amount,1.0,VIAL,1.0,1.0,VIAL,16.0,,TREATMENT,2024-06-09,106
I8F-JE-GPGO-SURPASS,DA,I8F-JE-GPGO-SURPASS-JPN_OSAKA01-0002,64,DISPAMT,Dispensed Amount,1.0,VIAL,1.0,1.0,VIAL,18.0,,TREATMENT,2024-06-23,120
I8F-JE-GPGO-SURPASS,DA,I8F-JE-GPGO-SURPASS-JPN_OSAKA01-0002,65,REMAMT,Remaining Amount,0.0,VIAL,0.0,0.0,VIAL,18.0,,TREATMENT,2024-06-23,120
I8F-JE-GPGO-SURPASS,DA,I8F-JE-GPGO-SURPASS-JPN_OSAKA01-0002,66,RETAMT,Returned Amount,0.0,VIAL,0.0,0.0,VIAL,18.0,,TREATMENT,2024-06-23,120
I8F-JE-GPGO-SURPASS,DA,I8F-JE-GPGO-SURPASS-JPN_OSAKA01-0002,67,DISPAMT,Dispensed Amount,1.0,VIAL,1.0,1.0,VIAL,19.0,,TREATMENT,2024-06-30,127
I8F-JE-GPGO-SURPASS,DA,I8F-JE-GPGO-SURPASS-JPN_OSAKA01-0002,68,REMAMT,Remaining Amount,0.0,VIAL,0.0,0.0,VIAL,19.0,,TREATMENT,2024-06-30,127
I8F-JE-GPGO-SURPASS,DA,I8F-JE-GPGO-SURPASS-JPN_OSAKA01-0002,69,RETAMT,Returned Amount,0.0,VIAL,0.0,0.0,VIAL,19.0,,TREATMENT,2024-06-30,127
I8F-JE-GPGO-SURPASS,DA,I8F-JE-GPGO-SURPASS-JPN_OSAKA01-0002,70,DISPAMT,Dispensed Amount,1.0,VIAL,1.0,1.0,VIAL,20.0,,TREATMENT,2024-07-07,134
I8F-JE-GPGO-SURPASS,DA,I8F-JE-GPGO-SURPASS-JPN_OSAKA01-0002,71,REMAMT,Remaining Amount,0.0,VIAL,0.0,0.0,VIAL,20.0,,TREATMENT,2024-07-07,134
I8F-JE-GPGO-SURPASS,DA,I8F-JE-GPGO-SURPASS-JPN_OSAKA01-0002,72,RETAMT,Returned Amount,0.0,VIAL,0.0,0.0,VIAL,20.0,,TREATMENT,2024-07-07,134
I8F-JE-GPGO-SURPASS,DA,I8F-JE-GPGO-SURPASS-JPN_OSAKA01-0002,73,DISPAMT,Dispensed Amount,1.0,VIAL,1.0,1.0,VIAL,22.0,,TREATMENT,2024-07-21,148
I8F-JE-GPGO-SURPASS,DA,I8F-JE-GPGO-SURPASS-JPN_OSAKA01-0002,74,REMAMT,Remaining Amount,0.0,VIAL,0.0,0.0,VIAL,22.0,,TREATMENT,2024-07-21,148
I8F-JE-GPGO-SURPASS,DA,I8F-JE-GPGO-SURPASS-JPN_OSAKA01-0002,75,RETAMT,Returned Amount,0.0,VIAL,0.0,0.0,VIAL,22.0,,TREATMENT,2024-07-21,148
I8F-JE-GPGO-SURPASS,DA,I8F-JE-GPGO-SURPASS-JPN_OSAKA01-0002,76,DISPAMT,Dispensed Amount,1.0,VIAL,1.0,1.0,VIAL,23.0,,TREATMENT,2024-07-28,155
I8F-JE-GPGO-SURPASS,DA,I8F-JE-GPGO-SURPASS-JPN_OSAKA01-0002,77,REMAMT,Remaining Amount,0.0,VIAL,0.0,0.0,VIAL,23.0,,TREATMENT,2024-07-28,155
I8F-JE-GPGO-SURPASS,DA,I8F-JE-GPGO-SURPASS-JPN_OSAKA01-0002,78,RETAMT,Returned Amount,0.0,VIAL,0.0,0.0,VIAL,23.0,,TREATMENT,2024-07-28,155
I8F-JE-GPGO-SURPASS,DA,I8F-JE-GPGO-SURPASS-JPN_OSAKA01-0002,79,DISPAMT,Dispensed Amount,1.0,VIAL,1.0,1.0,VIAL,24.0,,TREATMENT,2024-08-04,162
I8F-JE-GPGO-SURPASS,DA,I8F-JE-GPGO-SURPASS-JPN_OSAKA01-0002,80,REMAMT,Remaining Amount,0.0,VIAL,0.0,0.0,VIAL,24.0,,TREATMENT,2024-08-04,162
I8F-JE-GPGO-SURPASS,DA,I8F-JE-GPGO-SURPASS-JPN_OSAKA01-0002,81,RETAMT,Returned Amount,0.0,VIAL,0.0,0.0,VIAL,24.0,,TREATMENT,2024-08-04,162
I8F-JE-GPGO-SURPASS,DA,I8F-JE-GPGO-SURPASS-JPN_OSAKA01-0002,82,DISPAMT,Dispensed Amount,1.0,VIAL,1.0,1.0,VIAL,26.0,,TREATMENT,2024-08-18,176
I8F-JE-GPGO-SURPASS,DA,I8F-JE-GPGO-SURPASS-JPN_OSAKA01-0002,83,REMAMT,Remaining Amount,0.0,VIAL,0.0,0.0,VIAL,26.0,,TREATMENT,2024-08-18,176
I8F-JE-GPGO-SURPASS,DA,I8F-JE-GPGO-SURPASS-JPN_OSAKA01-0002,84,RETAMT,Returned Amount,0.0,VIAL,0.0,0.0,VIAL,26.0,,TREATMENT,2024-08-18,176
I8F-JE-GPGO-SURPASS,DA,I8F-JE-GPGO-SURPASS-JPN_OSAKA01-0002,85,DISPAMT,Dispensed Amount,1.0,VIAL,1.0,1.0,VIAL,27.0,,TREATMENT,2024-08-25,183
I8F-JE-GPGO-SURPASS,DA,I8F-JE-GPGO-SURPASS-JPN_OSAKA01-0002,86,REMAMT,Remaining Amount,0.0,VIAL,0.0,0.0,VIAL,27.0,,TREATMENT,2024-08-25,183
I8F-JE-GPGO-SURPASS,DA,I8F-JE-GPGO-SURPASS-JPN_OSAKA01-0002,87,RETAMT,Returned Amount,0.0,VIAL,0.0,0.0,VIAL,27.0,,TREATMENT,2024-08-25,183
I8F-JE-GPGO-SURPASS,DA,I8F-JE-GPGO-SURPASS-JPN_OSAKA01-0002,88,DISPAMT,Dispensed Amount,1.0,VIAL,1.0,1.0,VIAL,28.0,,TREATMENT,2024-09-01,190
I8F-JE-GPGO-SURPASS,DA,I8F-JE-GPGO-SURPASS-JPN_OSAKA01-0002,89,REMAMT,Remaining Amount,0.0,VIAL,0.0,0.0,VIAL,28.0,,TREATMENT,2024-09-01,190
I8F-JE-GPGO-SURPASS,DA,I8F-JE-GPGO-SURPASS-JPN_OSAKA01-0002,90,RETAMT,Returned Amount,0.0,VIAL,0.0,0.0,VIAL,28.0,,TREATMENT,2024-09-01,190
I8F-JE-GPGO-SURPASS,DA,I8F-JE-GPGO-SURPASS-JPN_OSAKA01-0002,91,DISPAMT,Dispensed Amount,1.0,VIAL,1.0,1.0,VIAL,29.0,,TREATMENT,2024-09-08,197
I8F-JE-GPGO-SURPASS,DA,I8F-JE-GPGO-SURPASS-JPN_OSAKA01-0002,92,REMAMT,Remaining Amount,0.0,VIAL,0.0,0.0,VIAL,29.0,,TREATMENT,2024-09-08,197
I8F-JE-GPGO-SURPASS,DA,I8F-JE-GPGO-SURPASS-JPN_OSAKA01-0002,93,RETAMT,Returned Amount,0.0,VIAL,0.0,0.0,VIAL,29.0,,TREATMENT,2024-09-08,197
I8F-JE-GPGO-SURPASS,DA,I8F-JE-GPGO-SURPASS-JPN_OSAKA01-0002,94,DISPAMT,Dispensed Amount,1.0,VIAL,1.0,1.0,VIAL,30.0,,TREATMENT,2024-09-15,204
I8F-JE-GPGO-SURPASS,DA,I8F-JE-GPGO-SURPASS-JPN_OSAKA01-0002,95,REMAMT,Remaining Amount,0.0,VIAL,0.0,0.0,VIAL,30.0,,TREATMENT,2024-09-15,204
I8F-JE-GPGO-SURPASS,DA,I8F-JE-GPGO-SURPASS-JPN_OSAKA01-0002,96,RETAMT,Returned Amount,0.0,VIAL,0.0,0.0,VIAL,30.0,,TREATMENT,2024-09-15,204
I8F-JE-GPGO-SURPASS,DA,I8F-JE-GPGO-SURPASS-JPN_OSAKA01-0002,97,DISPAMT,Dispensed Amount,1.0,VIAL,1.0,1.0,VIAL,31.0,,TREATMENT,2024-09-22,211
I8F-JE-GPGO-SURPASS,DA,I8F-JE-GPGO-SURPASS-JPN_OSAKA01-0002,98,REMAMT,Remaining Amount,0.0,VIAL,0.0,0.0,VIAL,31.0,,TREATMENT,2024-09-22,211
I8F-JE-GPGO-SURPASS,DA,I8F-JE-GPGO-SURPASS-JPN_OSAKA01-0002,99,RETAMT,Returned Amount,0.0,VIAL,0.0,0.0,VIAL,31.0,,TREATMENT,2024-09-22,211
I8F-JE-GPGO-SURPASS,DA,I8F-JE-GPGO-SURPASS-JPN_OSAKA01-0002,100,DISPAMT,Dispensed Amount,1.0,VIAL,1.0,1.0,VIAL,32.0,,TREATMENT,2024-09-29,218
I8F-JE-GPGO-SURPASS,DA,I8F-JE-GPGO-SURPASS-JPN_OSAKA01-0002,101,REMAMT,Remaining Amount,0.0,VIAL,0.0,0.0,VIAL,32.0,,TREATMENT,2024-09-29,218
I8F-JE-GPGO-SURPASS,DA,I8F-JE-GPGO-SURPASS-JPN_OSAKA01-0002,102,RETAMT,Returned Amount,0.0,VIAL,0.0,0.0,VIAL,32.0,,TREATMENT,2024-09-29,218
I8F-JE-GPGO-SURPASS,DA,I8F-JE-GPGO-SURPASS-JPN_OSAKA01-0002,103,DISPAMT,Dispensed Amount,1.0,VIAL,1.0,1.0,VIAL,34.0,,TREATMENT,2024-10-13,232
I8F-JE-GPGO-SURPASS,DA,I8F-JE-GPGO-SURPASS-JPN_OSAKA01-0002,104,REMAMT,Remaining Amount,0.0,VIAL,0.0,0.0,VIAL,34.0,,TREATMENT,2024-10-13,232
I8F-JE-GPGO-SURPASS,DA,I8F-JE-GPGO-SURPASS-JPN_OSAKA01-0002,105,RETAMT,Returned Amount,0.0,VIAL,0.0,0.0,VIAL,34.0,,TREATMENT,2024-10-13,232
I8F-JE-GPGO-SURPASS,DA,I8F-JE-GPGO-SURPASS-JPN_OSAKA01-0002,106,DISPAMT,Dispensed Amount,1.0,VIAL,1.0,1.0,VIAL,35.0,,TREATMENT,2024-10-20,239
I8F-JE-GPGO-SURPASS,DA,I8F-JE-GPGO-SURPASS-JPN_OSAKA01-0002,107,REMAMT,Remaining Amount,0.0,VIAL,0.0,0.0,VIAL,35.0,,TREATMENT,2024-10-20,239
I8F-JE-GPGO-SURPASS,DA,I8F-JE-GPGO-SURPASS-JPN_OSAKA01-0002,108,RETAMT,Returned Amount,0.0,VIAL,0.0,0.0,VIAL,35.0,,TREATMENT,2024-10-20,239
I8F-JE-GPGO-SURPASS,DA,I8F-JE-GPGO-SURPASS-JPN_OSAKA01-0002,109,DISPAMT,Dispensed Amount,1.0,VIAL,1.0,1.0,VIAL,36.0,,TREATMENT,2024-10-27,246
I8F-JE-GPGO-SURPASS,DA,I8F-JE-GPGO-SURPASS-JPN_OSAKA01-0002,110,REMAMT,Remaining Amount,0.0,VIAL,0.0,0.0,VIAL,36.0,,TREATMENT,2024-10-27,246
I8F-JE-GPGO-SURPASS,DA,I8F-JE-GPGO-SURPASS-JPN_OSAKA01-0002,111,RETAMT,Returned Amount,0.0,VIAL,0.0,0.0,VIAL,36.0,,TREATMENT,2024-10-27,246
I8F-JE-GPGO-SURPASS,DA,I8F-JE-GPGO-SURPASS-JPN_OSAKA01-0002,112,DISPAMT,Dispensed Amount,1.0,VIAL,1.0,1.0,VIAL,37.0,,TREATMENT,2024-11-03,253
I8F-JE-GPGO-SURPASS,DA,I8F-JE-GPGO-SURPASS-JPN_OSAKA01-0002,113,REMAMT,Remaining Amount,0.0,VIAL,0.0,0.0,VIAL,37.0,,TREATMENT,2024-11-03,253
I8F-JE-GPGO-SURPASS,DA,I8F-JE-GPGO-SURPASS-JPN_OSAKA01-0002,114,RETAMT,Returned Amount,0.0,VIAL,0.0,0.0,VIAL,37.0,,TREATMENT,2024-11-03,253
I8F-JE-GPGO-SURPASS,DA,I8F-JE-GPGO-SURPASS-JPN_OSAKA01-0002,115,DISPAMT,Dispensed Amount,1.0,VIAL,1.0,1.0,VIAL,38.0,,TREATMENT,2024-11-10,260
I8F-JE-GPGO-SURPASS,DA,I8F-JE-GPGO-SURPASS-JPN_OSAKA01-0002,116,REMAMT,Remaining Amount,0.0,VIAL,0.0,0.0,VIAL,38.0,,TREATMENT,2024-11-10,260
I8F-JE-GPGO-SURPASS,DA,I8F-JE-GPGO-SURPASS-JPN_OSAKA01-0002,117,RETAMT,Returned Amount,0.0,VIAL,0.0,0.0,VIAL,38.0,,TREATMENT,2024-11-10,260
I8F-JE-GPGO-SURPASS,DA,I8F-JE-GPGO-SURPASS-JPN_OSAKA01-0002,118,DISPAMT,Dispensed Amount,1.0,VIAL,1.0,1.0,VIAL,39.0,,TREATMENT,2024-11-17,267
I8F-JE-GPGO-SURPASS,DA,I8F-JE-GPGO-SURPASS-JPN_OSAKA01-0002,119,REMAMT,Remaining Amount,0.0,VIAL,0.0,0.0,VIAL,39.0,,TREATMENT,2024-11-17,267
I8F-JE-GPGO-SURPASS,DA,I8F-JE-GPGO-SURPASS-JPN_OSAKA01-0002,120,RETAMT,Returned Amount,0.0,VIAL,0.0,0.0,VIAL,39.0,,TREATMENT,2024-11-17,267
I8F-JE-GPGO-SURPASS,DA,I8F-JE-GPGO-SURPASS-JPN_OSAKA01-0002,121,DISPAMT,Dispensed Amount,1.0,VIAL,1.0,1.0,VIAL,40.0,,TREATMENT,2024-11-24,274
I8F-JE-GPGO-SURPASS,DA,I8F-JE-GPGO-SURPASS-JPN_OSAKA01-0002,122,REMAMT,Remaining Amount,0.0,VIAL,0.0,0.0,VIAL,40.0,,TREATMENT,2024-11-24,274
I8F-JE-GPGO-SURPASS,DA,I8F-JE-GPGO-SURPASS-JPN_OSAKA01-0002,123,RETAMT,Returned Amount,0.0,VIAL,0.0,0.0,VIAL,40.0,,TREATMENT,2024-11-24,274
I8F-JE-GPGO-SURPASS,DA,I8F-JE-GPGO-SURPASS-JPN_OSAKA01-0002,124,DISPAMT,Dispensed Amount,1.0,VIAL,1.0,1.0,VIAL,42.0,,TREATMENT,2024-12-08,288
I8F-JE-GPGO-SURPASS,DA,I8F-JE-GPGO-SURPASS-JPN_OSAKA01-0002,125,REMAMT,Remaining Amount,0.0,VIAL,0.0,0.0,VIAL,42.0,,TREATMENT,2024-12-08,288
I8F-JE-GPGO-SURPASS,DA,I8F-JE-GPGO-SURPASS-JPN_OSAKA01-0002,126,RETAMT,Returned Amount,0.0,VIAL,0.0,0.0,VIAL,42.0,,TREATMENT,2024-12-08,288
I8F-JE-GPGO-SURPASS,DA,I8F-JE-GPGO-SURPASS-JPN_OSAKA01-0002,127,DISPAMT,Dispensed Amount,1.0,VIAL,1.0,1.0,VIAL,43.0,,TREATMENT,2024-12-15,295
I8F-JE-GPGO-SURPASS,DA,I8F-JE-GPGO-SURPASS-JPN_OSAKA01-0002,128,REMAMT,Remaining Amount,1.0,VIAL,1.0,1.0,VIAL,43.0,,TREATMENT,2024-12-15,295
I8F-JE-GPGO-SURPASS,DA,I8F-JE-GPGO-SURPASS-JPN_OSAKA01-0002,129,RETAMT,Returned Amount,1.0,VIAL,1.0,1.0,VIAL,43.0,,TREATMENT,2024-12-15,295
I8F-JE-GPGO-SURPASS,DA,I8F-JE-GPGO-SURPASS-JPN_OSAKA01-0002,130,DISPAMT,Dispensed Amount,1.0,VIAL,1.0,1.0,VIAL,44.0,,TREATMENT,2024-12-22,302
I8F-JE-GPGO-SURPASS,DA,I8F-JE-GPGO-SURPASS-JPN_OSAKA01-0002,131,REMAMT,Remaining Amount,0.0,VIAL,0.0,0.0,VIAL,44.0,,TREATMENT,2024-12-22,302
I8F-JE-GPGO-SURPASS,DA,I8F-JE-GPGO-SURPASS-JPN_OSAKA01-0002,132,RETAMT,Returned Amount,0.0,VIAL,0.0,0.0,VIAL,44.0,,TREATMENT,2024-12-22,302
I8F-JE-GPGO-SURPASS,DA,I8F-JE-GPGO-SURPASS-JPN_OSAKA01-0002,133,DISPAMT,Dispensed Amount,1.0,VIAL,1.0,1.0,VIAL,45.0,,TREATMENT,2024-12-29,309
I8F-JE-GPGO-SURPASS,DA,I8F-JE-GPGO-SURPASS-JPN_OSAKA01-0002,134,REMAMT,Remaining Amount,0.0,VIAL,0.0,0.0,VIAL,45.0,,TREATMENT,2024-12-29,309
I8F-JE-GPGO-SURPASS,DA,I8F-JE-GPGO-SURPASS-JPN_OSAKA01-0002,135,RETAMT,Returned Amount,0.0,VIAL,0.0,0.0,VIAL,45.0,,TREATMENT,2024-12-29,309
I8F-JE-GPGO-SURPASS,DA,I8F-JE-GPGO-SURPASS-JPN_OSAKA01-0002,136,DISPAMT,Dispensed Amount,1.0,VIAL,1.0,1.0,VIAL,46.0,,TREATMENT,2025-01-05,316
I8F-JE-GPGO-SURPASS,DA,I8F-JE-GPGO-SURPASS-JPN_OSAKA01-0002,137,REMAMT,Remaining Amount,0.0,VIAL,0.0,0.0,VIAL,46.0,,TREATMENT,2025-01-05,316
I8F-JE-GPGO-SURPASS,DA,I8F-JE-GPGO-SURPASS-JPN_OSAKA01-0002,138,RETAMT,Returned Amount,0.0,VIAL,0.0,0.0,VIAL,46.0,,TREATMENT,2025-01-05,316
I8F-JE-GPGO-SURPASS,DA,I8F-JE-GPGO-SURPASS-JPN_OSAKA01-0002,139,DISPAMT,Dispensed Amount,1.0,VIAL,1.0,1.0,VIAL,47.0,,TREATMENT,2025-01-12,323
I8F-JE-GPGO-SURPASS,DA,I8F-JE-GPGO-SURPASS-JPN_OSAKA01-0002,140,REMAMT,Remaining Amount,0.0,VIAL,0.0,0.0,VIAL,47.0,,TREATMENT,2025-01-12,323
I8F-JE-GPGO-SURPASS,DA,I8F-JE-GPGO-SURPASS-JPN_OSAKA01-0002,141,RETAMT,Returned Amount,0.0,VIAL,0.0,0.0,VIAL,47.0,,TREATMENT,2025-01-12,323
I8F-JE-GPGO-SURPASS,DA,I8F-JE-GPGO-SURPASS-JPN_OSAKA01-0002,142,DISPAMT,Dispensed Amount,1.0,VIAL,1.0,1.0,VIAL,48.0,,TREATMENT,2025-01-19,330
I8F-JE-GPGO-SURPASS,DA,I8F-JE-GPGO-SURPASS-JPN_OSAKA01-0002,143,REMAMT,Remaining Amount,1.0,VIAL,1.0,1.0,VIAL,48.0,,TREATMENT,2025-01-19,330
I8F-JE-GPGO-SURPASS,DA,I8F-JE-GPGO-SURPASS-JPN_OSAKA01-0002,144,RETAMT,Returned Amount,1.0,VIAL,1.0,1.0,VIAL,48.0,,TREATMENT,2025-01-19,330
I8F-JE-GPGO-SURPASS,DA,I8F-JE-GPGO-SURPASS-JPN_OSAKA01-0002,145,DISPAMT,Dispensed Amount,1.0,VIAL,1.0,1.0,VIAL,49.0,,TREATMENT,2025-01-26,337
I8F-JE-GPGO-SURPASS,DA,I8F-JE-GPGO-SURPASS-JPN_OSAKA01-0002,146,REMAMT,Remaining Amount,0.0,VIAL,0.0,0.0,VIAL,49.0,,TREATMENT,2025-01-26,337
I8F-JE-GPGO-SURPASS,DA,I8F-JE-GPGO-SURPASS-JPN_OSAKA01-0002,147,RETAMT,Returned Amount,0.0,VIAL,0.0,0.0,VIAL,49.0,,TREATMENT,2025-01-26,337
I8F-JE-GPGO-SURPASS,DA,I8F-JE-GPGO-SURPASS-JPN_OSAKA01-0002,148,DISPAMT,Dispensed Amount,1.0,VIAL,1.0,1.0,VIAL,50.0,,TREATMENT,2025-02-02,344
I8F-JE-GPGO-SURPASS,DA,I8F-JE-GPGO-SURPASS-JPN_OSAKA01-0002,149,REMAMT,Remaining Amount,0.0,VIAL,0.0,0.0,VIAL,50.0,,TREATMENT,2025-02-02,344
I8F-JE-GPGO-SURPASS,DA,I8F-JE-GPGO-SURPASS-JPN_OSAKA01-0002,150,RETAMT,Returned Amount,0.0,VIAL,0.0,0.0,VIAL,50.0,,TREATMENT,2025-02-02,344
I8F-JE-GPGO-SURPASS,DA,I8F-JE-GPGO-SURPASS-JPN_OSAKA01-0002,151,DISPAMT,Dispensed Amount,1.0,VIAL,1.0,1.0,VIAL,51.0,,TREATMENT,2025-02-09,351
I8F-JE-GPGO-SURPASS,DA,I8F-JE-GPGO-SURPASS-JPN_OSAKA01-0002,152,REMAMT,Remaining Amount,0.0,VIAL,0.0,0.0,VIAL,51.0,,TREATMENT,2025-02-09,351
I8F-JE-GPGO-SURPASS,DA,I8F-JE-GPGO-SURPASS-JPN_OSAKA01-0002,153,RETAMT,Returned Amount,0.0,VIAL,0.0,0.0,VIAL,51.0,,TREATMENT,2025-02-09,351
I8F-JE-GPGO-SURPASS,DA,I8F-JE-GPGO-SURPASS-JPN_OSAKA01-0002,154,DISPAMT,Dispensed Amount,1.0,VIAL,1.0,1.0,VIAL,52.0,,TREATMENT,2025-02-16,358
I8F-JE-GPGO-SURPASS,DA,I8F-JE-GPGO-SURPASS-JPN_OSAKA01-0002,155,REMAMT,Remaining Amount,0.0,VIAL,0.0,0.0,VIAL,52.0,,TREATMENT,2025-02-16,358
I8F-JE-GPGO-SURPASS,DA,I8F-JE-GPGO-SURPASS-JPN_OSAKA01-0002,156,RETAMT,Returned Amount,0.0,VIAL,0.0,0.0,VIAL,52.0,,TREATMENT,2025-02-16,358
I8F-JE-GPGO-SURPASS,DA,I8F-JE-GPGO-SURPASS-JPN_SAPPORO01-0020,1,DISPAMT,Dispensed Amount,1.0,VIAL,1.0,1.0,VIAL,2.0,BASELINE,TREATMENT,2024-04-27,1
I8F-JE-GPGO-SURPASS,DA,I8F-JE-GPGO-SURPASS-JPN_SAPPORO01-0020,2,DISPAMT,Dispensed Amount,1.0,VIAL,1.0,1.0,VIAL,2.0,,TREATMENT,2024-05-04,8
I8F-JE-GPGO-SURPASS,DA,I8F-JE-GPGO-SURPASS-JPN_SAPPORO01-0020,3,REMAMT,Remaining Amount,0.0,VIAL,0.0,0.0,VIAL,2.0,BASELINE,TREATMENT,2024-04-27,1
I8F-JE-GPGO-SURPASS,DA,I8F-JE-GPGO-SURPASS-JPN_SAPPORO01-0020,4,REMAMT,Remaining Amount,0.0,VIAL,0.0,0.0,VIAL,2.0,,TREATMENT,2024-05-04,8
I8F-JE-GPGO-SURPASS,DA,I8F-JE-GPGO-SURPASS-JPN_SAPPORO01-0020,5,RETAMT,Returned Amount,0.0,VIAL,0.0,0.0,VIAL,2.0,BASELINE,TREATMENT,2024-04-27,1
I8F-JE-GPGO-SURPASS,DA,I8F-JE-GPGO-SURPASS-JPN_SAPPORO01-0020,6,RETAMT,Returned Amount,0.0,VIAL,0.0,0.0,VIAL,2.0,,TREATMENT,2024-05-04,8
I8F-JE-GPGO-SURPASS,DA,I8F-JE-GPGO-SURPASS-JPN_SAPPORO01-0020,7,DISPAMT,Dispensed Amount,1.0,VIAL,1.0,1.0,VIAL,3.0,,TREATMENT,2024-05-11,15
I8F-JE-GPGO-SURPASS,DA,I8F-JE-GPGO-SURPASS-JPN_SAPPORO01-0020,8,DISPAMT,Dispensed Amount,1.0,VIAL,1.0,1.0,VIAL,3.0,WEEK 4,TREATMENT,2024-05-25,29
I8F-JE-GPGO-SURPASS,DA,I8F-JE-GPGO-SURPASS-JPN_SAPPORO01-0020,9,REMAMT,Remaining Amount,0.0,VIAL,0.0,0.0,VIAL,3.0,,TREATMENT,2024-05-11,15
I8F-JE-GPGO-SURPASS,DA,I8F-JE-GPGO-SURPASS-JPN_SAPPORO01-0020,10,REMAMT,Remaining Amount,1.0,VIAL,1.0,1.0,VIAL,3.0,WEEK 4,TREATMENT,2024-05-25,29
I8F-JE-GPGO-SURPASS,DA,I8F-JE-GPGO-SURPASS-JPN_SAPPORO01-0020,11,RETAMT,Returned Amount,0.0,VIAL,0.0,0.0,VIAL,3.0,,TREATMENT,2024-05-11,15
I8F-JE-GPGO-SURPASS,DA,I8F-JE-GPGO-SURPASS-JPN_SAPPORO01-0020,12,RETAMT,Returned Amount,1.0,VIAL,1.0,1.0,VIAL,3.0,WEEK 4,TREATMENT,2024-05-25,29
I8F-JE-GPGO-SURPASS,DA,I8F-JE-GPGO-SURPASS-JPN_SAPPORO01-0020,13,DISPAMT,Dispensed Amount,1.0,VIAL,1.0,1.0,VIAL,4.0,,TREATMENT,2024-05-18,22
I8F-JE-GPGO-SURPASS,DA,I8F-JE-GPGO-SURPASS-JPN_SAPPORO01-0020,14,DISPAMT,Dispensed Amount,1.0,VIAL,1.0,1.0,VIAL,4.0,WEEK 8,TREATMENT,2024-06-22,57
I8F-JE-GPGO-SURPASS,DA,I8F-JE-GPGO-SURPASS-JPN_SAPPORO01-0020,15,REMAMT,Remaining Amount,0.0,VIAL,0.0,0.0,VIAL,4.0,,TREATMENT,2024-05-18,22
I8F-JE-GPGO-SURPASS,DA,I8F-JE-GPGO-SURPASS-JPN_SAPPORO01-0020,16,REMAMT,Remaining Amount,0.0,VIAL,0.0,0.0,VIAL,4.0,WEEK 8,TREATMENT,2024-06-22,57
I8F-JE-GPGO-SURPASS,DA,I8F-JE-GPGO-SURPASS-JPN_SAPPORO01-0020,17,RETAMT,Returned Amount,0.0,VIAL,0.0,0.0,VIAL,4.0,,TREATMENT,2024-05-18,22
I8F-JE-GPGO-SURPASS,DA,I8F-JE-GPGO-SURPASS-JPN_SAPPORO01-0020,18,RETAMT,Returned Amount,0.0,VIAL,0.0,0.0,VIAL,4.0,WEEK 8,TREATMENT,2024-06-22,57
I8F-JE-GPGO-SURPASS,DA,I8F-JE-GPGO-SURPASS-JPN_SAPPORO01-0020,19,DISPAMT,Dispensed Amount,1.0,VIAL,1.0,1.0,VIAL,5.0,WEEK 12,TREATMENT,2024-07-20,85
I8F-JE-GPGO-SURPASS,DA,I8F-JE-GPGO-SURPASS-JPN_SAPPORO01-0020,20,REMAMT,Remaining Amount,0.0,VIAL,0.0,0.0,VIAL,5.0,WEEK 12,TREATMENT,2024-07-20,85
I8F-JE-GPGO-SURPASS,DA,I8F-JE-GPGO-SURPASS-JPN_SAPPORO01-0020,21,RETAMT,Returned Amount,0.0,VIAL,0.0,0.0,VIAL,5.0,WEEK 12,TREATMENT,2024-07-20,85
I8F-JE-GPGO-SURPASS,DA,I8F-JE-GPGO-SURPASS-JPN_SAPPORO01-0020,22,DISPAMT,Dispensed Amount,1.0,VIAL,1.0,1.0,VIAL,6.0,,TREATMENT,2024-06-01,36
I8F-JE-GPGO-SURPASS,DA,I8F-JE-GPGO-SURPASS-JPN_SAPPORO01-0020,23,DISPAMT,Dispensed Amount,1.0,VIAL,1.0,1.0,VIAL,6.0,WEEK 16,TREATMENT,2024-08-17,113
I8F-JE-GPGO-SURPASS,DA,I8F-JE-GPGO-SURPASS-JPN_SAPPORO01-0020,24,REMAMT,Remaining Amount,0.0,VIAL,0.0,0.0,VIAL,6.0,,TREATMENT,2024-06-01,36
I8F-JE-GPGO-SURPASS,DA,I8F-JE-GPGO-SURPASS-JPN_SAPPORO01-0020,25,REMAMT,Remaining Amount,0.0,VIAL,0.0,0.0,VIAL,6.0,WEEK 16,TREATMENT,2024-08-17,113
I8F-JE-GPGO-SURPASS,DA,I8F-JE-GPGO-SURPASS-JPN_SAPPORO01-0020,26,RETAMT,Returned Amount,0.0,VIAL,0.0,0.0,VIAL,6.0,,TREATMENT,2024-06-01,36
I8F-JE-GPGO-SURPASS,DA,I8F-JE-GPGO-SURPASS-JPN_SAPPORO01-0020,27,RETAMT,Returned Amount,0.0,VIAL,0.0,0.0,VIAL,6.0,WEEK 16,TREATMENT,2024-08-17,113
I8F-JE-GPGO-SURPASS,DA,I8F-JE-GPGO-SURPASS-JPN_SAPPORO01-0020,28,DISPAMT,Dispensed Amount,1.0,VIAL,1.0,1.0,VIAL,7.0,,TREATMENT,2024-06-08,43
I8F-JE-GPGO-SURPASS,DA,I8F-JE-GPGO-SURPASS-JPN_SAPPORO01-0020,29,DISPAMT,Dispensed Amount,1.0,VIAL,1.0,1.0,VIAL,7.0,WEEK 20,TREATMENT,2024-09-14,141
I8F-JE-GPGO-SURPASS,DA,I8F-JE-GPGO-SURPASS-JPN_SAPPORO01-0020,30,REMAMT,Remaining Amount,0.0,VIAL,0.0,0.0,VIAL,7.0,,TREATMENT,2024-06-08,43
I8F-JE-GPGO-SURPASS,DA,I8F-JE-GPGO-SURPASS-JPN_SAPPORO01-0020,31,REMAMT,Remaining Amount,0.0,VIAL,0.0,0.0,VIAL,7.0,WEEK 20,TREATMENT,2024-09-14,141
I8F-JE-GPGO-SURPASS,DA,I8F-JE-GPGO-SURPASS-JPN_SAPPORO01-0020,32,RETAMT,Returned Amount,0.0,VIAL,0.0,0.0,VIAL,7.0,,TREATMENT,2024-06-08,43
I8F-JE-GPGO-SURPASS,DA,I8F-JE-GPGO-SURPASS-JPN_SAPPORO01-0020,33,RETAMT,Returned Amount,0.0,VIAL,0.0,0.0,VIAL,7.0,WEEK 20,TREATMENT,2024-09-14,141
I8F-JE-GPGO-SURPASS,DA,I8F-JE-GPGO-SURPASS-JPN_SAPPORO01-0020,34,DISPAMT,Dispensed Amount,1.0,VIAL,1.0,1.0,VIAL,8.0,,TREATMENT,2024-06-15,50
I8F-JE-GPGO-SURPASS,DA,I8F-JE-GPGO-SURPASS-JPN_SAPPORO01-0020,35,DISPAMT,Dispensed Amount,1.0,VIAL,1.0,1.0,VIAL,8.0,WEEK 24,TREATMENT,2024-10-12,169
I8F-JE-GPGO-SURPASS,DA,I8F-JE-GPGO-SURPASS-JPN_SAPPORO01-0020,36,REMAMT,Remaining Amount,0.0,VIAL,0.0,0.0,VIAL,8.0,,TREATMENT,2024-06-15,50
I8F-JE-GPGO-SURPASS,DA,I8F-JE-GPGO-SURPASS-JPN_SAPPORO01-0020,37,REMAMT,Remaining Amount,0.0,VIAL,0.0,0.0,VIAL,8.0,WEEK 24,TREATMENT,2024-10-12,169
I8F-JE-GPGO-SURPASS,DA,I8F-JE-GPGO-SURPASS-JPN_SAPPORO01-0020,38,RETAMT,Returned Amount,0.0,VIAL,0.0,0.0,VIAL,8.0,,TREATMENT,2024-06-15,50
I8F-JE-GPGO-SURPASS,DA,I8F-JE-GPGO-SURPASS-JPN_SAPPORO01-0020,39,RETAMT,Returned Amount,0.0,VIAL,0.0,0.0,VIAL,8.0,WEEK 24,TREATMENT,2024-10-12,169
I8F-JE-GPGO-SURPASS,DA,I8F-JE-GPGO-SURPASS-JPN_SAPPORO01-0020,40,DISPAMT,Dispensed Amount,1.0,VIAL,1.0,1.0,VIAL,9.0,WEEK 32,TREATMENT,2024-12-07,225
I8F-JE-GPGO-SURPASS,DA,I8F-JE-GPGO-SURPASS-JPN_SAPPORO01-0020,41,REMAMT,Remaining Amount,0.0,VIAL,0.0,0.0,VIAL,9.0,WEEK 32,TREATMENT,2024-12-07,225
I8F-JE-GPGO-SURPASS,DA,I8F-JE-GPGO-SURPASS-JPN_SAPPORO01-0020,42,RETAMT,Returned Amount,0.0,VIAL,0.0,0.0,VIAL,9.0,WEEK 32,TREATMENT,2024-12-07,225
I8F-JE-GPGO-SURPASS,DA,I8F-JE-GPGO-SURPASS-JPN_SAPPORO01-0020,43,DISPAMT,Dispensed Amount,1.0,VIAL,1.0,1.0,VIAL,10.0,,TREATMENT,2024-06-29,64
I8F-JE-GPGO-SURPASS,DA,I8F-JE-GPGO-SURPASS-JPN_SAPPORO01-0020,44,DISPAMT,Dispensed Amount,1.0,VIAL,1.0,1.0,VIAL,10.0,WEEK 40,TREATMENT,2025-02-01,281
I8F-JE-GPGO-SURPASS,DA,I8F-JE-GPGO-SURPASS-JPN_SAPPORO01-0020,45,REMAMT,Remaining Amount,0.0,VIAL,0.0,0.0,VIAL,10.0,,TREATMENT,2024-06-29,64
I8F-JE-GPGO-SURPASS,DA,I8F-JE-GPGO-SURPASS-JPN_SAPPORO01-0020,46,REMAMT,Remaining Amount,0.0,VIAL,0.0,0.0,VIAL,10.0,WEEK 40,TREATMENT,2025-02-01,281
I8F-JE-GPGO-SURPASS,DA,I8F-JE-GPGO-SURPASS-JPN_SAPPORO01-0020,47,RETAMT,Returned Amount,0.0,VIAL,0.0,0.0,VIAL,10.0,,TREATMENT,2024-06-29,64
I8F-JE-GPGO-SURPASS,DA,I8F-JE-GPGO-SURPASS-JPN_SAPPORO01-0020,48,RETAMT,Returned Amount,0.0,VIAL,0.0,0.0,VIAL,10.0,WEEK 40,TREATMENT,2025-02-01,281
I8F-JE-GPGO-SURPASS,DA,I8F-JE-GPGO-SURPASS-JPN_SAPPORO01-0020,49,DISPAMT,Dispensed Amount,1.0,VIAL,1.0,1.0,VIAL,11.0,,TREATMENT,2024-07-06,71
I8F-JE-GPGO-SURPASS,DA,I8F-JE-GPGO-SURPASS-JPN_SAPPORO01-0020,50,REMAMT,Remaining Amount,0.0,VIAL,0.0,0.0,VIAL,11.0,,TREATMENT,2024-07-06,71
I8F-JE-GPGO-SURPASS,DA,I8F-JE-GPGO-SURPASS-JPN_SAPPORO01-0020,51,RETAMT,Returned Amount,0.0,VIAL,0.0,0.0,VIAL,11.0,,TREATMENT,2024-07-06,71
I8F-JE-GPGO-SURPASS,DA,I8F-JE-GPGO-SURPASS-JPN_SAPPORO01-0020,52,DISPAMT,Dispensed Amount,1.0,VIAL,1.0,1.0,VIAL,12.0,,TREATMENT,2024-07-13,78
I8F-JE-GPGO-SURPASS,DA,I8F-JE-GPGO-SURPASS-JPN_SAPPORO01-0020,53,REMAMT,Remaining Amount,0.0,VIAL,0.0,0.0,VIAL,12.0,,TREATMENT,2024-07-13,78
I8F-JE-GPGO-SURPASS,DA,I8F-JE-GPGO-SURPASS-JPN_SAPPORO01-0020,54,RETAMT,Returned Amount,0.0,VIAL,0.0,0.0,VIAL,12.0,,TREATMENT,2024-07-13,78
I8F-JE-GPGO-SURPASS,DA,I8F-JE-GPGO-SURPASS-JPN_SAPPORO01-0020,55,DISPAMT,Dispensed Amount,1.0,VIAL,1.0,1.0,VIAL,14.0,,TREATMENT,2024-07-27,92
I8F-JE-GPGO-SURPASS,DA,I8F-JE-GPGO-SURPASS-JPN_SAPPORO01-0020,56,REMAMT,Remaining Amount,0.0,VIAL,0.0,0.0,VIAL,14.0,,TREATMENT,2024-07-27,92
I8F-JE-GPGO-SURPASS,DA,I8F-JE-GPGO-SURPASS-JPN_SAPPORO01-0020,57,RETAMT,Returned Amount,0.0,VIAL,0.0,0.0,VIAL,14.0,,TREATMENT,2024-07-27,92
I8F-JE-GPGO-SURPASS,DA,I8F-JE-GPGO-SURPASS-JPN_SAPPORO01-0020,58,DISPAMT,Dispensed Amount,1.0,VIAL,1.0,1.0,VIAL,15.0,,TREATMENT,2024-08-03,99
I8F-JE-GPGO-SURPASS,DA,I8F-JE-GPGO-SURPASS-JPN_SAPPORO01-0020,59,REMAMT,Remaining Amount,0.0,VIAL,0.0,0.0,VIAL,15.0,,TREATMENT,2024-08-03,99
I8F-JE-GPGO-SURPASS,DA,I8F-JE-GPGO-SURPASS-JPN_SAPPORO01-0020,60,RETAMT,Returned Amount,0.0,VIAL,0.0,0.0,VIAL,15.0,,TREATMENT,2024-08-03,99
I8F-JE-GPGO-SURPASS,DA,I8F-JE-GPGO-SURPASS-JPN_SAPPORO01-0020,61,DISPAMT,Dispensed Amount,1.0,VIAL,1.0,1.0,VIAL,16.0,,TREATMENT,2024-08-10,106
I8F-JE-GPGO-SURPASS,DA,I8F-JE-GPGO-SURPASS-JPN_SAPPORO01-0020,62,REMAMT,Remaining Amount,0.0,VIAL,0.0,0.0,VIAL,16.0,,TREATMENT,2024-08-10,106
I8F-JE-GPGO-SURPASS,DA,I8F-JE-GPGO-SURPASS-JPN_SAPPORO01-0020,63,RETAMT,Returned Amount,0.0,VIAL,0.0,0.0,VIAL,16.0,,TREATMENT,2024-08-10,106
I8F-JE-GPGO-SURPASS,DA,I8F-JE-GPGO-SURPASS-JPN_SAPPORO01-0020,64,DISPAMT,Dispensed Amount,1.0,VIAL,1.0,1.0,VIAL,18.0,,TREATMENT,2024-08-24,120
I8F-JE-GPGO-SURPASS,DA,I8F-JE-GPGO-SURPASS-JPN_SAPPORO01-0020,65,REMAMT,Remaining Amount,0.0,VIAL,0.0,0.0,VIAL,18.0,,TREATMENT,2024-08-24,120
I8F-JE-GPGO-SURPASS,DA,I8F-JE-GPGO-SURPASS-JPN_SAPPORO01-0020,66,RETAMT,Returned Amount,0.0,VIAL,0.0,0.0,VIAL,18.0,,TREATMENT,2024-08-24,120
I8F-JE-GPGO-SURPASS,DA,I8F-JE-GPGO-SURPASS-JPN_SAPPORO01-0020,67,DISPAMT,Dispensed Amount,1.0,VIAL,1.0,1.0,VIAL,19.0,,TREATMENT,2024-08-31,127
I8F-JE-GPGO-SURPASS,DA,I8F-JE-GPGO-SURPASS-JPN_SAPPORO01-0020,68,REMAMT,Remaining Amount,0.0,VIAL,0.0,0.0,VIAL,19.0,,TREATMENT,2024-08-31,127
I8F-JE-GPGO-SURPASS,DA,I8F-JE-GPGO-SURPASS-JPN_SAPPORO01-0020,69,RETAMT,Returned Amount,0.0,VIAL,0.0,0.0,VIAL,19.0,,TREATMENT,2024-08-31,127
I8F-JE-GPGO-SURPASS,DA,I8F-JE-GPGO-SURPASS-JPN_SAPPORO01-0020,70,DISPAMT,Dispensed Amount,1.0,VIAL,1.0,1.0,VIAL,20.0,,TREATMENT,2024-09-07,134
I8F-JE-GPGO-SURPASS,DA,I8F-JE-GPGO-SURPASS-JPN_SAPPORO01-0020,71,REMAMT,Remaining Amount,0.0,VIAL,0.0,0.0,VIAL,20.0,,TREATMENT,2024-09-07,134
I8F-JE-GPGO-SURPASS,DA,I8F-JE-GPGO-SURPASS-JPN_SAPPORO01-0020,72,RETAMT,Returned Amount,0.0,VIAL,0.0,0.0,VIAL,20.0,,TREATMENT,2024-09-07,134
I8F-JE-GPGO-SURPASS,DA,I8F-JE-GPGO-SURPASS-JPN_SAPPORO01-0020,73,DISPAMT,Dispensed Amount,1.0,VIAL,1.0,1.0,VIAL,22.0,,TREATMENT,2024-09-21,148
I8F-JE-GPGO-SURPASS,DA,I8F-JE-GPGO-SURPASS-JPN_SAPPORO01-0020,74,REMAMT,Remaining Amount,0.0,VIAL,0.0,0.0,VIAL,22.0,,TREATMENT,2024-09-21,148
I8F-JE-GPGO-SURPASS,DA,I8F-JE-GPGO-SURPASS-JPN_SAPPORO01-0020,75,RETAMT,Returned Amount,0.0,VIAL,0.0,0.0,VIAL,22.0,,TREATMENT,2024-09-21,148
I8F-JE-GPGO-SURPASS,DA,I8F-JE-GPGO-SURPASS-JPN_SAPPORO01-0020,76,DISPAMT,Dispensed Amount,1.0,VIAL,1.0,1.0,VIAL,23.0,,TREATMENT,2024-09-28,155
I8F-JE-GPGO-SURPASS,DA,I8F-JE-GPGO-SURPASS-JPN_SAPPORO01-0020,77,REMAMT,Remaining Amount,0.0,VIAL,0.0,0.0,VIAL,23.0,,TREATMENT,2024-09-28,155
I8F-JE-GPGO-SURPASS,DA,I8F-JE-GPGO-SURPASS-JPN_SAPPORO01-0020,78,RETAMT,Returned Amount,0.0,VIAL,0.0,0.0,VIAL,23.0,,TREATMENT,2024-09-28,155
I8F-JE-GPGO-SURPASS,DA,I8F-JE-GPGO-SURPASS-JPN_SAPPORO01-0020,79,DISPAMT,Dispensed Amount,1.0,VIAL,1.0,1.0,VIAL,24.0,,TREATMENT,2024-10-05,162
I8F-JE-GPGO-SURPASS,DA,I8F-JE-GPGO-SURPASS-JPN_SAPPORO01-0020,80,REMAMT,Remaining Amount,0.0,VIAL,0.0,0.0,VIAL,24.0,,TREATMENT,2024-10-05,162
I8F-JE-GPGO-SURPASS,DA,I8F-JE-GPGO-SURPASS-JPN_SAPPORO01-0020,81,RETAMT,Returned Amount,0.0,VIAL,0.0,0.0,VIAL,24.0,,TREATMENT,2024-10-05,162
I8F-JE-GPGO-SURPASS,DA,I8F-JE-GPGO-SURPASS-JPN_SAPPORO01-0020,82,DISPAMT,Dispensed Amount,1.0,VIAL,1.0,1.0,VIAL,26.0,,TREATMENT,2024-10-19,176
I8F-JE-GPGO-SURPASS,DA,I8F-JE-GPGO-SURPASS-JPN_SAPPORO01-0020,83,REMAMT,Remaining Amount,0.0,VIAL,0.0,0.0,VIAL,26.0,,TREATMENT,2024-10-19,176
I8F-JE-GPGO-SURPASS,DA,I8F-JE-GPGO-SURPASS-JPN_SAPPORO01-0020,84,RETAMT,Returned Amount,0.0,VIAL,0.0,0.0,VIAL,26.0,,TREATMENT,2024-10-19,176
I8F-JE-GPGO-SURPASS,DA,I8F-JE-GPGO-SURPASS-JPN_SAPPORO01-0020,85,DISPAMT,Dispensed Amount,1.0,VIAL,1.0,1.0,VIAL,27.0,,TREATMENT,2024-10-26,183
I8F-JE-GPGO-SURPASS,DA,I8F-JE-GPGO-SURPASS-JPN_SAPPORO01-0020,86,REMAMT,Remaining Amount,0.0,VIAL,0.0,0.0,VIAL,27.0,,TREATMENT,2024-10-26,183
I8F-JE-GPGO-SURPASS,DA,I8F-JE-GPGO-SURPASS-JPN_SAPPORO01-0020,87,RETAMT,Returned Amount,0.0,VIAL,0.0,0.0,VIAL,27.0,,TREATMENT,2024-10-26,183
I8F-JE-GPGO-SURPASS,DA,I8F-JE-GPGO-SURPASS-JPN_SAPPORO01-0020,88,DISPAMT,Dispensed Amount,1.0,VIAL,1.0,1.0,VIAL,28.0,,TREATMENT,2024-11-02,190
I8F-JE-GPGO-SURPASS,DA,I8F-JE-GPGO-SURPASS-JPN_SAPPORO01-0020,89,REMAMT,Remaining Amount,0.0,VIAL,0.0,0.0,VIAL,28.0,,TREATMENT,2024-11-02,190
I8F-JE-GPGO-SURPASS,DA,I8F-JE-GPGO-SURPASS-JPN_SAPPORO01-0020,90,RETAMT,Returned Amount,0.0,VIAL,0.0,0.0,VIAL,28.0,,TREATMENT,2024-11-02,190
I8F-JE-GPGO-SURPASS,DA,I8F-JE-GPGO-SURPASS-JPN_SAPPORO01-0020,91,DISPAMT,Dispensed Amount,1.0,VIAL,1.0,1.0,VIAL,29.0,,TREATMENT,2024-11-09,197
I8F-JE-GPGO-SURPASS,DA,I8F-JE-GPGO-SURPASS-JPN_SAPPORO01-0020,92,REMAMT,Remaining Amount,0.0,VIAL,0.0,0.0,VIAL,29.0,,TREATMENT,2024-11-09,197
I8F-JE-GPGO-SURPASS,DA,I8F-JE-GPGO-SURPASS-JPN_SAPPORO01-0020,93,RETAMT,Returned Amount,0.0,VIAL,0.0,0.0,VIAL,29.0,,TREATMENT,2024-11-09,197
I8F-JE-GPGO-SURPASS,DA,I8F-JE-GPGO-SURPASS-JPN_SAPPORO01-0020,94,DISPAMT,Dispensed Amount,1.0,VIAL,1.0,1.0,VIAL,30.0,,TREATMENT,2024-11-16,204
I8F-JE-GPGO-SURPASS,DA,I8F-JE-GPGO-SURPASS-JPN_SAPPORO01-0020,95,REMAMT,Remaining Amount,0.0,VIAL,0.0,0.0,VIAL,30.0,,TREATMENT,2024-11-16,204
I8F-JE-GPGO-SURPASS,DA,I8F-JE-GPGO-SURPASS-JPN_SAPPORO01-0020,96,RETAMT,Returned Amount,0.0,VIAL,0.0,0.0,VIAL,30.0,,TREATMENT,2024-11-16,204
I8F-JE-GPGO-SURPASS,DA,I8F-JE-GPGO-SURPASS-JPN_SAPPORO01-0020,97,DISPAMT,Dispensed Amount,1.0,VIAL,1.0,1.0,VIAL,31.0,,TREATMENT,2024-11-23,211
I8F-JE-GPGO-SURPASS,DA,I8F-JE-GPGO-SURPASS-JPN_SAPPORO01-0020,98,REMAMT,Remaining Amount,0.0,VIAL,0.0,0.0,VIAL,31.0,,TREATMENT,2024-11-23,211
I8F-JE-GPGO-SURPASS,DA,I8F-JE-GPGO-SURPASS-JPN_SAPPORO01-0020,99,RETAMT,Returned Amount,0.0,VIAL,0.0,0.0,VIAL,31.0,,TREATMENT,2024-11-23,211
I8F-JE-GPGO-SURPASS,DA,I8F-JE-GPGO-SURPASS-JPN_SAPPORO01-0020,100,DISPAMT,Dispensed Amount,1.0,VIAL,1.0,1.0,VIAL,32.0,,TREATMENT,2024-11-30,218
I8F-JE-GPGO-SURPASS,DA,I8F-JE-GPGO-SURPASS-JPN_SAPPORO01-0020,101,REMAMT,Remaining Amount,0.0,VIAL,0.0,0.0,VIAL,32.0,,TREATMENT,2024-11-30,218
I8F-JE-GPGO-SURPASS,DA,I8F-JE-GPGO-SURPASS-JPN_SAPPORO01-0020,102,RETAMT,Returned Amount,0.0,VIAL,0.0,0.0,VIAL,32.0,,TREATMENT,2024-11-30,218
I8F-JE-GPGO-SURPASS,DA,I8F-JE-GPGO-SURPASS-JPN_SAPPORO01-0020,103,DISPAMT,Dispensed Amount,1.0,VIAL,1.0,1.0,VIAL,34.0,,TREATMENT,2024-12-14,232
I8F-JE-GPGO-SURPASS,DA,I8F-JE-GPGO-SURPASS-JPN_SAPPORO01-0020,104,REMAMT,Remaining Amount,0.0,VIAL,0.0,0.0,VIAL,34.0,,TREATMENT,2024-12-14,232
I8F-JE-GPGO-SURPASS,DA,I8F-JE-GPGO-SURPASS-JPN_SAPPORO01-0020,105,RETAMT,Returned Amount,0.0,VIAL,0.0,0.0,VIAL,34.0,,TREATMENT,2024-12-14,232
I8F-JE-GPGO-SURPASS,DA,I8F-JE-GPGO-SURPASS-JPN_SAPPORO01-0020,106,DISPAMT,Dispensed Amount,1.0,VIAL,1.0,1.0,VIAL,35.0,,TREATMENT,2024-12-21,239
I8F-JE-GPGO-SURPASS,DA,I8F-JE-GPGO-SURPASS-JPN_SAPPORO01-0020,107,REMAMT,Remaining Amount,0.0,VIAL,0.0,0.0,VIAL,35.0,,TREATMENT,2024-12-21,239
I8F-JE-GPGO-SURPASS,DA,I8F-JE-GPGO-SURPASS-JPN_SAPPORO01-0020,108,RETAMT,Returned Amount,0.0,VIAL,0.0,0.0,VIAL,35.0,,TREATMENT,2024-12-21,239
I8F-JE-GPGO-SURPASS,DA,I8F-JE-GPGO-SURPASS-JPN_SAPPORO01-0020,109,DISPAMT,Dispensed Amount,1.0,VIAL,1.0,1.0,VIAL,36.0,,TREATMENT,2024-12-28,246
I8F-JE-GPGO-SURPASS,DA,I8F-JE-GPGO-SURPASS-JPN_SAPPORO01-0020,110,REMAMT,Remaining Amount,0.0,VIAL,0.0,0.0,VIAL,36.0,,TREATMENT,2024-12-28,246
I8F-JE-GPGO-SURPASS,DA,I8F-JE-GPGO-SURPASS-JPN_SAPPORO01-0020,111,RETAMT,Returned Amount,0.0,VIAL,0.0,0.0,VIAL,36.0,,TREATMENT,2024-12-28,246
I8F-JE-GPGO-SURPASS,DA,I8F-JE-GPGO-SURPASS-JPN_SAPPORO01-0020,112,DISPAMT,Dispensed Amount,1.0,VIAL,1.0,1.0,VIAL,37.0,,TREATMENT,2025-01-04,253
I8F-JE-GPGO-SURPASS,DA,I8F-JE-GPGO-SURPASS-JPN_SAPPORO01-0020,113,REMAMT,Remaining Amount,0.0,VIAL,0.0,0.0,VIAL,37.0,,TREATMENT,2025-01-04,253
I8F-JE-GPGO-SURPASS,DA,I8F-JE-GPGO-SURPASS-JPN_SAPPORO01-0020,114,RETAMT,Returned Amount,0.0,VIAL,0.0,0.0,VIAL,37.0,,TREATMENT,2025-01-04,253
I8F-JE-GPGO-SURPASS,DA,I8F-JE-GPGO-SURPASS-JPN_SAPPORO01-0020,115,DISPAMT,Dispensed Amount,1.0,VIAL,1.0,1.0,VIAL,38.0,,TREATMENT,2025-01-11,260
I8F-JE-GPGO-SURPASS,DA,I8F-JE-GPGO-SURPASS-JPN_SAPPORO01-0020,116,REMAMT,Remaining Amount,0.0,VIAL,0.0,0.0,VIAL,38.0,,TREATMENT,2025-01-11,260
I8F-JE-GPGO-SURPASS,DA,I8F-JE-GPGO-SURPASS-JPN_SAPPORO01-0020,117,RETAMT,Returned Amount,0.0,VIAL,0.0,0.0,VIAL,38.0,,TREATMENT,2025-01-11,260
I8F-JE-GPGO-SURPASS,DA,I8F-JE-GPGO-SURPASS-JPN_SAPPORO01-0020,118,DISPAMT,Dispensed Amount,1.0,VIAL,1.0,1.0,VIAL,39.0,,TREATMENT,2025-01-18,267
I8F-JE-GPGO-SURPASS,DA,I8F-JE-GPGO-SURPASS-JPN_SAPPORO01-0020,119,REMAMT,Remaining Amount,0.0,VIAL,0.0,0.0,VIAL,39.0,,TREATMENT,2025-01-18,267
