STUDYID,DOMAIN,USUBJID,SUBJID,RFSTDTC,RFENDTC,RFXSTDTC,RFXENDTC,RFICDTC,RFPENDTC,DTHDTC,DTHFL,SITEID,INVNAM,BRTHDTC,AGE,AGEU,SEX,RACE,ETHNIC,ARMCD,ARM,ACTARMCD,ACTARM,ARMNRS,ACTARMUD,COUNTRY
I8F-JE-GPGO-SURPASS,DM,I8F-JE-GPGO-SURPASS-JPN_FUKUOKA01-0005,0005,2024-04-11,2024-05-12,2024-04-11,2024-05-09,2024-03-28,2024-05-12,,,JPN_FUKUOKA01,Dr. Investigator JPN_FUKUOKA01,1973,51,YEARS,F,ASIAN,NOT HISPANIC OR LATINO,TIRZ_15,Tirzepatide 15 mg QW SC (target),TIRZ_15,Tirzepatide 15 mg QW SC (target),,,JPN
I8F-JE-GPGO-SURPASS,DM,I8F-JE-GPGO-SURPASS-JPN_FUKUOKA01-0010,0010,2024-03-24,2024-09-23,2024-03-24,2024-09-22,2024-03-11,2024-09-23,,,JPN_FUKUOKA01,Dr. Investigator JPN_FUKUOKA01,1954,70,YEARS,M,ASIAN,NOT HISPANIC OR LATINO,TIRZ_10,Tirzepatide 10 mg QW SC (target),TIRZ_10,Tirzepatide 10 mg QW SC (target),,,JPN
I8F-JE-GPGO-SURPASS,DM,I8F-JE-GPGO-SURPASS-JPN_FUKUOKA01-0013,0013,2024-03-26,2024-05-01,2024-03-26,2024-04-30,2024-03-04,2024-05-01,,,JPN_FUKUOKA01,Dr. Investigator JPN_FUKUOKA01,1974,50,YEARS,M,ASIAN,NOT HISPANIC OR LATINO,TIRZ_10,Tirzepatide 10 mg QW SC (target),TIRZ_10,Tirzepatide 10 mg QW SC (target),,,JPN
I8F-JE-GPGO-SURPASS,DM,I8F-JE-GPGO-SURPASS-JPN_FUKUOKA01-0014,0014,,,,,2024-02-17,,,,JPN_FUKUOKA01,Dr. Investigator JPN_FUKUOKA01,1968,56,YEARS,M,ASIAN,NOT HISPANIC OR LATINO,,,,,SCREEN FAILURE,,JPN
I8F-JE-GPGO-SURPASS,DM,I8F-JE-GPGO-SURPASS-JPN_FUKUOKA01-0015,0015,2024-05-01,2025-06-24,2024-05-01,2025-04-23,2024-03-28,2025-06-24,,,JPN_FUKUOKA01,Dr. Investigator JPN_FUKUOKA01,1976,48,YEARS,M,ASIAN,NOT HISPANIC OR LATINO,TIRZ_15,Tirzepatide 15 mg QW SC (target),TIRZ_15,Tirzepatide 15 mg QW SC (target),,,JPN
I8F-JE-GPGO-SURPASS,DM,I8F-JE-GPGO-SURPASS-JPN_FUKUOKA01-0017,0017,2024-03-22,2024-08-17,2024-03-22,2024-08-16,2024-02-18,2024-08-17,,,JPN_FUKUOKA01,Dr. Investigator JPN_FUKUOKA01,1973,51,YEARS,F,ASIAN,NOT HISPANIC OR LATINO,TIRZ_15,Tirzepatide 15 mg QW SC (target),TIRZ_15,Tirzepatide 15 mg QW SC (target),,,JPN
I8F-JE-GPGO-SURPASS,DM,I8F-JE-GPGO-SURPASS-JPN_HIROSHIMA01-0011,0011,2024-05-09,2024-08-31,2024-05-09,2024-08-29,2024-04-08,2024-08-31,,,JPN_HIROSHIMA01,Dr. Investigator JPN_HIROSHIMA01,1978,46,YEARS,F,ASIAN,NOT HISPANIC OR LATINO,TIRZ_15,Tirzepatide 15 mg QW SC (target),TIRZ_15,Tirzepatide 15 mg QW SC (target),,,JPN
I8F-JE-GPGO-SURPASS,DM,I8F-JE-GPGO-SURPASS-JPN_HIROSHIMA01-0019,0019,2024-05-16,2025-07-09,2024-05-16,2025-05-08,2024-04-13,2025-07-09,,,JPN_HIROSHIMA01,Dr. Investigator JPN_HIROSHIMA01,1972,52,YEARS,M,ASIAN,NOT HISPANIC OR LATINO,TIRZ_15,Tirzepatide 15 mg QW SC (target),TIRZ_15,Tirzepatide 15 mg QW SC (target),,,JPN
I8F-JE-GPGO-SURPASS,DM,I8F-JE-GPGO-SURPASS-JPN_KAWASAKI01-0018,0018,2024-03-20,2025-05-13,2024-03-20,2025-03-12,2024-02-25,2025-05-13,,,JPN_KAWASAKI01,Dr. Investigator JPN_KAWASAKI01,1971,53,YEARS,F,ASIAN,NOT HISPANIC OR LATINO,TIRZ_10,Tirzepatide 10 mg QW SC (target),TIRZ_10,Tirzepatide 10 mg QW SC (target),,,JPN
I8F-JE-GPGO-SURPASS,DM,I8F-JE-GPGO-SURPASS-JPN_KYOTO01-0003,0003,2024-03-13,2024-08-23,2024-03-13,2024-08-21,2024-02-11,2024-08-23,,,JPN_KYOTO01,Dr. Investigator JPN_KYOTO01,1962,62,YEARS,M,ASIAN,NOT HISPANIC OR LATINO,TIRZ_5,Tirzepatide 5 mg QW SC (target),TIRZ_5,Tirzepatide 5 mg QW SC (target),,,JPN
I8F-JE-GPGO-SURPASS,DM,I8F-JE-GPGO-SURPASS-JPN_KYOTO01-0004,0004,2024-03-28,2025-05-21,2024-03-28,2025-03-20,2024-03-02,2025-05-21,,,JPN_KYOTO01,Dr. Investigator JPN_KYOTO01,1972,52,YEARS,M,ASIAN,NOT HISPANIC OR LATINO,TIRZ_10,Tirzepatide 10 mg QW SC (target),TIRZ_10,Tirzepatide 10 mg QW SC (target),,,JPN
I8F-JE-GPGO-SURPASS,DM,I8F-JE-GPGO-SURPASS-JPN_KYOTO01-0007,0007,2024-03-28,2024-07-09,2024-03-28,2024-06-27,2024-02-29,2024-07-09,,,JPN_KYOTO01,Dr. Investigator JPN_KYOTO01,1966,58,YEARS,F,ASIAN,NOT HISPANIC OR LATINO,DULA_075,Dulaglutide 0.75 mg QW SC (active control),DULA_075,Dulaglutide 0.75 mg QW SC (active control),,,JPN
I8F-JE-GPGO-SURPASS,DM,I8F-JE-GPGO-SURPASS-JPN_NAGOYA01-0001,0001,2024-04-25,2025-06-18,2024-04-25,2025-04-17,2024-03-24,2025-06-18,,,JPN_NAGOYA01,Dr. Investigator JPN_NAGOYA01,1977,47,YEARS,F,ASIAN,NOT HISPANIC OR LATINO,TIRZ_5,Tirzepatide 5 mg QW SC (target),TIRZ_5,Tirzepatide 5 mg QW SC (target),,,JPN
I8F-JE-GPGO-SURPASS,DM,I8F-JE-GPGO-SURPASS-JPN_OSAKA01-0002,0002,2024-02-25,2025-04-19,2024-02-25,2025-02-16,2024-01-25,2025-04-19,,,JPN_OSAKA01,Dr. Investigator JPN_OSAKA01,1982,42,YEARS,M,ASIAN,NOT HISPANIC OR LATINO,TIRZ_15,Tirzepatide 15 mg QW SC (target),TIRZ_15,Tirzepatide 15 mg QW SC (target),,,JPN
I8F-JE-GPGO-SURPASS,DM,I8F-JE-GPGO-SURPASS-JPN_SAPPORO01-0020,0020,2024-04-27,2025-06-20,2024-04-27,2025-04-19,2024-04-02,2025-06-20,,,JPN_SAPPORO01,Dr. Investigator JPN_SAPPORO01,1985,39,YEARS,M,ASIAN,NOT HISPANIC OR LATINO,TIRZ_10,Tirzepatide 10 mg QW SC (target),TIRZ_10,Tirzepatide 10 mg QW SC (target),,,JPN
I8F-JE-GPGO-SURPASS,DM,I8F-JE-GPGO-SURPASS-JPN_SENDAI01-0006,0006,2024-03-06,2025-04-29,2024-03-06,2025-02-26,2024-02-20,2025-04-29,,,JPN_SENDAI01,Dr. Investigator JPN_SENDAI01,1962,62,YEARS,M,ASIAN,NOT HISPANIC OR LATINO,TIRZ_15,Tirzepatide 15 mg QW SC (target),TIRZ_15,Tirzepatide 15 mg QW SC (target),,,JPN
I8F-JE-GPGO-SURPASS,DM,I8F-JE-GPGO-SURPASS-JPN_SENDAI01-0009,0009,2024-03-03,2025-04-26,2024-03-03,2025-02-16,2024-02-17,2025-04-26,,,JPN_SENDAI01,Dr. Investigator JPN_SENDAI01,1970,54,YEARS,F,ASIAN,NOT HISPANIC OR LATINO,TIRZ_15,Tirzepatide 15 mg QW SC (target),TIRZ_15,Tirzepatide 15 mg QW SC (target),,,JPN
I8F-JE-GPGO-SURPASS,DM,I8F-JE-GPGO-SURPASS-JPN_SENDAI01-0012,0012,2024-04-30,2024-09-24,2024-04-30,2024-09-24,2024-04-09,2024-09-24,,,JPN_SENDAI01,Dr. Investigator JPN_SENDAI01,1976,48,YEARS,F,ASIAN,NOT HISPANIC OR LATINO,TIRZ_10,Tirzepatide 10 mg QW SC (target),TIRZ_10,Tirzepatide 10 mg QW SC (target),,,JPN
I8F-JE-GPGO-SURPASS,DM,I8F-JE-GPGO-SURPASS-JPN_TOKYO01-0008,0008,2024-04-11,2024-09-01,2024-04-11,2024-08-29,2024-03-18,2024-09-01,,,JPN_TOKYO01,Dr. Investigator JPN_TOKYO01,1965,59,YEARS,F,ASIAN,NOT HISPANIC OR LATINO,TIRZ_15,Tirzepatide 15 mg QW SC (target),TIRZ_15,Tirzepatide 15 mg QW SC (target),,,JPN
I8F-JE-GPGO-SURPASS,DM,I8F-JE-GPGO-SURPASS-JPN_TOKYO01-0016,0016,2024-04-10,2025-06-03,2024-04-10,2025-04-02,2024-03-18,2025-06-03,,,JPN_TOKYO01,Dr. Investigator JPN_TOKYO01,1984,40,YEARS,M,ASIAN,NOT HISPANIC OR LATINO,DULA_075,Dulaglutide 0.75 mg QW SC (active control),DULA_075,Dulaglutide 0.75 mg QW SC (active control),,,JPN
