STUDYID,DOMAIN,USUBJID,ECSEQ,ECTRT,ECMOOD,ECPRESP,ECOCCUR,ECSTAT,ECREASND,ECDOSE,ECDOSTXT,ECDOSU,ECDOSFRM,ECDOSFRQ,ECROUTE,VISITNUM,VISIT,EPOCH,ECSTDTC,ECENDTC,ECSTDY,ECENDY
I8F-JE-GPGO-SURPASS,EC,I8F-JE-GPGO-SURPASS-JPN_FUKUOKA01-0005,1,TIRZEPATIDE,PERFORMED,Y,Y,,,2.5,,mg,INJECTION,QW,SUBCUTANEOUS,2.0,BASELINE,TREATMENT,2024-04-11,2024-04-11,1,1
I8F-JE-GPGO-SURPASS,EC,I8F-JE-GPGO-SURPASS-JPN_FUKUOKA01-0005,2,TIRZEPATIDE,PERFORMED,Y,Y,,,2.5,,mg,INJECTION,QW,SUBCUTANEOUS,2.0,,TREATMENT,2024-04-18,2024-04-18,8,8
I8F-JE-GPGO-SURPASS,EC,I8F-JE-GPGO-SURPASS-JPN_FUKUOKA01-0005,3,TIRZEPATIDE,PERFORMED,Y,Y,,,2.5,,mg,INJECTION,QW,SUBCUTANEOUS,3.0,,TREATMENT,2024-04-25,2024-04-25,15,15
I8F-JE-GPGO-SURPASS,EC,I8F-JE-GPGO-SURPASS-JPN_FUKUOKA01-0005,4,TIRZEPATIDE,PERFORMED,Y,Y,,,2.5,,mg,INJECTION,QW,SUBCUTANEOUS,4.0,,TREATMENT,2024-05-02,2024-05-02,22,22
I8F-JE-GPGO-SURPASS,EC,I8F-JE-GPGO-SURPASS-JPN_FUKUOKA01-0005,5,TIRZEPATIDE,PERFORMED,Y,Y,,,5.0,,mg,INJECTION,QW,SUBCUTANEOUS,3.0,WEEK 4,TREATMENT,2024-05-09,2024-05-09,29,29
I8F-JE-GPGO-SURPASS,EC,I8F-JE-GPGO-SURPASS-JPN_FUKUOKA01-0010,1,TIRZEPATIDE,PERFORMED,Y,Y,,,2.5,,mg,INJECTION,QW,SUBCUTANEOUS,2.0,BASELINE,TREATMENT,2024-03-24,2024-03-24,1,1
I8F-JE-GPGO-SURPASS,EC,I8F-JE-GPGO-SURPASS-JPN_FUKUOKA01-0010,2,TIRZEPATIDE,PERFORMED,Y,Y,,,2.5,,mg,INJECTION,QW,SUBCUTANEOUS,2.0,,TREATMENT,2024-03-31,2024-03-31,8,8
I8F-JE-GPGO-SURPASS,EC,I8F-JE-GPGO-SURPASS-JPN_FUKUOKA01-0010,3,TIRZEPATIDE,SCHEDULED,Y,,NOT DONE,SUBJECT NON-COMPLIANCE,,,mg,INJECTION,QW,SUBCUTANEOUS,3.0,,TREATMENT,2024-04-07,2024-04-07,15,15
I8F-JE-GPGO-SURPASS,EC,I8F-JE-GPGO-SURPASS-JPN_FUKUOKA01-0010,4,TIRZEPATIDE,PERFORMED,Y,Y,,,2.5,,mg,INJECTION,QW,SUBCUTANEOUS,4.0,,TREATMENT,2024-04-14,2024-04-14,22,22
I8F-JE-GPGO-SURPASS,EC,I8F-JE-GPGO-SURPASS-JPN_FUKUOKA01-0010,5,TIRZEPATIDE,PERFORMED,Y,Y,,,5.0,,mg,INJECTION,QW,SUBCUTANEOUS,3.0,WEEK 4,TREATMENT,2024-04-21,2024-04-21,29,29
I8F-JE-GPGO-SURPASS,EC,I8F-JE-GPGO-SURPASS-JPN_FUKUOKA01-0010,6,TIRZEPATIDE,PERFORMED,Y,Y,,,5.0,,mg,INJECTION,QW,SUBCUTANEOUS,6.0,,TREATMENT,2024-04-28,2024-04-28,36,36
I8F-JE-GPGO-SURPASS,EC,I8F-JE-GPGO-SURPASS-JPN_FUKUOKA01-0010,7,TIRZEPATIDE,PERFORMED,Y,Y,,,5.0,,mg,INJECTION,QW,SUBCUTANEOUS,7.0,,TREATMENT,2024-05-05,2024-05-05,43,43
I8F-JE-GPGO-SURPASS,EC,I8F-JE-GPGO-SURPASS-JPN_FUKUOKA01-0010,8,TIRZEPATIDE,PERFORMED,Y,Y,,,5.0,,mg,INJECTION,QW,SUBCUTANEOUS,8.0,,TREATMENT,2024-05-12,2024-05-12,50,50
I8F-JE-GPGO-SURPASS,EC,I8F-JE-GPGO-SURPASS-JPN_FUKUOKA01-0010,9,TIRZEPATIDE,PERFORMED,Y,Y,,,7.5,,mg,INJECTION,QW,SUBCUTANEOUS,4.0,WEEK 8,TREATMENT,2024-05-19,2024-05-19,57,57
I8F-JE-GPGO-SURPASS,EC,I8F-JE-GPGO-SURPASS-JPN_FUKUOKA01-0010,10,TIRZEPATIDE,SCHEDULED,Y,,NOT DONE,SUBJECT NON-COMPLIANCE,,,mg,INJECTION,QW,SUBCUTANEOUS,10.0,,TREATMENT,2024-05-26,2024-05-26,64,64
I8F-JE-GPGO-SURPASS,EC,I8F-JE-GPGO-SURPASS-JPN_FUKUOKA01-0010,11,TIRZEPATIDE,PERFORMED,Y,Y,,,7.5,,mg,INJECTION,QW,SUBCUTANEOUS,11.0,,TREATMENT,2024-06-02,2024-06-02,71,71
I8F-JE-GPGO-SURPASS,EC,I8F-JE-GPGO-SURPASS-JPN_FUKUOKA01-0010,12,TIRZEPATIDE,PERFORMED,Y,Y,,,7.5,,mg,INJECTION,QW,SUBCUTANEOUS,12.0,,TREATMENT,2024-06-09,2024-06-09,78,78
I8F-JE-GPGO-SURPASS,EC,I8F-JE-GPGO-SURPASS-JPN_FUKUOKA01-0010,13,TIRZEPATIDE,SCHEDULED,Y,,NOT DONE,SUBJECT NON-COMPLIANCE,,,mg,INJECTION,QW,SUBCUTANEOUS,5.0,WEEK 12,TREATMENT,2024-06-16,2024-06-16,85,85
I8F-JE-GPGO-SURPASS,EC,I8F-JE-GPGO-SURPASS-JPN_FUKUOKA01-0010,14,TIRZEPATIDE,PERFORMED,Y,Y,,,10.0,,mg,INJECTION,QW,SUBCUTANEOUS,14.0,,TREATMENT,2024-06-23,2024-06-23,92,92
I8F-JE-GPGO-SURPASS,EC,I8F-JE-GPGO-SURPASS-JPN_FUKUOKA01-0010,15,TIRZEPATIDE,PERFORMED,Y,Y,,,10.0,,mg,INJECTION,QW,SUBCUTANEOUS,15.0,,TREATMENT,2024-06-30,2024-06-30,99,99
I8F-JE-GPGO-SURPASS,EC,I8F-JE-GPGO-SURPASS-JPN_FUKUOKA01-0010,16,TIRZEPATIDE,PERFORMED,Y,Y,,,10.0,,mg,INJECTION,QW,SUBCUTANEOUS,16.0,,TREATMENT,2024-07-07,2024-07-07,106,106
I8F-JE-GPGO-SURPASS,EC,I8F-JE-GPGO-SURPASS-JPN_FUKUOKA01-0010,17,TIRZEPATIDE,PERFORMED,Y,Y,,,10.0,,mg,INJECTION,QW,SUBCUTANEOUS,6.0,WEEK 16,TREATMENT,2024-07-14,2024-07-14,113,113
I8F-JE-GPGO-SURPASS,EC,I8F-JE-GPGO-SURPASS-JPN_FUKUOKA01-0010,18,TIRZEPATIDE,PERFORMED,Y,Y,,,10.0,,mg,INJECTION,QW,SUBCUTANEOUS,18.0,,TREATMENT,2024-07-21,2024-07-21,120,120
I8F-JE-GPGO-SURPASS,EC,I8F-JE-GPGO-SURPASS-JPN_FUKUOKA01-0010,19,TIRZEPATIDE,SCHEDULED,Y,,NOT DONE,SUBJECT NON-COMPLIANCE,,,mg,INJECTION,QW,SUBCUTANEOUS,19.0,,TREATMENT,2024-07-28,2024-07-28,127,127
I8F-JE-GPGO-SURPASS,EC,I8F-JE-GPGO-SURPASS-JPN_FUKUOKA01-0010,20,TIRZEPATIDE,PERFORMED,Y,Y,,,10.0,,mg,INJECTION,QW,SUBCUTANEOUS,20.0,,TREATMENT,2024-08-04,2024-08-04,134,134
I8F-JE-GPGO-SURPASS,EC,I8F-JE-GPGO-SURPASS-JPN_FUKUOKA01-0010,21,TIRZEPATIDE,PERFORMED,Y,Y,,,10.0,,mg,INJECTION,QW,SUBCUTANEOUS,7.0,WEEK 20,TREATMENT,2024-08-11,2024-08-11,141,141
I8F-JE-GPGO-SURPASS,EC,I8F-JE-GPGO-SURPASS-JPN_FUKUOKA01-0010,22,TIRZEPATIDE,PERFORMED,Y,Y,,,10.0,,mg,INJECTION,QW,SUBCUTANEOUS,22.0,,TREATMENT,2024-08-18,2024-08-18,148,148
I8F-JE-GPGO-SURPASS,EC,I8F-JE-GPGO-SURPASS-JPN_FUKUOKA01-0010,23,TIRZEPATIDE,PERFORMED,Y,Y,,,10.0,,mg,INJECTION,QW,SUBCUTANEOUS,23.0,,TREATMENT,2024-08-25,2024-08-25,155,155
I8F-JE-GPGO-SURPASS,EC,I8F-JE-GPGO-SURPASS-JPN_FUKUOKA01-0010,24,TIRZEPATIDE,PERFORMED,Y,Y,,,10.0,,mg,INJECTION,QW,SUBCUTANEOUS,24.0,,TREATMENT,2024-09-01,2024-09-01,162,162
I8F-JE-GPGO-SURPASS,EC,I8F-JE-GPGO-SURPASS-JPN_FUKUOKA01-0010,25,TIRZEPATIDE,SCHEDULED,Y,,NOT DONE,SUBJECT NON-COMPLIANCE,,,mg,INJECTION,QW,SUBCUTANEOUS,8.0,WEEK 24,TREATMENT,2024-09-08,2024-09-08,169,169
I8F-JE-GPGO-SURPASS,EC,I8F-JE-GPGO-SURPASS-JPN_FUKUOKA01-0010,26,TIRZEPATIDE,SCHEDULED,Y,,NOT DONE,SUBJECT NON-COMPLIANCE,,,mg,INJECTION,QW,SUBCUTANEOUS,26.0,,TREATMENT,2024-09-15,2024-09-15,176,176
I8F-JE-GPGO-SURPASS,EC,I8F-JE-GPGO-SURPASS-JPN_FUKUOKA01-0010,27,TIRZEPATIDE,PERFORMED,Y,Y,,,10.0,,mg,INJECTION,QW,SUBCUTANEOUS,27.0,,TREATMENT,2024-09-22,2024-09-22,183,183
I8F-JE-GPGO-SURPASS,EC,I8F-JE-GPGO-SURPASS-JPN_FUKUOKA01-0013,1,TIRZEPATIDE,PERFORMED,Y,Y,,,2.5,,mg,INJECTION,QW,SUBCUTANEOUS,2.0,BASELINE,TREATMENT,2024-03-26,2024-03-26,1,1
I8F-JE-GPGO-SURPASS,EC,I8F-JE-GPGO-SURPASS-JPN_FUKUOKA01-0013,2,TIRZEPATIDE,PERFORMED,Y,Y,,,2.5,,mg,INJECTION,QW,SUBCUTANEOUS,2.0,,TREATMENT,2024-04-02,2024-04-02,8,8
I8F-JE-GPGO-SURPASS,EC,I8F-JE-GPGO-SURPASS-JPN_FUKUOKA01-0013,3,TIRZEPATIDE,PERFORMED,Y,Y,,,2.5,,mg,INJECTION,QW,SUBCUTANEOUS,3.0,,TREATMENT,2024-04-09,2024-04-09,15,15
I8F-JE-GPGO-SURPASS,EC,I8F-JE-GPGO-SURPASS-JPN_FUKUOKA01-0013,4,TIRZEPATIDE,PERFORMED,Y,Y,,,2.5,,mg,INJECTION,QW,SUBCUTANEOUS,4.0,,TREATMENT,2024-04-16,2024-04-16,22,22
I8F-JE-GPGO-SURPASS,EC,I8F-JE-GPGO-SURPASS-JPN_FUKUOKA01-0013,5,TIRZEPATIDE,PERFORMED,Y,Y,,,5.0,,mg,INJECTION,QW,SUBCUTANEOUS,3.0,WEEK 4,TREATMENT,2024-04-23,2024-04-23,29,29
I8F-JE-GPGO-SURPASS,EC,I8F-JE-GPGO-SURPASS-JPN_FUKUOKA01-0013,6,TIRZEPATIDE,PERFORMED,Y,Y,,,5.0,,mg,INJECTION,QW,SUBCUTANEOUS,6.0,,TREATMENT,2024-04-30,2024-04-30,36,36
I8F-JE-GPGO-SURPASS,EC,I8F-JE-GPGO-SURPASS-JPN_FUKUOKA01-0015,1,TIRZEPATIDE,PERFORMED,Y,Y,,,2.5,,mg,INJECTION,QW,SUBCUTANEOUS,2.0,BASELINE,TREATMENT,2024-05-01,2024-05-01,1,1
I8F-JE-GPGO-SURPASS,EC,I8F-JE-GPGO-SURPASS-JPN_FUKUOKA01-0015,2,TIRZEPATIDE,PERFORMED,Y,Y,,,2.5,,mg,INJECTION,QW,SUBCUTANEOUS,2.0,,TREATMENT,2024-05-08,2024-05-08,8,8
I8F-JE-GPGO-SURPASS,EC,I8F-JE-GPGO-SURPASS-JPN_FUKUOKA01-0015,3,TIRZEPATIDE,PERFORMED,Y,Y,,,2.5,,mg,INJECTION,QW,SUBCUTANEOUS,3.0,,TREATMENT,2024-05-15,2024-05-15,15,15
I8F-JE-GPGO-SURPASS,EC,I8F-JE-GPGO-SURPASS-JPN_FUKUOKA01-0015,4,TIRZEPATIDE,PERFORMED,Y,Y,,,2.5,,mg,INJECTION,QW,SUBCUTANEOUS,4.0,,TREATMENT,2024-05-22,2024-05-22,22,22
I8F-JE-GPGO-SURPASS,EC,I8F-JE-GPGO-SURPASS-JPN_FUKUOKA01-0015,5,TIRZEPATIDE,PERFORMED,Y,Y,,,5.0,,mg,INJECTION,QW,SUBCUTANEOUS,3.0,WEEK 4,TREATMENT,2024-05-29,2024-05-29,29,29
I8F-JE-GPGO-SURPASS,EC,I8F-JE-GPGO-SURPASS-JPN_FUKUOKA01-0015,6,TIRZEPATIDE,PERFORMED,Y,Y,,,5.0,,mg,INJECTION,QW,SUBCUTANEOUS,6.0,,TREATMENT,2024-06-05,2024-06-05,36,36
I8F-JE-GPGO-SURPASS,EC,I8F-JE-GPGO-SURPASS-JPN_FUKUOKA01-0015,7,TIRZEPATIDE,PERFORMED,Y,Y,,,5.0,,mg,INJECTION,QW,SUBCUTANEOUS,7.0,,TREATMENT,2024-06-12,2024-06-12,43,43
I8F-JE-GPGO-SURPASS,EC,I8F-JE-GPGO-SURPASS-JPN_FUKUOKA01-0015,8,TIRZEPATIDE,PERFORMED,Y,Y,,,5.0,,mg,INJECTION,QW,SUBCUTANEOUS,8.0,,TREATMENT,2024-06-19,2024-06-19,50,50
I8F-JE-GPGO-SURPASS,EC,I8F-JE-GPGO-SURPASS-JPN_FUKUOKA01-0015,9,TIRZEPATIDE,PERFORMED,Y,Y,,,7.5,,mg,INJECTION,QW,SUBCUTANEOUS,4.0,WEEK 8,TREATMENT,2024-06-26,2024-06-26,57,57
I8F-JE-GPGO-SURPASS,EC,I8F-JE-GPGO-SURPASS-JPN_FUKUOKA01-0015,10,TIRZEPATIDE,PERFORMED,Y,Y,,,7.5,,mg,INJECTION,QW,SUBCUTANEOUS,10.0,,TREATMENT,2024-07-03,2024-07-03,64,64
I8F-JE-GPGO-SURPASS,EC,I8F-JE-GPGO-SURPASS-JPN_FUKUOKA01-0015,11,TIRZEPATIDE,PERFORMED,Y,Y,,,7.5,,mg,INJECTION,QW,SUBCUTANEOUS,11.0,,TREATMENT,2024-07-10,2024-07-10,71,71
I8F-JE-GPGO-SURPASS,EC,I8F-JE-GPGO-SURPASS-JPN_FUKUOKA01-0015,12,TIRZEPATIDE,PERFORMED,Y,Y,,,7.5,,mg,INJECTION,QW,SUBCUTANEOUS,12.0,,TREATMENT,2024-07-17,2024-07-17,78,78
I8F-JE-GPGO-SURPASS,EC,I8F-JE-GPGO-SURPASS-JPN_FUKUOKA01-0015,13,TIRZEPATIDE,PERFORMED,Y,Y,,,10.0,,mg,INJECTION,QW,SUBCUTANEOUS,5.0,WEEK 12,TREATMENT,2024-07-24,2024-07-24,85,85
I8F-JE-GPGO-SURPASS,EC,I8F-JE-GPGO-SURPASS-JPN_FUKUOKA01-0015,14,TIRZEPATIDE,PERFORMED,Y,Y,,,10.0,,mg,INJECTION,QW,SUBCUTANEOUS,14.0,,TREATMENT,2024-07-31,2024-07-31,92,92
I8F-JE-GPGO-SURPASS,EC,I8F-JE-GPGO-SURPASS-JPN_FUKUOKA01-0015,15,TIRZEPATIDE,PERFORMED,Y,Y,,,10.0,,mg,INJECTION,QW,SUBCUTANEOUS,15.0,,TREATMENT,2024-08-07,2024-08-07,99,99
I8F-JE-GPGO-SURPASS,EC,I8F-JE-GPGO-SURPASS-JPN_FUKUOKA01-0015,16,TIRZEPATIDE,PERFORMED,Y,Y,,,10.0,,mg,INJECTION,QW,SUBCUTANEOUS,16.0,,TREATMENT,2024-08-14,2024-08-14,106,106
I8F-JE-GPGO-SURPASS,EC,I8F-JE-GPGO-SURPASS-JPN_FUKUOKA01-0015,17,TIRZEPATIDE,PERFORMED,Y,Y,,,12.5,,mg,INJECTION,QW,SUBCUTANEOUS,6.0,WEEK 16,TREATMENT,2024-08-21,2024-08-21,113,113
I8F-JE-GPGO-SURPASS,EC,I8F-JE-GPGO-SURPASS-JPN_FUKUOKA01-0015,18,TIRZEPATIDE,PERFORMED,Y,Y,,,12.5,,mg,INJECTION,QW,SUBCUTANEOUS,18.0,,TREATMENT,2024-08-28,2024-08-28,120,120
I8F-JE-GPGO-SURPASS,EC,I8F-JE-GPGO-SURPASS-JPN_FUKUOKA01-0015,19,TIRZEPATIDE,PERFORMED,Y,Y,,,12.5,,mg,INJECTION,QW,SUBCUTANEOUS,19.0,,TREATMENT,2024-09-04,2024-09-04,127,127
I8F-JE-GPGO-SURPASS,EC,I8F-JE-GPGO-SURPASS-JPN_FUKUOKA01-0015,20,TIRZEPATIDE,PERFORMED,Y,Y,,,12.5,,mg,INJECTION,QW,SUBCUTANEOUS,20.0,,TREATMENT,2024-09-11,2024-09-11,134,134
I8F-JE-GPGO-SURPASS,EC,I8F-JE-GPGO-SURPASS-JPN_FUKUOKA01-0015,21,TIRZEPATIDE,PERFORMED,Y,Y,,,15.0,,mg,INJECTION,QW,SUBCUTANEOUS,7.0,WEEK 20,TREATMENT,2024-09-18,2024-09-18,141,141
I8F-JE-GPGO-SURPASS,EC,I8F-JE-GPGO-SURPASS-JPN_FUKUOKA01-0015,22,TIRZEPATIDE,PERFORMED,Y,Y,,,15.0,,mg,INJECTION,QW,SUBCUTANEOUS,22.0,,TREATMENT,2024-09-25,2024-09-25,148,148
I8F-JE-GPGO-SURPASS,EC,I8F-JE-GPGO-SURPASS-JPN_FUKUOKA01-0015,23,TIRZEPATIDE,PERFORMED,Y,Y,,,15.0,,mg,INJECTION,QW,SUBCUTANEOUS,23.0,,TREATMENT,2024-10-02,2024-10-02,155,155
I8F-JE-GPGO-SURPASS,EC,I8F-JE-GPGO-SURPASS-JPN_FUKUOKA01-0015,24,TIRZEPATIDE,PERFORMED,Y,Y,,,15.0,,mg,INJECTION,QW,SUBCUTANEOUS,24.0,,TREATMENT,2024-10-09,2024-10-09,162,162
I8F-JE-GPGO-SURPASS,EC,I8F-JE-GPGO-SURPASS-JPN_FUKUOKA01-0015,25,TIRZEPATIDE,PERFORMED,Y,Y,,,15.0,,mg,INJECTION,QW,SUBCUTANEOUS,8.0,WEEK 24,TREATMENT,2024-10-16,2024-10-16,169,169
I8F-JE-GPGO-SURPASS,EC,I8F-JE-GPGO-SURPASS-JPN_FUKUOKA01-0015,26,TIRZEPATIDE,PERFORMED,Y,Y,,,15.0,,mg,INJECTION,QW,SUBCUTANEOUS,26.0,,TREATMENT,2024-10-23,2024-10-23,176,176
I8F-JE-GPGO-SURPASS,EC,I8F-JE-GPGO-SURPASS-JPN_FUKUOKA01-0015,27,TIRZEPATIDE,PERFORMED,Y,Y,,,15.0,,mg,INJECTION,QW,SUBCUTANEOUS,27.0,,TREATMENT,2024-10-30,2024-10-30,183,183
I8F-JE-GPGO-SURPASS,EC,I8F-JE-GPGO-SURPASS-JPN_FUKUOKA01-0015,28,TIRZEPATIDE,PERFORMED,Y,Y,,,15.0,,mg,INJECTION,QW,SUBCUTANEOUS,28.0,,TREATMENT,2024-11-06,2024-11-06,190,190
I8F-JE-GPGO-SURPASS,EC,I8F-JE-GPGO-SURPASS-JPN_FUKUOKA01-0015,29,TIRZEPATIDE,PERFORMED,Y,Y,,,15.0,,mg,INJECTION,QW,SUBCUTANEOUS,29.0,,TREATMENT,2024-11-13,2024-11-13,197,197
I8F-JE-GPGO-SURPASS,EC,I8F-JE-GPGO-SURPASS-JPN_FUKUOKA01-0015,30,TIRZEPATIDE,PERFORMED,Y,Y,,,15.0,,mg,INJECTION,QW,SUBCUTANEOUS,30.0,,TREATMENT,2024-11-20,2024-11-20,204,204
I8F-JE-GPGO-SURPASS,EC,I8F-JE-GPGO-SURPASS-JPN_FUKUOKA01-0015,31,TIRZEPATIDE,PERFORMED,Y,Y,,,15.0,,mg,INJECTION,QW,SUBCUTANEOUS,31.0,,TREATMENT,2024-11-27,2024-11-27,211,211
I8F-JE-GPGO-SURPASS,EC,I8F-JE-GPGO-SURPASS-JPN_FUKUOKA01-0015,32,TIRZEPATIDE,PERFORMED,Y,Y,,,15.0,,mg,INJECTION,QW,SUBCUTANEOUS,32.0,,TREATMENT,2024-12-04,2024-12-04,218,218
I8F-JE-GPGO-SURPASS,EC,I8F-JE-GPGO-SURPASS-JPN_FUKUOKA01-0015,33,TIRZEPATIDE,PERFORMED,Y,Y,,,15.0,,mg,INJECTION,QW,SUBCUTANEOUS,9.0,WEEK 32,TREATMENT,2024-12-11,2024-12-11,225,225
I8F-JE-GPGO-SURPASS,EC,I8F-JE-GPGO-SURPASS-JPN_FUKUOKA01-0015,34,TIRZEPATIDE,PERFORMED,Y,Y,,,15.0,,mg,INJECTION,QW,SUBCUTANEOUS,34.0,,TREATMENT,2024-12-18,2024-12-18,232,232
I8F-JE-GPGO-SURPASS,EC,I8F-JE-GPGO-SURPASS-JPN_FUKUOKA01-0015,35,TIRZEPATIDE,PERFORMED,Y,Y,,,15.0,,mg,INJECTION,QW,SUBCUTANEOUS,35.0,,TREATMENT,2024-12-25,2024-12-25,239,239
I8F-JE-GPGO-SURPASS,EC,I8F-JE-GPGO-SURPASS-JPN_FUKUOKA01-0015,36,TIRZEPATIDE,PERFORMED,Y,Y,,,15.0,,mg,INJECTION,QW,SUBCUTANEOUS,36.0,,TREATMENT,2025-01-01,2025-01-01,246,246
I8F-JE-GPGO-SURPASS,EC,I8F-JE-GPGO-SURPASS-JPN_FUKUOKA01-0015,37,TIRZEPATIDE,PERFORMED,Y,Y,,,15.0,,mg,INJECTION,QW,SUBCUTANEOUS,37.0,,TREATMENT,2025-01-08,2025-01-08,253,253
I8F-JE-GPGO-SURPASS,EC,I8F-JE-GPGO-SURPASS-JPN_FUKUOKA01-0015,38,TIRZEPATIDE,PERFORMED,Y,Y,,,15.0,,mg,INJECTION,QW,SUBCUTANEOUS,38.0,,TREATMENT,2025-01-15,2025-01-15,260,260
I8F-JE-GPGO-SURPASS,EC,I8F-JE-GPGO-SURPASS-JPN_FUKUOKA01-0015,39,TIRZEPATIDE,PERFORMED,Y,Y,,,15.0,,mg,INJECTION,QW,SUBCUTANEOUS,39.0,,TREATMENT,2025-01-22,2025-01-22,267,267
I8F-JE-GPGO-SURPASS,EC,I8F-JE-GPGO-SURPASS-JPN_FUKUOKA01-0015,40,TIRZEPATIDE,PERFORMED,Y,Y,,,15.0,,mg,INJECTION,QW,SUBCUTANEOUS,40.0,,TREATMENT,2025-01-29,2025-01-29,274,274
I8F-JE-GPGO-SURPASS,EC,I8F-JE-GPGO-SURPASS-JPN_FUKUOKA01-0015,41,TIRZEPATIDE,PERFORMED,Y,Y,,,15.0,,mg,INJECTION,QW,SUBCUTANEOUS,10.0,WEEK 40,TREATMENT,2025-02-05,2025-02-05,281,281
I8F-JE-GPGO-SURPASS,EC,I8F-JE-GPGO-SURPASS-JPN_FUKUOKA01-0015,42,TIRZEPATIDE,PERFORMED,Y,Y,,,15.0,,mg,INJECTION,QW,SUBCUTANEOUS,42.0,,TREATMENT,2025-02-12,2025-02-12,288,288
I8F-JE-GPGO-SURPASS,EC,I8F-JE-GPGO-SURPASS-JPN_FUKUOKA01-0015,43,TIRZEPATIDE,PERFORMED,Y,Y,,,15.0,,mg,INJECTION,QW,SUBCUTANEOUS,43.0,,TREATMENT,2025-02-19,2025-02-19,295,295
I8F-JE-GPGO-SURPASS,EC,I8F-JE-GPGO-SURPASS-JPN_FUKUOKA01-0015,44,TIRZEPATIDE,PERFORMED,Y,Y,,,15.0,,mg,INJECTION,QW,SUBCUTANEOUS,44.0,,TREATMENT,2025-02-26,2025-02-26,302,302
I8F-JE-GPGO-SURPASS,EC,I8F-JE-GPGO-SURPASS-JPN_FUKUOKA01-0015,45,TIRZEPATIDE,PERFORMED,Y,Y,,,15.0,,mg,INJECTION,QW,SUBCUTANEOUS,45.0,,TREATMENT,2025-03-05,2025-03-05,309,309
I8F-JE-GPGO-SURPASS,EC,I8F-JE-GPGO-SURPASS-JPN_FUKUOKA01-0015,46,TIRZEPATIDE,PERFORMED,Y,Y,,,15.0,,mg,INJECTION,QW,SUBCUTANEOUS,46.0,,TREATMENT,2025-03-12,2025-03-12,316,316
I8F-JE-GPGO-SURPASS,EC,I8F-JE-GPGO-SURPASS-JPN_FUKUOKA01-0015,47,TIRZEPATIDE,PERFORMED,Y,Y,,,15.0,,mg,INJECTION,QW,SUBCUTANEOUS,47.0,,TREATMENT,2025-03-19,2025-03-19,323,323
I8F-JE-GPGO-SURPASS,EC,I8F-JE-GPGO-SURPASS-JPN_FUKUOKA01-0015,48,TIRZEPATIDE,PERFORMED,Y,Y,,,15.0,,mg,INJECTION,QW,SUBCUTANEOUS,48.0,,TREATMENT,2025-03-26,2025-03-26,330,330
I8F-JE-GPGO-SURPASS,EC,I8F-JE-GPGO-SURPASS-JPN_FUKUOKA01-0015,49,TIRZEPATIDE,PERFORMED,Y,Y,,,15.0,,mg,INJECTION,QW,SUBCUTANEOUS,49.0,,TREATMENT,2025-04-02,2025-04-02,337,337
I8F-JE-GPGO-SURPASS,EC,I8F-JE-GPGO-SURPASS-JPN_FUKUOKA01-0015,50,TIRZEPATIDE,PERFORMED,Y,Y,,,15.0,,mg,INJECTION,QW,SUBCUTANEOUS,50.0,,TREATMENT,2025-04-09,2025-04-09,344,344
I8F-JE-GPGO-SURPASS,EC,I8F-JE-GPGO-SURPASS-JPN_FUKUOKA01-0015,51,TIRZEPATIDE,PERFORMED,Y,Y,,,15.0,,mg,INJECTION,QW,SUBCUTANEOUS,51.0,,TREATMENT,2025-04-16,2025-04-16,351,351
I8F-JE-GPGO-SURPASS,EC,I8F-JE-GPGO-SURPASS-JPN_FUKUOKA01-0015,52,TIRZEPATIDE,PERFORMED,Y,Y,,,15.0,,mg,INJECTION,QW,SUBCUTANEOUS,52.0,,TREATMENT,2025-04-23,2025-04-23,358,358
I8F-JE-GPGO-SURPASS,EC,I8F-JE-GPGO-SURPASS-JPN_FUKUOKA01-0017,1,TIRZEPATIDE,PERFORMED,Y,Y,,,2.5,,mg,INJECTION,QW,SUBCUTANEOUS,2.0,BASELINE,TREATMENT,2024-03-22,2024-03-22,1,1
I8F-JE-GPGO-SURPASS,EC,I8F-JE-GPGO-SURPASS-JPN_FUKUOKA01-0017,2,TIRZEPATIDE,PERFORMED,Y,Y,,,2.5,,mg,INJECTION,QW,SUBCUTANEOUS,2.0,,TREATMENT,2024-03-29,2024-03-29,8,8
I8F-JE-GPGO-SURPASS,EC,I8F-JE-GPGO-SURPASS-JPN_FUKUOKA01-0017,3,TIRZEPATIDE,PERFORMED,Y,Y,,,2.5,,mg,INJECTION,QW,SUBCUTANEOUS,3.0,,TREATMENT,2024-04-05,2024-04-05,15,15
I8F-JE-GPGO-SURPASS,EC,I8F-JE-GPGO-SURPASS-JPN_FUKUOKA01-0017,4,TIRZEPATIDE,PERFORMED,Y,Y,,,2.5,,mg,INJECTION,QW,SUBCUTANEOUS,4.0,,TREATMENT,2024-04-12,2024-04-12,22,22
I8F-JE-GPGO-SURPASS,EC,I8F-JE-GPGO-SURPASS-JPN_FUKUOKA01-0017,5,TIRZEPATIDE,PERFORMED,Y,Y,,,5.0,,mg,INJECTION,QW,SUBCUTANEOUS,3.0,WEEK 4,TREATMENT,2024-04-19,2024-04-19,29,29
I8F-JE-GPGO-SURPASS,EC,I8F-JE-GPGO-SURPASS-JPN_FUKUOKA01-0017,6,TIRZEPATIDE,PERFORMED,Y,Y,,,5.0,,mg,INJECTION,QW,SUBCUTANEOUS,6.0,,TREATMENT,2024-04-26,2024-04-26,36,36
I8F-JE-GPGO-SURPASS,EC,I8F-JE-GPGO-SURPASS-JPN_FUKUOKA01-0017,7,TIRZEPATIDE,PERFORMED,Y,Y,,,5.0,,mg,INJECTION,QW,SUBCUTANEOUS,7.0,,TREATMENT,2024-05-03,2024-05-03,43,43
I8F-JE-GPGO-SURPASS,EC,I8F-JE-GPGO-SURPASS-JPN_FUKUOKA01-0017,8,TIRZEPATIDE,PERFORMED,Y,Y,,,5.0,,mg,INJECTION,QW,SUBCUTANEOUS,8.0,,TREATMENT,2024-05-10,2024-05-10,50,50
I8F-JE-GPGO-SURPASS,EC,I8F-JE-GPGO-SURPASS-JPN_FUKUOKA01-0017,9,TIRZEPATIDE,PERFORMED,Y,Y,,,7.5,,mg,INJECTION,QW,SUBCUTANEOUS,4.0,WEEK 8,TREATMENT,2024-05-17,2024-05-17,57,57
I8F-JE-GPGO-SURPASS,EC,I8F-JE-GPGO-SURPASS-JPN_FUKUOKA01-0017,10,TIRZEPATIDE,PERFORMED,Y,Y,,,7.5,,mg,INJECTION,QW,SUBCUTANEOUS,10.0,,TREATMENT,2024-05-24,2024-05-24,64,64
I8F-JE-GPGO-SURPASS,EC,I8F-JE-GPGO-SURPASS-JPN_FUKUOKA01-0017,11,TIRZEPATIDE,PERFORMED,Y,Y,,,7.5,,mg,INJECTION,QW,SUBCUTANEOUS,11.0,,TREATMENT,2024-05-31,2024-05-31,71,71
I8F-JE-GPGO-SURPASS,EC,I8F-JE-GPGO-SURPASS-JPN_FUKUOKA01-0017,12,TIRZEPATIDE,PERFORMED,Y,Y,,,7.5,,mg,INJECTION,QW,SUBCUTANEOUS,12.0,,TREATMENT,2024-06-07,2024-06-07,78,78
I8F-JE-GPGO-SURPASS,EC,I8F-JE-GPGO-SURPASS-JPN_FUKUOKA01-0017,13,TIRZEPATIDE,PERFORMED,Y,Y,,,10.0,,mg,INJECTION,QW,SUBCUTANEOUS,5.0,WEEK 12,TREATMENT,2024-06-14,2024-06-14,85,85
I8F-JE-GPGO-SURPASS,EC,I8F-JE-GPGO-SURPASS-JPN_FUKUOKA01-0017,14,TIRZEPATIDE,SCHEDULED,Y,,NOT DONE,SUBJECT NON-COMPLIANCE,,,mg,INJECTION,QW,SUBCUTANEOUS,14.0,,TREATMENT,2024-06-21,2024-06-21,92,92
I8F-JE-GPGO-SURPASS,EC,I8F-JE-GPGO-SURPASS-JPN_FUKUOKA01-0017,15,TIRZEPATIDE,PERFORMED,Y,Y,,,10.0,,mg,INJECTION,QW,SUBCUTANEOUS,15.0,,TREATMENT,2024-06-28,2024-06-28,99,99
I8F-JE-GPGO-SURPASS,EC,I8F-JE-GPGO-SURPASS-JPN_FUKUOKA01-0017,16,TIRZEPATIDE,PERFORMED,Y,Y,,,10.0,,mg,INJECTION,QW,SUBCUTANEOUS,16.0,,TREATMENT,2024-07-05,2024-07-05,106,106
I8F-JE-GPGO-SURPASS,EC,I8F-JE-GPGO-SURPASS-JPN_FUKUOKA01-0017,17,TIRZEPATIDE,PERFORMED,Y,Y,,,12.5,,mg,INJECTION,QW,SUBCUTANEOUS,6.0,WEEK 16,TREATMENT,2024-07-12,2024-07-12,113,113
I8F-JE-GPGO-SURPASS,EC,I8F-JE-GPGO-SURPASS-JPN_FUKUOKA01-0017,18,TIRZEPATIDE,PERFORMED,Y,Y,,,12.5,,mg,INJECTION,QW,SUBCUTANEOUS,18.0,,TREATMENT,2024-07-19,2024-07-19,120,120
I8F-JE-GPGO-SURPASS,EC,I8F-JE-GPGO-SURPASS-JPN_FUKUOKA01-0017,19,TIRZEPATIDE,PERFORMED,Y,Y,,,12.5,,mg,INJECTION,QW,SUBCUTANEOUS,19.0,,TREATMENT,2024-07-26,2024-07-26,127,127
I8F-JE-GPGO-SURPASS,EC,I8F-JE-GPGO-SURPASS-JPN_FUKUOKA01-0017,20,TIRZEPATIDE,PERFORMED,Y,Y,,,12.5,,mg,INJECTION,QW,SUBCUTANEOUS,20.0,,TREATMENT,2024-08-02,2024-08-02,134,134
I8F-JE-GPGO-SURPASS,EC,I8F-JE-GPGO-SURPASS-JPN_FUKUOKA01-0017,21,TIRZEPATIDE,PERFORMED,Y,Y,,,15.0,,mg,INJECTION,QW,SUBCUTANEOUS,7.0,WEEK 20,TREATMENT,2024-08-09,2024-08-09,141,141
I8F-JE-GPGO-SURPASS,EC,I8F-JE-GPGO-SURPASS-JPN_FUKUOKA01-0017,22,TIRZEPATIDE,PERFORMED,Y,Y,,,15.0,,mg,INJECTION,QW,SUBCUTANEOUS,22.0,,TREATMENT,2024-08-16,2024-08-16,148,148
I8F-JE-GPGO-SURPASS,EC,I8F-JE-GPGO-SURPASS-JPN_HIROSHIMA01-0011,1,TIRZEPATIDE,PERFORMED,Y,Y,,,2.5,,mg,INJECTION,QW,SUBCUTANEOUS,2.0,BASELINE,TREATMENT,2024-05-09,2024-05-09,1,1
I8F-JE-GPGO-SURPASS,EC,I8F-JE-GPGO-SURPASS-JPN_HIROSHIMA01-0011,2,TIRZEPATIDE,PERFORMED,Y,Y,,,2.5,,mg,INJECTION,QW,SUBCUTANEOUS,2.0,,TREATMENT,2024-05-16,2024-05-16,8,8
I8F-JE-GPGO-SURPASS,EC,I8F-JE-GPGO-SURPASS-JPN_HIROSHIMA01-0011,3,TIRZEPATIDE,PERFORMED,Y,Y,,,2.5,,mg,INJECTION,QW,SUBCUTANEOUS,3.0,,TREATMENT,2024-05-23,2024-05-23,15,15
I8F-JE-GPGO-SURPASS,EC,I8F-JE-GPGO-SURPASS-JPN_HIROSHIMA01-0011,4,TIRZEPATIDE,PERFORMED,Y,Y,,,2.5,,mg,INJECTION,QW,SUBCUTANEOUS,4.0,,TREATMENT,2024-05-30,2024-05-30,22,22
I8F-JE-GPGO-SURPASS,EC,I8F-JE-GPGO-SURPASS-JPN_HIROSHIMA01-0011,5,TIRZEPATIDE,PERFORMED,Y,Y,,,5.0,,mg,INJECTION,QW,SUBCUTANEOUS,3.0,WEEK 4,TREATMENT,2024-06-06,2024-06-06,29,29
I8F-JE-GPGO-SURPASS,EC,I8F-JE-GPGO-SURPASS-JPN_HIROSHIMA01-0011,6,TIRZEPATIDE,PERFORMED,Y,Y,,,5.0,,mg,INJECTION,QW,SUBCUTANEOUS,6.0,,TREATMENT,2024-06-13,2024-06-13,36,36
I8F-JE-GPGO-SURPASS,EC,I8F-JE-GPGO-SURPASS-JPN_HIROSHIMA01-0011,7,TIRZEPATIDE,PERFORMED,Y,Y,,,5.0,,mg,INJECTION,QW,SUBCUTANEOUS,7.0,,TREATMENT,2024-06-20,2024-06-20,43,43
I8F-JE-GPGO-SURPASS,EC,I8F-JE-GPGO-SURPASS-JPN_HIROSHIMA01-0011,8,TIRZEPATIDE,PERFORMED,Y,Y,,,5.0,,mg,INJECTION,QW,SUBCUTANEOUS,8.0,,TREATMENT,2024-06-27,2024-06-27,50,50
I8F-JE-GPGO-SURPASS,EC,I8F-JE-GPGO-SURPASS-JPN_HIROSHIMA01-0011,9,TIRZEPATIDE,PERFORMED,Y,Y,,,7.5,,mg,INJECTION,QW,SUBCUTANEOUS,4.0,WEEK 8,TREATMENT,2024-07-04,2024-07-04,57,57
I8F-JE-GPGO-SURPASS,EC,I8F-JE-GPGO-SURPASS-JPN_HIROSHIMA01-0011,10,TIRZEPATIDE,PERFORMED,Y,Y,,,7.5,,mg,INJECTION,QW,SUBCUTANEOUS,10.0,,TREATMENT,2024-07-11,2024-07-11,64,64
I8F-JE-GPGO-SURPASS,EC,I8F-JE-GPGO-SURPASS-JPN_HIROSHIMA01-0011,11,TIRZEPATIDE,PERFORMED,Y,Y,,,7.5,,mg,INJECTION,QW,SUBCUTANEOUS,11.0,,TREATMENT,2024-07-18,2024-07-18,71,71
I8F-JE-GPGO-SURPASS,EC,I8F-JE-GPGO-SURPASS-JPN_HIROSHIMA01-0011,12,TIRZEPATIDE,PERFORMED,Y,Y,,,7.5,,mg,INJECTION,QW,SUBCUTANEOUS,12.0,,TREATMENT,2024-07-25,2024-07-25,78,78
I8F-JE-GPGO-SURPASS,EC,I8F-JE-GPGO-SURPASS-JPN_HIROSHIMA01-0011,13,TIRZEPATIDE,PERFORMED,Y,Y,,,10.0,,mg,INJECTION,QW,SUBCUTANEOUS,5.0,WEEK 12,TREATMENT,2024-08-01,2024-08-01,85,85
I8F-JE-GPGO-SURPASS,EC,I8F-JE-GPGO-SURPASS-JPN_HIROSHIMA01-0011,14,TIRZEPATIDE,PERFORMED,Y,Y,,,10.0,,mg,INJECTION,QW,SUBCUTANEOUS,14.0,,TREATMENT,2024-08-08,2024-08-08,92,92
I8F-JE-GPGO-SURPASS,EC,I8F-JE-GPGO-SURPASS-JPN_HIROSHIMA01-0011,15,TIRZEPATIDE,PERFORMED,Y,Y,,,10.0,,mg,INJECTION,QW,SUBCUTANEOUS,15.0,,TREATMENT,2024-08-15,2024-08-15,99,99
I8F-JE-GPGO-SURPASS,EC,I8F-JE-GPGO-SURPASS-JPN_HIROSHIMA01-0011,16,TIRZEPATIDE,PERFORMED,Y,Y,,,10.0,,mg,INJECTION,QW,SUBCUTANEOUS,16.0,,TREATMENT,2024-08-22,2024-08-22,106,106
I8F-JE-GPGO-SURPASS,EC,I8F-JE-GPGO-SURPASS-JPN_HIROSHIMA01-0011,17,TIRZEPATIDE,PERFORMED,Y,Y,,,12.5,,mg,INJECTION,QW,SUBCUTANEOUS,6.0,WEEK 16,TREATMENT,2024-08-29,2024-08-29,113,113
I8F-JE-GPGO-SURPASS,EC,I8F-JE-GPGO-SURPASS-JPN_HIROSHIMA01-0019,1,TIRZEPATIDE,PERFORMED,Y,Y,,,2.5,,mg,INJECTION,QW,SUBCUTANEOUS,2.0,BASELINE,TREATMENT,2024-05-16,2024-05-16,1,1
I8F-JE-GPGO-SURPASS,EC,I8F-JE-GPGO-SURPASS-JPN_HIROSHIMA01-0019,2,TIRZEPATIDE,PERFORMED,Y,Y,,,2.5,,mg,INJECTION,QW,SUBCUTANEOUS,2.0,,TREATMENT,2024-05-23,2024-05-23,8,8
I8F-JE-GPGO-SURPASS,EC,I8F-JE-GPGO-SURPASS-JPN_HIROSHIMA01-0019,3,TIRZEPATIDE,SCHEDULED,Y,,NOT DONE,SUBJECT NON-COMPLIANCE,,,mg,INJECTION,QW,SUBCUTANEOUS,3.0,,TREATMENT,2024-05-30,2024-05-30,15,15
I8F-JE-GPGO-SURPASS,EC,I8F-JE-GPGO-SURPASS-JPN_HIROSHIMA01-0019,4,TIRZEPATIDE,PERFORMED,Y,Y,,,2.5,,mg,INJECTION,QW,SUBCUTANEOUS,4.0,,TREATMENT,2024-06-06,2024-06-06,22,22
I8F-JE-GPGO-SURPASS,EC,I8F-JE-GPGO-SURPASS-JPN_HIROSHIMA01-0019,5,TIRZEPATIDE,PERFORMED,Y,Y,,,5.0,,mg,INJECTION,QW,SUBCUTANEOUS,3.0,WEEK 4,TREATMENT,2024-06-13,2024-06-13,29,29
I8F-JE-GPGO-SURPASS,EC,I8F-JE-GPGO-SURPASS-JPN_HIROSHIMA01-0019,6,TIRZEPATIDE,PERFORMED,Y,Y,,,5.0,,mg,INJECTION,QW,SUBCUTANEOUS,6.0,,TREATMENT,2024-06-20,2024-06-20,36,36
I8F-JE-GPGO-SURPASS,EC,I8F-JE-GPGO-SURPASS-JPN_HIROSHIMA01-0019,7,TIRZEPATIDE,SCHEDULED,Y,,NOT DONE,SUBJECT NON-COMPLIANCE,,,mg,INJECTION,QW,SUBCUTANEOUS,7.0,,TREATMENT,2024-06-27,2024-06-27,43,43
I8F-JE-GPGO-SURPASS,EC,I8F-JE-GPGO-SURPASS-JPN_HIROSHIMA01-0019,8,TIRZEPATIDE,PERFORMED,Y,Y,,,5.0,,mg,INJECTION,QW,SUBCUTANEOUS,8.0,,TREATMENT,2024-07-04,2024-07-04,50,50
I8F-JE-GPGO-SURPASS,EC,I8F-JE-GPGO-SURPASS-JPN_HIROSHIMA01-0019,9,TIRZEPATIDE,PERFORMED,Y,Y,,,7.5,,mg,INJECTION,QW,SUBCUTANEOUS,4.0,WEEK 8,TREATMENT,2024-07-11,2024-07-11,57,57
I8F-JE-GPGO-SURPASS,EC,I8F-JE-GPGO-SURPASS-JPN_HIROSHIMA01-0019,10,TIRZEPATIDE,PERFORMED,Y,Y,,,7.5,,mg,INJECTION,QW,SUBCUTANEOUS,10.0,,TREATMENT,2024-07-18,2024-07-18,64,64
I8F-JE-GPGO-SURPASS,EC,I8F-JE-GPGO-SURPASS-JPN_HIROSHIMA01-0019,11,TIRZEPATIDE,PERFORMED,Y,Y,,,7.5,,mg,INJECTION,QW,SUBCUTANEOUS,11.0,,TREATMENT,2024-07-25,2024-07-25,71,71
I8F-JE-GPGO-SURPASS,EC,I8F-JE-GPGO-SURPASS-JPN_HIROSHIMA01-0019,12,TIRZEPATIDE,SCHEDULED,Y,,NOT DONE,SUBJECT NON-COMPLIANCE,,,mg,INJECTION,QW,SUBCUTANEOUS,12.0,,TREATMENT,2024-08-01,2024-08-01,78,78
I8F-JE-GPGO-SURPASS,EC,I8F-JE-GPGO-SURPASS-JPN_HIROSHIMA01-0019,13,TIRZEPATIDE,PERFORMED,Y,Y,,,10.0,,mg,INJECTION,QW,SUBCUTANEOUS,5.0,WEEK 12,TREATMENT,2024-08-08,2024-08-08,85,85
I8F-JE-GPGO-SURPASS,EC,I8F-JE-GPGO-SURPASS-JPN_HIROSHIMA01-0019,14,TIRZEPATIDE,PERFORMED,Y,Y,,,10.0,,mg,INJECTION,QW,SUBCUTANEOUS,14.0,,TREATMENT,2024-08-15,2024-08-15,92,92
I8F-JE-GPGO-SURPASS,EC,I8F-JE-GPGO-SURPASS-JPN_HIROSHIMA01-0019,15,TIRZEPATIDE,SCHEDULED,Y,,NOT DONE,SUBJECT NON-COMPLIANCE,,,mg,INJECTION,QW,SUBCUTANEOUS,15.0,,TREATMENT,2024-08-22,2024-08-22,99,99
I8F-JE-GPGO-SURPASS,EC,I8F-JE-GPGO-SURPASS-JPN_HIROSHIMA01-0019,16,TIRZEPATIDE,PERFORMED,Y,Y,,,10.0,,mg,INJECTION,QW,SUBCUTANEOUS,16.0,,TREATMENT,2024-08-29,2024-08-29,106,106
I8F-JE-GPGO-SURPASS,EC,I8F-JE-GPGO-SURPASS-JPN_HIROSHIMA01-0019,17,TIRZEPATIDE,PERFORMED,Y,Y,,,12.5,,mg,INJECTION,QW,SUBCUTANEOUS,6.0,WEEK 16,TREATMENT,2024-09-05,2024-09-05,113,113
I8F-JE-GPGO-SURPASS,EC,I8F-JE-GPGO-SURPASS-JPN_HIROSHIMA01-0019,18,TIRZEPATIDE,PERFORMED,Y,Y,,,12.5,,mg,INJECTION,QW,SUBCUTANEOUS,18.0,,TREATMENT,2024-09-12,2024-09-12,120,120
I8F-JE-GPGO-SURPASS,EC,I8F-JE-GPGO-SURPASS-JPN_HIROSHIMA01-0019,19,TIRZEPATIDE,PERFORMED,Y,Y,,,12.5,,mg,INJECTION,QW,SUBCUTANEOUS,19.0,,TREATMENT,2024-09-19,2024-09-19,127,127
I8F-JE-GPGO-SURPASS,EC,I8F-JE-GPGO-SURPASS-JPN_HIROSHIMA01-0019,20,TIRZEPATIDE,PERFORMED,Y,Y,,,12.5,,mg,INJECTION,QW,SUBCUTANEOUS,20.0,,TREATMENT,2024-09-26,2024-09-26,134,134
I8F-JE-GPGO-SURPASS,EC,I8F-JE-GPGO-SURPASS-JPN_HIROSHIMA01-0019,21,TIRZEPATIDE,SCHEDULED,Y,,NOT DONE,SUBJECT NON-COMPLIANCE,,,mg,INJECTION,QW,SUBCUTANEOUS,7.0,WEEK 20,TREATMENT,2024-10-03,2024-10-03,141,141
I8F-JE-GPGO-SURPASS,EC,I8F-JE-GPGO-SURPASS-JPN_HIROSHIMA01-0019,22,TIRZEPATIDE,PERFORMED,Y,Y,,,15.0,,mg,INJECTION,QW,SUBCUTANEOUS,22.0,,TREATMENT,2024-10-10,2024-10-10,148,148
I8F-JE-GPGO-SURPASS,EC,I8F-JE-GPGO-SURPASS-JPN_HIROSHIMA01-0019,23,TIRZEPATIDE,PERFORMED,Y,Y,,,15.0,,mg,INJECTION,QW,SUBCUTANEOUS,23.0,,TREATMENT,2024-10-17,2024-10-17,155,155
I8F-JE-GPGO-SURPASS,EC,I8F-JE-GPGO-SURPASS-JPN_HIROSHIMA01-0019,24,TIRZEPATIDE,PERFORMED,Y,Y,,,15.0,,mg,INJECTION,QW,SUBCUTANEOUS,24.0,,TREATMENT,2024-10-24,2024-10-24,162,162
I8F-JE-GPGO-SURPASS,EC,I8F-JE-GPGO-SURPASS-JPN_HIROSHIMA01-0019,25,TIRZEPATIDE,PERFORMED,Y,Y,,,15.0,,mg,INJECTION,QW,SUBCUTANEOUS,8.0,WEEK 24,TREATMENT,2024-10-31,2024-10-31,169,169
I8F-JE-GPGO-SURPASS,EC,I8F-JE-GPGO-SURPASS-JPN_HIROSHIMA01-0019,26,TIRZEPATIDE,PERFORMED,Y,Y,,,15.0,,mg,INJECTION,QW,SUBCUTANEOUS,26.0,,TREATMENT,2024-11-07,2024-11-07,176,176
I8F-JE-GPGO-SURPASS,EC,I8F-JE-GPGO-SURPASS-JPN_HIROSHIMA01-0019,27,TIRZEPATIDE,PERFORMED,Y,Y,,,15.0,,mg,INJECTION,QW,SUBCUTANEOUS,27.0,,TREATMENT,2024-11-14,2024-11-14,183,183
I8F-JE-GPGO-SURPASS,EC,I8F-JE-GPGO-SURPASS-JPN_HIROSHIMA01-0019,28,TIRZEPATIDE,PERFORMED,Y,Y,,,15.0,,mg,INJECTION,QW,SUBCUTANEOUS,28.0,,TREATMENT,2024-11-21,2024-11-21,190,190
I8F-JE-GPGO-SURPASS,EC,I8F-JE-GPGO-SURPASS-JPN_HIROSHIMA01-0019,29,TIRZEPATIDE,PERFORMED,Y,Y,,,15.0,,mg,INJECTION,QW,SUBCUTANEOUS,29.0,,TREATMENT,2024-11-28,2024-11-28,197,197
I8F-JE-GPGO-SURPASS,EC,I8F-JE-GPGO-SURPASS-JPN_HIROSHIMA01-0019,30,TIRZEPATIDE,PERFORMED,Y,Y,,,15.0,,mg,INJECTION,QW,SUBCUTANEOUS,30.0,,TREATMENT,2024-12-05,2024-12-05,204,204
I8F-JE-GPGO-SURPASS,EC,I8F-JE-GPGO-SURPASS-JPN_HIROSHIMA01-0019,31,TIRZEPATIDE,PERFORMED,Y,Y,,,15.0,,mg,INJECTION,QW,SUBCUTANEOUS,31.0,,TREATMENT,2024-12-12,2024-12-12,211,211
I8F-JE-GPGO-SURPASS,EC,I8F-JE-GPGO-SURPASS-JPN_HIROSHIMA01-0019,32,TIRZEPATIDE,SCHEDULED,Y,,NOT DONE,SUBJECT NON-COMPLIANCE,,,mg,INJECTION,QW,SUBCUTANEOUS,32.0,,TREATMENT,2024-12-19,2024-12-19,218,218
I8F-JE-GPGO-SURPASS,EC,I8F-JE-GPGO-SURPASS-JPN_HIROSHIMA01-0019,33,TIRZEPATIDE,PERFORMED,Y,Y,,,15.0,,mg,INJECTION,QW,SUBCUTANEOUS,9.0,WEEK 32,TREATMENT,2024-12-26,2024-12-26,225,225
I8F-JE-GPGO-SURPASS,EC,I8F-JE-GPGO-SURPASS-JPN_HIROSHIMA01-0019,34,TIRZEPATIDE,SCHEDULED,Y,,NOT DONE,SUBJECT NON-COMPLIANCE,,,mg,INJECTION,QW,SUBCUTANEOUS,34.0,,TREATMENT,2025-01-02,2025-01-02,232,232
I8F-JE-GPGO-SURPASS,EC,I8F-JE-GPGO-SURPASS-JPN_HIROSHIMA01-0019,35,TIRZEPATIDE,SCHEDULED,Y,,NOT DONE,SUBJECT NON-COMPLIANCE,,,mg,INJECTION,QW,SUBCUTANEOUS,35.0,,TREATMENT,2025-01-09,2025-01-09,239,239
I8F-JE-GPGO-SURPASS,EC,I8F-JE-GPGO-SURPASS-JPN_HIROSHIMA01-0019,36,TIRZEPATIDE,PERFORMED,Y,Y,,,15.0,,mg,INJECTION,QW,SUBCUTANEOUS,36.0,,TREATMENT,2025-01-16,2025-01-16,246,246
I8F-JE-GPGO-SURPASS,EC,I8F-JE-GPGO-SURPASS-JPN_HIROSHIMA01-0019,37,TIRZEPATIDE,PERFORMED,Y,Y,,,15.0,,mg,INJECTION,QW,SUBCUTANEOUS,37.0,,TREATMENT,2025-01-23,2025-01-23,253,253
I8F-JE-GPGO-SURPASS,EC,I8F-JE-GPGO-SURPASS-JPN_HIROSHIMA01-0019,38,TIRZEPATIDE,PERFORMED,Y,Y,,,15.0,,mg,INJECTION,QW,SUBCUTANEOUS,38.0,,TREATMENT,2025-01-30,2025-01-30,260,260
I8F-JE-GPGO-SURPASS,EC,I8F-JE-GPGO-SURPASS-JPN_HIROSHIMA01-0019,39,TIRZEPATIDE,PERFORMED,Y,Y,,,15.0,,mg,INJECTION,QW,SUBCUTANEOUS,39.0,,TREATMENT,2025-02-06,2025-02-06,267,267
I8F-JE-GPGO-SURPASS,EC,I8F-JE-GPGO-SURPASS-JPN_HIROSHIMA01-0019,40,TIRZEPATIDE,PERFORMED,Y,Y,,,15.0,,mg,INJECTION,QW,SUBCUTANEOUS,40.0,,TREATMENT,2025-02-13,2025-02-13,274,274
I8F-JE-GPGO-SURPASS,EC,I8F-JE-GPGO-SURPASS-JPN_HIROSHIMA01-0019,41,TIRZEPATIDE,PERFORMED,Y,Y,,,15.0,,mg,INJECTION,QW,SUBCUTANEOUS,10.0,WEEK 40,TREATMENT,2025-02-20,2025-02-20,281,281
I8F-JE-GPGO-SURPASS,EC,I8F-JE-GPGO-SURPASS-JPN_HIROSHIMA01-0019,42,TIRZEPATIDE,PERFORMED,Y,Y,,,15.0,,mg,INJECTION,QW,SUBCUTANEOUS,42.0,,TREATMENT,2025-02-27,2025-02-27,288,288
I8F-JE-GPGO-SURPASS,EC,I8F-JE-GPGO-SURPASS-JPN_HIROSHIMA01-0019,43,TIRZEPATIDE,SCHEDULED,Y,,NOT DONE,SUBJECT NON-COMPLIANCE,,,mg,INJECTION,QW,SUBCUTANEOUS,43.0,,TREATMENT,2025-03-06,2025-03-06,295,295
I8F-JE-GPGO-SURPASS,EC,I8F-JE-GPGO-SURPASS-JPN_HIROSHIMA01-0019,44,TIRZEPATIDE,PERFORMED,Y,Y,,,15.0,,mg,INJECTION,QW,SUBCUTANEOUS,44.0,,TREATMENT,2025-03-13,2025-03-13,302,302
I8F-JE-GPGO-SURPASS,EC,I8F-JE-GPGO-SURPASS-JPN_HIROSHIMA01-0019,45,TIRZEPATIDE,SCHEDULED,Y,,NOT DONE,SUBJECT NON-COMPLIANCE,,,mg,INJECTION,QW,SUBCUTANEOUS,45.0,,TREATMENT,2025-03-20,2025-03-20,309,309
I8F-JE-GPGO-SURPASS,EC,I8F-JE-GPGO-SURPASS-JPN_HIROSHIMA01-0019,46,TIRZEPATIDE,PERFORMED,Y,Y,,,15.0,,mg,INJECTION,QW,SUBCUTANEOUS,46.0,,TREATMENT,2025-03-27,2025-03-27,316,316
I8F-JE-GPGO-SURPASS,EC,I8F-JE-GPGO-SURPASS-JPN_HIROSHIMA01-0019,47,TIRZEPATIDE,PERFORMED,Y,Y,,,15.0,,mg,INJECTION,QW,SUBCUTANEOUS,47.0,,TREATMENT,2025-04-03,2025-04-03,323,323
I8F-JE-GPGO-SURPASS,EC,I8F-JE-GPGO-SURPASS-JPN_HIROSHIMA01-0019,48,TIRZEPATIDE,PERFORMED,Y,Y,,,15.0,,mg,INJECTION,QW,SUBCUTANEOUS,48.0,,TREATMENT,2025-04-10,2025-04-10,330,330
I8F-JE-GPGO-SURPASS,EC,I8F-JE-GPGO-SURPASS-JPN_HIROSHIMA01-0019,49,TIRZEPATIDE,PERFORMED,Y,Y,,,15.0,,mg,INJECTION,QW,SUBCUTANEOUS,49.0,,TREATMENT,2025-04-17,2025-04-17,337,337
I8F-JE-GPGO-SURPASS,EC,I8F-JE-GPGO-SURPASS-JPN_HIROSHIMA01-0019,50,TIRZEPATIDE,PERFORMED,Y,Y,,,15.0,,mg,INJECTION,QW,SUBCUTANEOUS,50.0,,TREATMENT,2025-04-24,2025-04-24,344,344
I8F-JE-GPGO-SURPASS,EC,I8F-JE-GPGO-SURPASS-JPN_HIROSHIMA01-0019,51,TIRZEPATIDE,PERFORMED,Y,Y,,,15.0,,mg,INJECTION,QW,SUBCUTANEOUS,51.0,,TREATMENT,2025-05-01,2025-05-01,351,351
I8F-JE-GPGO-SURPASS,EC,I8F-JE-GPGO-SURPASS-JPN_HIROSHIMA01-0019,52,TIRZEPATIDE,PERFORMED,Y,Y,,,15.0,,mg,INJECTION,QW,SUBCUTANEOUS,52.0,,TREATMENT,2025-05-08,2025-05-08,358,358
I8F-JE-GPGO-SURPASS,EC,I8F-JE-GPGO-SURPASS-JPN_KAWASAKI01-0018,1,TIRZEPATIDE,PERFORMED,Y,Y,,,2.5,,mg,INJECTION,QW,SUBCUTANEOUS,2.0,BASELINE,TREATMENT,2024-03-20,2024-03-20,1,1
I8F-JE-GPGO-SURPASS,EC,I8F-JE-GPGO-SURPASS-JPN_KAWASAKI01-0018,2,TIRZEPATIDE,PERFORMED,Y,Y,,,2.5,,mg,INJECTION,QW,SUBCUTANEOUS,2.0,,TREATMENT,2024-03-27,2024-03-27,8,8
I8F-JE-GPGO-SURPASS,EC,I8F-JE-GPGO-SURPASS-JPN_KAWASAKI01-0018,3,TIRZEPATIDE,PERFORMED,Y,Y,,,2.5,,mg,INJECTION,QW,SUBCUTANEOUS,3.0,,TREATMENT,2024-04-03,2024-04-03,15,15
I8F-JE-GPGO-SURPASS,EC,I8F-JE-GPGO-SURPASS-JPN_KAWASAKI01-0018,4,TIRZEPATIDE,PERFORMED,Y,Y,,,2.5,,mg,INJECTION,QW,SUBCUTANEOUS,4.0,,TREATMENT,2024-04-10,2024-04-10,22,22
I8F-JE-GPGO-SURPASS,EC,I8F-JE-GPGO-SURPASS-JPN_KAWASAKI01-0018,5,TIRZEPATIDE,PERFORMED,Y,Y,,,5.0,,mg,INJECTION,QW,SUBCUTANEOUS,3.0,WEEK 4,TREATMENT,2024-04-17,2024-04-17,29,29
I8F-JE-GPGO-SURPASS,EC,I8F-JE-GPGO-SURPASS-JPN_KAWASAKI01-0018,6,TIRZEPATIDE,PERFORMED,Y,Y,,,5.0,,mg,INJECTION,QW,SUBCUTANEOUS,6.0,,TREATMENT,2024-04-24,2024-04-24,36,36
I8F-JE-GPGO-SURPASS,EC,I8F-JE-GPGO-SURPASS-JPN_KAWASAKI01-0018,7,TIRZEPATIDE,PERFORMED,Y,Y,,,5.0,,mg,INJECTION,QW,SUBCUTANEOUS,7.0,,TREATMENT,2024-05-01,2024-05-01,43,43
I8F-JE-GPGO-SURPASS,EC,I8F-JE-GPGO-SURPASS-JPN_KAWASAKI01-0018,8,TIRZEPATIDE,PERFORMED,Y,Y,,,5.0,,mg,INJECTION,QW,SUBCUTANEOUS,8.0,,TREATMENT,2024-05-08,2024-05-08,50,50
I8F-JE-GPGO-SURPASS,EC,I8F-JE-GPGO-SURPASS-JPN_KAWASAKI01-0018,9,TIRZEPATIDE,PERFORMED,Y,Y,,,7.5,,mg,INJECTION,QW,SUBCUTANEOUS,4.0,WEEK 8,TREATMENT,2024-05-15,2024-05-15,57,57
I8F-JE-GPGO-SURPASS,EC,I8F-JE-GPGO-SURPASS-JPN_KAWASAKI01-0018,10,TIRZEPATIDE,PERFORMED,Y,Y,,,7.5,,mg,INJECTION,QW,SUBCUTANEOUS,10.0,,TREATMENT,2024-05-22,2024-05-22,64,64
I8F-JE-GPGO-SURPASS,EC,I8F-JE-GPGO-SURPASS-JPN_KAWASAKI01-0018,11,TIRZEPATIDE,PERFORMED,Y,Y,,,7.5,,mg,INJECTION,QW,SUBCUTANEOUS,11.0,,TREATMENT,2024-05-29,2024-05-29,71,71
I8F-JE-GPGO-SURPASS,EC,I8F-JE-GPGO-SURPASS-JPN_KAWASAKI01-0018,12,TIRZEPATIDE,PERFORMED,Y,Y,,,7.5,,mg,INJECTION,QW,SUBCUTANEOUS,12.0,,TREATMENT,2024-06-05,2024-06-05,78,78
I8F-JE-GPGO-SURPASS,EC,I8F-JE-GPGO-SURPASS-JPN_KAWASAKI01-0018,13,TIRZEPATIDE,PERFORMED,Y,Y,,,10.0,,mg,INJECTION,QW,SUBCUTANEOUS,5.0,WEEK 12,TREATMENT,2024-06-12,2024-06-12,85,85
I8F-JE-GPGO-SURPASS,EC,I8F-JE-GPGO-SURPASS-JPN_KAWASAKI01-0018,14,TIRZEPATIDE,PERFORMED,Y,Y,,,10.0,,mg,INJECTION,QW,SUBCUTANEOUS,14.0,,TREATMENT,2024-06-19,2024-06-19,92,92
I8F-JE-GPGO-SURPASS,EC,I8F-JE-GPGO-SURPASS-JPN_KAWASAKI01-0018,15,TIRZEPATIDE,SCHEDULED,Y,,NOT DONE,SUBJECT NON-COMPLIANCE,,,mg,INJECTION,QW,SUBCUTANEOUS,15.0,,TREATMENT,2024-06-26,2024-06-26,99,99
I8F-JE-GPGO-SURPASS,EC,I8F-JE-GPGO-SURPASS-JPN_KAWASAKI01-0018,16,TIRZEPATIDE,PERFORMED,Y,Y,,,10.0,,mg,INJECTION,QW,SUBCUTANEOUS,16.0,,TREATMENT,2024-07-03,2024-07-03,106,106
I8F-JE-GPGO-SURPASS,EC,I8F-JE-GPGO-SURPASS-JPN_KAWASAKI01-0018,17,TIRZEPATIDE,PERFORMED,Y,Y,,,10.0,,mg,INJECTION,QW,SUBCUTANEOUS,6.0,WEEK 16,TREATMENT,2024-07-10,2024-07-10,113,113
I8F-JE-GPGO-SURPASS,EC,I8F-JE-GPGO-SURPASS-JPN_KAWASAKI01-0018,18,TIRZEPATIDE,PERFORMED,Y,Y,,,10.0,,mg,INJECTION,QW,SUBCUTANEOUS,18.0,,TREATMENT,2024-07-17,2024-07-17,120,120
I8F-JE-GPGO-SURPASS,EC,I8F-JE-GPGO-SURPASS-JPN_KAWASAKI01-0018,19,TIRZEPATIDE,SCHEDULED,Y,,NOT DONE,SUBJECT NON-COMPLIANCE,,,mg,INJECTION,QW,SUBCUTANEOUS,19.0,,TREATMENT,2024-07-24,2024-07-24,127,127
I8F-JE-GPGO-SURPASS,EC,I8F-JE-GPGO-SURPASS-JPN_KAWASAKI01-0018,20,TIRZEPATIDE,PERFORMED,Y,Y,,,10.0,,mg,INJECTION,QW,SUBCUTANEOUS,20.0,,TREATMENT,2024-07-31,2024-07-31,134,134
I8F-JE-GPGO-SURPASS,EC,I8F-JE-GPGO-SURPASS-JPN_KAWASAKI01-0018,21,TIRZEPATIDE,PERFORMED,Y,Y,,,10.0,,mg,INJECTION,QW,SUBCUTANEOUS,7.0,WEEK 20,TREATMENT,2024-08-07,2024-08-07,141,141
I8F-JE-GPGO-SURPASS,EC,I8F-JE-GPGO-SURPASS-JPN_KAWASAKI01-0018,22,TIRZEPATIDE,SCHEDULED,Y,,NOT DONE,SUBJECT NON-COMPLIANCE,,,mg,INJECTION,QW,SUBCUTANEOUS,22.0,,TREATMENT,2024-08-14,2024-08-14,148,148
I8F-JE-GPGO-SURPASS,EC,I8F-JE-GPGO-SURPASS-JPN_KAWASAKI01-0018,23,TIRZEPATIDE,PERFORMED,Y,Y,,,10.0,,mg,INJECTION,QW,SUBCUTANEOUS,23.0,,TREATMENT,2024-08-21,2024-08-21,155,155
I8F-JE-GPGO-SURPASS,EC,I8F-JE-GPGO-SURPASS-JPN_KAWASAKI01-0018,24,TIRZEPATIDE,PERFORMED,Y,Y,,,10.0,,mg,INJECTION,QW,SUBCUTANEOUS,24.0,,TREATMENT,2024-08-28,2024-08-28,162,162
I8F-JE-GPGO-SURPASS,EC,I8F-JE-GPGO-SURPASS-JPN_KAWASAKI01-0018,25,TIRZEPATIDE,PERFORMED,Y,Y,,,10.0,,mg,INJECTION,QW,SUBCUTANEOUS,8.0,WEEK 24,TREATMENT,2024-09-04,2024-09-04,169,169
I8F-JE-GPGO-SURPASS,EC,I8F-JE-GPGO-SURPASS-JPN_KAWASAKI01-0018,26,TIRZEPATIDE,PERFORMED,Y,Y,,,10.0,,mg,INJECTION,QW,SUBCUTANEOUS,26.0,,TREATMENT,2024-09-11,2024-09-11,176,176
I8F-JE-GPGO-SURPASS,EC,I8F-JE-GPGO-SURPASS-JPN_KAWASAKI01-0018,27,TIRZEPATIDE,PERFORMED,Y,Y,,,10.0,,mg,INJECTION,QW,SUBCUTANEOUS,27.0,,TREATMENT,2024-09-18,2024-09-18,183,183
I8F-JE-GPGO-SURPASS,EC,I8F-JE-GPGO-SURPASS-JPN_KAWASAKI01-0018,28,TIRZEPATIDE,PERFORMED,Y,Y,,,10.0,,mg,INJECTION,QW,SUBCUTANEOUS,28.0,,TREATMENT,2024-09-25,2024-09-25,190,190
I8F-JE-GPGO-SURPASS,EC,I8F-JE-GPGO-SURPASS-JPN_KAWASAKI01-0018,29,TIRZEPATIDE,PERFORMED,Y,Y,,,10.0,,mg,INJECTION,QW,SUBCUTANEOUS,29.0,,TREATMENT,2024-10-02,2024-10-02,197,197
I8F-JE-GPGO-SURPASS,EC,I8F-JE-GPGO-SURPASS-JPN_KAWASAKI01-0018,30,TIRZEPATIDE,PERFORMED,Y,Y,,,10.0,,mg,INJECTION,QW,SUBCUTANEOUS,30.0,,TREATMENT,2024-10-09,2024-10-09,204,204
I8F-JE-GPGO-SURPASS,EC,I8F-JE-GPGO-SURPASS-JPN_KAWASAKI01-0018,31,TIRZEPATIDE,PERFORMED,Y,Y,,,10.0,,mg,INJECTION,QW,SUBCUTANEOUS,31.0,,TREATMENT,2024-10-16,2024-10-16,211,211
I8F-JE-GPGO-SURPASS,EC,I8F-JE-GPGO-SURPASS-JPN_KAWASAKI01-0018,32,TIRZEPATIDE,PERFORMED,Y,Y,,,10.0,,mg,INJECTION,QW,SUBCUTANEOUS,32.0,,TREATMENT,2024-10-23,2024-10-23,218,218
I8F-JE-GPGO-SURPASS,EC,I8F-JE-GPGO-SURPASS-JPN_KAWASAKI01-0018,33,TIRZEPATIDE,PERFORMED,Y,Y,,,10.0,,mg,INJECTION,QW,SUBCUTANEOUS,9.0,WEEK 32,TREATMENT,2024-10-30,2024-10-30,225,225
I8F-JE-GPGO-SURPASS,EC,I8F-JE-GPGO-SURPASS-JPN_KAWASAKI01-0018,34,TIRZEPATIDE,PERFORMED,Y,Y,,,10.0,,mg,INJECTION,QW,SUBCUTANEOUS,34.0,,TREATMENT,2024-11-06,2024-11-06,232,232
I8F-JE-GPGO-SURPASS,EC,I8F-JE-GPGO-SURPASS-JPN_KAWASAKI01-0018,35,TIRZEPATIDE,PERFORMED,Y,Y,,,10.0,,mg,INJECTION,QW,SUBCUTANEOUS,35.0,,TREATMENT,2024-11-13,2024-11-13,239,239
I8F-JE-GPGO-SURPASS,EC,I8F-JE-GPGO-SURPASS-JPN_KAWASAKI01-0018,36,TIRZEPATIDE,PERFORMED,Y,Y,,,10.0,,mg,INJECTION,QW,SUBCUTANEOUS,36.0,,TREATMENT,2024-11-20,2024-11-20,246,246
I8F-JE-GPGO-SURPASS,EC,I8F-JE-GPGO-SURPASS-JPN_KAWASAKI01-0018,37,TIRZEPATIDE,PERFORMED,Y,Y,,,10.0,,mg,INJECTION,QW,SUBCUTANEOUS,37.0,,TREATMENT,2024-11-27,2024-11-27,253,253
I8F-JE-GPGO-SURPASS,EC,I8F-JE-GPGO-SURPASS-JPN_KAWASAKI01-0018,38,TIRZEPATIDE,SCHEDULED,Y,,NOT DONE,SUBJECT NON-COMPLIANCE,,,mg,INJECTION,QW,SUBCUTANEOUS,38.0,,TREATMENT,2024-12-04,2024-12-04,260,260
I8F-JE-GPGO-SURPASS,EC,I8F-JE-GPGO-SURPASS-JPN_KAWASAKI01-0018,39,TIRZEPATIDE,PERFORMED,Y,Y,,,10.0,,mg,INJECTION,QW,SUBCUTANEOUS,39.0,,TREATMENT,2024-12-11,2024-12-11,267,267
I8F-JE-GPGO-SURPASS,EC,I8F-JE-GPGO-SURPASS-JPN_KAWASAKI01-0018,40,TIRZEPATIDE,PERFORMED,Y,Y,,,10.0,,mg,INJECTION,QW,SUBCUTANEOUS,40.0,,TREATMENT,2024-12-18,2024-12-18,274,274
I8F-JE-GPGO-SURPASS,EC,I8F-JE-GPGO-SURPASS-JPN_KAWASAKI01-0018,41,TIRZEPATIDE,PERFORMED,Y,Y,,,10.0,,mg,INJECTION,QW,SUBCUTANEOUS,10.0,WEEK 40,TREATMENT,2024-12-25,2024-12-25,281,281
I8F-JE-GPGO-SURPASS,EC,I8F-JE-GPGO-SURPASS-JPN_KAWASAKI01-0018,42,TIRZEPATIDE,PERFORMED,Y,Y,,,10.0,,mg,INJECTION,QW,SUBCUTANEOUS,42.0,,TREATMENT,2025-01-01,2025-01-01,288,288
I8F-JE-GPGO-SURPASS,EC,I8F-JE-GPGO-SURPASS-JPN_KAWASAKI01-0018,43,TIRZEPATIDE,PERFORMED,Y,Y,,,10.0,,mg,INJECTION,QW,SUBCUTANEOUS,43.0,,TREATMENT,2025-01-08,2025-01-08,295,295
I8F-JE-GPGO-SURPASS,EC,I8F-JE-GPGO-SURPASS-JPN_KAWASAKI01-0018,44,TIRZEPATIDE,PERFORMED,Y,Y,,,10.0,,mg,INJECTION,QW,SUBCUTANEOUS,44.0,,TREATMENT,2025-01-15,2025-01-15,302,302
I8F-JE-GPGO-SURPASS,EC,I8F-JE-GPGO-SURPASS-JPN_KAWASAKI01-0018,45,TIRZEPATIDE,PERFORMED,Y,Y,,,10.0,,mg,INJECTION,QW,SUBCUTANEOUS,45.0,,TREATMENT,2025-01-22,2025-01-22,309,309
I8F-JE-GPGO-SURPASS,EC,I8F-JE-GPGO-SURPASS-JPN_KAWASAKI01-0018,46,TIRZEPATIDE,PERFORMED,Y,Y,,,10.0,,mg,INJECTION,QW,SUBCUTANEOUS,46.0,,TREATMENT,2025-01-29,2025-01-29,316,316
I8F-JE-GPGO-SURPASS,EC,I8F-JE-GPGO-SURPASS-JPN_KAWASAKI01-0018,47,TIRZEPATIDE,PERFORMED,Y,Y,,,10.0,,mg,INJECTION,QW,SUBCUTANEOUS,47.0,,TREATMENT,2025-02-05,2025-02-05,323,323
I8F-JE-GPGO-SURPASS,EC,I8F-JE-GPGO-SURPASS-JPN_KAWASAKI01-0018,48,TIRZEPATIDE,PERFORMED,Y,Y,,,10.0,,mg,INJECTION,QW,SUBCUTANEOUS,48.0,,TREATMENT,2025-02-12,2025-02-12,330,330
I8F-JE-GPGO-SURPASS,EC,I8F-JE-GPGO-SURPASS-JPN_KAWASAKI01-0018,49,TIRZEPATIDE,PERFORMED,Y,Y,,,10.0,,mg,INJECTION,QW,SUBCUTANEOUS,49.0,,TREATMENT,2025-02-19,2025-02-19,337,337
I8F-JE-GPGO-SURPASS,EC,I8F-JE-GPGO-SURPASS-JPN_KAWASAKI01-0018,50,TIRZEPATIDE,PERFORMED,Y,Y,,,10.0,,mg,INJECTION,QW,SUBCUTANEOUS,50.0,,TREATMENT,2025-02-26,2025-02-26,344,344
I8F-JE-GPGO-SURPASS,EC,I8F-JE-GPGO-SURPASS-JPN_KAWASAKI01-0018,51,TIRZEPATIDE,PERFORMED,Y,Y,,,10.0,,mg,INJECTION,QW,SUBCUTANEOUS,51.0,,TREATMENT,2025-03-05,2025-03-05,351,351
I8F-JE-GPGO-SURPASS,EC,I8F-JE-GPGO-SURPASS-JPN_KAWASAKI01-0018,52,TIRZEPATIDE,PERFORMED,Y,Y,,,10.0,,mg,INJECTION,QW,SUBCUTANEOUS,52.0,,TREATMENT,2025-03-12,2025-03-12,358,358
I8F-JE-GPGO-SURPASS,EC,I8F-JE-GPGO-SURPASS-JPN_KYOTO01-0003,1,TIRZEPATIDE,PERFORMED,Y,Y,,,2.5,,mg,INJECTION,QW,SUBCUTANEOUS,2.0,BASELINE,TREATMENT,2024-03-13,2024-03-13,1,1
I8F-JE-GPGO-SURPASS,EC,I8F-JE-GPGO-SURPASS-JPN_KYOTO01-0003,2,TIRZEPATIDE,SCHEDULED,Y,,NOT DONE,SUBJECT NON-COMPLIANCE,,,mg,INJECTION,QW,SUBCUTANEOUS,2.0,,TREATMENT,2024-03-20,2024-03-20,8,8
I8F-JE-GPGO-SURPASS,EC,I8F-JE-GPGO-SURPASS-JPN_KYOTO01-0003,3,TIRZEPATIDE,PERFORMED,Y,Y,,,2.5,,mg,INJECTION,QW,SUBCUTANEOUS,3.0,,TREATMENT,2024-03-27,2024-03-27,15,15
I8F-JE-GPGO-SURPASS,EC,I8F-JE-GPGO-SURPASS-JPN_KYOTO01-0003,4,TIRZEPATIDE,PERFORMED,Y,Y,,,2.5,,mg,INJECTION,QW,SUBCUTANEOUS,4.0,,TREATMENT,2024-04-03,2024-04-03,22,22
I8F-JE-GPGO-SURPASS,EC,I8F-JE-GPGO-SURPASS-JPN_KYOTO01-0003,5,TIRZEPATIDE,PERFORMED,Y,Y,,,5.0,,mg,INJECTION,QW,SUBCUTANEOUS,3.0,WEEK 4,TREATMENT,2024-04-10,2024-04-10,29,29
I8F-JE-GPGO-SURPASS,EC,I8F-JE-GPGO-SURPASS-JPN_KYOTO01-0003,6,TIRZEPATIDE,PERFORMED,Y,Y,,,5.0,,mg,INJECTION,QW,SUBCUTANEOUS,6.0,,TREATMENT,2024-04-17,2024-04-17,36,36
I8F-JE-GPGO-SURPASS,EC,I8F-JE-GPGO-SURPASS-JPN_KYOTO01-0003,7,TIRZEPATIDE,PERFORMED,Y,Y,,,5.0,,mg,INJECTION,QW,SUBCUTANEOUS,7.0,,TREATMENT,2024-04-24,2024-04-24,43,43
I8F-JE-GPGO-SURPASS,EC,I8F-JE-GPGO-SURPASS-JPN_KYOTO01-0003,8,TIRZEPATIDE,PERFORMED,Y,Y,,,5.0,,mg,INJECTION,QW,SUBCUTANEOUS,8.0,,TREATMENT,2024-05-01,2024-05-01,50,50
I8F-JE-GPGO-SURPASS,EC,I8F-JE-GPGO-SURPASS-JPN_KYOTO01-0003,9,TIRZEPATIDE,SCHEDULED,Y,,NOT DONE,SUBJECT NON-COMPLIANCE,,,mg,INJECTION,QW,SUBCUTANEOUS,4.0,WEEK 8,TREATMENT,2024-05-08,2024-05-08,57,57
I8F-JE-GPGO-SURPASS,EC,I8F-JE-GPGO-SURPASS-JPN_KYOTO01-0003,10,TIRZEPATIDE,PERFORMED,Y,Y,,,5.0,,mg,INJECTION,QW,SUBCUTANEOUS,10.0,,TREATMENT,2024-05-15,2024-05-15,64,64
I8F-JE-GPGO-SURPASS,EC,I8F-JE-GPGO-SURPASS-JPN_KYOTO01-0003,11,TIRZEPATIDE,PERFORMED,Y,Y,,,5.0,,mg,INJECTION,QW,SUBCUTANEOUS,11.0,,TREATMENT,2024-05-22,2024-05-22,71,71
I8F-JE-GPGO-SURPASS,EC,I8F-JE-GPGO-SURPASS-JPN_KYOTO01-0003,12,TIRZEPATIDE,PERFORMED,Y,Y,,,5.0,,mg,INJECTION,QW,SUBCUTANEOUS,12.0,,TREATMENT,2024-05-29,2024-05-29,78,78
I8F-JE-GPGO-SURPASS,EC,I8F-JE-GPGO-SURPASS-JPN_KYOTO01-0003,13,TIRZEPATIDE,PERFORMED,Y,Y,,,5.0,,mg,INJECTION,QW,SUBCUTANEOUS,5.0,WEEK 12,TREATMENT,2024-06-05,2024-06-05,85,85
I8F-JE-GPGO-SURPASS,EC,I8F-JE-GPGO-SURPASS-JPN_KYOTO01-0003,14,TIRZEPATIDE,PERFORMED,Y,Y,,,5.0,,mg,INJECTION,QW,SUBCUTANEOUS,14.0,,TREATMENT,2024-06-12,2024-06-12,92,92
I8F-JE-GPGO-SURPASS,EC,I8F-JE-GPGO-SURPASS-JPN_KYOTO01-0003,15,TIRZEPATIDE,PERFORMED,Y,Y,,,5.0,,mg,INJECTION,QW,SUBCUTANEOUS,15.0,,TREATMENT,2024-06-19,2024-06-19,99,99
I8F-JE-GPGO-SURPASS,EC,I8F-JE-GPGO-SURPASS-JPN_KYOTO01-0003,16,TIRZEPATIDE,PERFORMED,Y,Y,,,5.0,,mg,INJECTION,QW,SUBCUTANEOUS,16.0,,TREATMENT,2024-06-26,2024-06-26,106,106
I8F-JE-GPGO-SURPASS,EC,I8F-JE-GPGO-SURPASS-JPN_KYOTO01-0003,17,TIRZEPATIDE,PERFORMED,Y,Y,,,5.0,,mg,INJECTION,QW,SUBCUTANEOUS,6.0,WEEK 16,TREATMENT,2024-07-03,2024-07-03,113,113
I8F-JE-GPGO-SURPASS,EC,I8F-JE-GPGO-SURPASS-JPN_KYOTO01-0003,18,TIRZEPATIDE,PERFORMED,Y,Y,,,5.0,,mg,INJECTION,QW,SUBCUTANEOUS,18.0,,TREATMENT,2024-07-10,2024-07-10,120,120
I8F-JE-GPGO-SURPASS,EC,I8F-JE-GPGO-SURPASS-JPN_KYOTO01-0003,19,TIRZEPATIDE,PERFORMED,Y,Y,,,5.0,,mg,INJECTION,QW,SUBCUTANEOUS,19.0,,TREATMENT,2024-07-17,2024-07-17,127,127
I8F-JE-GPGO-SURPASS,EC,I8F-JE-GPGO-SURPASS-JPN_KYOTO01-0003,20,TIRZEPATIDE,PERFORMED,Y,Y,,,5.0,,mg,INJECTION,QW,SUBCUTANEOUS,20.0,,TREATMENT,2024-07-24,2024-07-24,134,134
I8F-JE-GPGO-SURPASS,EC,I8F-JE-GPGO-SURPASS-JPN_KYOTO01-0003,21,TIRZEPATIDE,PERFORMED,Y,Y,,,5.0,,mg,INJECTION,QW,SUBCUTANEOUS,7.0,WEEK 20,TREATMENT,2024-07-31,2024-07-31,141,141
I8F-JE-GPGO-SURPASS,EC,I8F-JE-GPGO-SURPASS-JPN_KYOTO01-0003,22,TIRZEPATIDE,PERFORMED,Y,Y,,,5.0,,mg,INJECTION,QW,SUBCUTANEOUS,22.0,,TREATMENT,2024-08-07,2024-08-07,148,148
I8F-JE-GPGO-SURPASS,EC,I8F-JE-GPGO-SURPASS-JPN_KYOTO01-0003,23,TIRZEPATIDE,PERFORMED,Y,Y,,,5.0,,mg,INJECTION,QW,SUBCUTANEOUS,23.0,,TREATMENT,2024-08-14,2024-08-14,155,155
I8F-JE-GPGO-SURPASS,EC,I8F-JE-GPGO-SURPASS-JPN_KYOTO01-0003,24,TIRZEPATIDE,PERFORMED,Y,Y,,,5.0,,mg,INJECTION,QW,SUBCUTANEOUS,24.0,,TREATMENT,2024-08-21,2024-08-21,162,162
I8F-JE-GPGO-SURPASS,EC,I8F-JE-GPGO-SURPASS-JPN_KYOTO01-0004,1,TIRZEPATIDE,PERFORMED,Y,Y,,,2.5,,mg,INJECTION,QW,SUBCUTANEOUS,2.0,BASELINE,TREATMENT,2024-03-28,2024-03-28,1,1
I8F-JE-GPGO-SURPASS,EC,I8F-JE-GPGO-SURPASS-JPN_KYOTO01-0004,2,TIRZEPATIDE,PERFORMED,Y,Y,,,2.5,,mg,INJECTION,QW,SUBCUTANEOUS,2.0,,TREATMENT,2024-04-04,2024-04-04,8,8
I8F-JE-GPGO-SURPASS,EC,I8F-JE-GPGO-SURPASS-JPN_KYOTO01-0004,3,TIRZEPATIDE,PERFORMED,Y,Y,,,2.5,,mg,INJECTION,QW,SUBCUTANEOUS,3.0,,TREATMENT,2024-04-11,2024-04-11,15,15
I8F-JE-GPGO-SURPASS,EC,I8F-JE-GPGO-SURPASS-JPN_KYOTO01-0004,4,TIRZEPATIDE,PERFORMED,Y,Y,,,2.5,,mg,INJECTION,QW,SUBCUTANEOUS,4.0,,TREATMENT,2024-04-18,2024-04-18,22,22
I8F-JE-GPGO-SURPASS,EC,I8F-JE-GPGO-SURPASS-JPN_KYOTO01-0004,5,TIRZEPATIDE,SCHEDULED,Y,,NOT DONE,SUBJECT NON-COMPLIANCE,,,mg,INJECTION,QW,SUBCUTANEOUS,3.0,WEEK 4,TREATMENT,2024-04-25,2024-04-25,29,29
I8F-JE-GPGO-SURPASS,EC,I8F-JE-GPGO-SURPASS-JPN_KYOTO01-0004,6,TIRZEPATIDE,SCHEDULED,Y,,NOT DONE,SUBJECT NON-COMPLIANCE,,,mg,INJECTION,QW,SUBCUTANEOUS,6.0,,TREATMENT,2024-05-02,2024-05-02,36,36
I8F-JE-GPGO-SURPASS,EC,I8F-JE-GPGO-SURPASS-JPN_KYOTO01-0004,7,TIRZEPATIDE,SCHEDULED,Y,,NOT DONE,SUBJECT NON-COMPLIANCE,,,mg,INJECTION,QW,SUBCUTANEOUS,7.0,,TREATMENT,2024-05-09,2024-05-09,43,43
I8F-JE-GPGO-SURPASS,EC,I8F-JE-GPGO-SURPASS-JPN_KYOTO01-0004,8,TIRZEPATIDE,PERFORMED,Y,Y,,,5.0,,mg,INJECTION,QW,SUBCUTANEOUS,8.0,,TREATMENT,2024-05-16,2024-05-16,50,50
I8F-JE-GPGO-SURPASS,EC,I8F-JE-GPGO-SURPASS-JPN_KYOTO01-0004,9,TIRZEPATIDE,PERFORMED,Y,Y,,,7.5,,mg,INJECTION,QW,SUBCUTANEOUS,4.0,WEEK 8,TREATMENT,2024-05-23,2024-05-23,57,57
I8F-JE-GPGO-SURPASS,EC,I8F-JE-GPGO-SURPASS-JPN_KYOTO01-0004,10,TIRZEPATIDE,PERFORMED,Y,Y,,,7.5,,mg,INJECTION,QW,SUBCUTANEOUS,10.0,,TREATMENT,2024-05-30,2024-05-30,64,64
I8F-JE-GPGO-SURPASS,EC,I8F-JE-GPGO-SURPASS-JPN_KYOTO01-0004,11,TIRZEPATIDE,PERFORMED,Y,Y,,,7.5,,mg,INJECTION,QW,SUBCUTANEOUS,11.0,,TREATMENT,2024-06-06,2024-06-06,71,71
I8F-JE-GPGO-SURPASS,EC,I8F-JE-GPGO-SURPASS-JPN_KYOTO01-0004,12,TIRZEPATIDE,PERFORMED,Y,Y,,,7.5,,mg,INJECTION,QW,SUBCUTANEOUS,12.0,,TREATMENT,2024-06-13,2024-06-13,78,78
I8F-JE-GPGO-SURPASS,EC,I8F-JE-GPGO-SURPASS-JPN_KYOTO01-0004,13,TIRZEPATIDE,PERFORMED,Y,Y,,,10.0,,mg,INJECTION,QW,SUBCUTANEOUS,5.0,WEEK 12,TREATMENT,2024-06-20,2024-06-20,85,85
I8F-JE-GPGO-SURPASS,EC,I8F-JE-GPGO-SURPASS-JPN_KYOTO01-0004,14,TIRZEPATIDE,PERFORMED,Y,Y,,,10.0,,mg,INJECTION,QW,SUBCUTANEOUS,14.0,,TREATMENT,2024-06-27,2024-06-27,92,92
I8F-JE-GPGO-SURPASS,EC,I8F-JE-GPGO-SURPASS-JPN_KYOTO01-0004,15,TIRZEPATIDE,PERFORMED,Y,Y,,,10.0,,mg,INJECTION,QW,SUBCUTANEOUS,15.0,,TREATMENT,2024-07-04,2024-07-04,99,99
I8F-JE-GPGO-SURPASS,EC,I8F-JE-GPGO-SURPASS-JPN_KYOTO01-0004,16,TIRZEPATIDE,PERFORMED,Y,Y,,,10.0,,mg,INJECTION,QW,SUBCUTANEOUS,16.0,,TREATMENT,2024-07-11,2024-07-11,106,106
I8F-JE-GPGO-SURPASS,EC,I8F-JE-GPGO-SURPASS-JPN_KYOTO01-0004,17,TIRZEPATIDE,PERFORMED,Y,Y,,,10.0,,mg,INJECTION,QW,SUBCUTANEOUS,6.0,WEEK 16,TREATMENT,2024-07-18,2024-07-18,113,113
I8F-JE-GPGO-SURPASS,EC,I8F-JE-GPGO-SURPASS-JPN_KYOTO01-0004,18,TIRZEPATIDE,PERFORMED,Y,Y,,,10.0,,mg,INJECTION,QW,SUBCUTANEOUS,18.0,,TREATMENT,2024-07-25,2024-07-25,120,120
I8F-JE-GPGO-SURPASS,EC,I8F-JE-GPGO-SURPASS-JPN_KYOTO01-0004,19,TIRZEPATIDE,PERFORMED,Y,Y,,,10.0,,mg,INJECTION,QW,SUBCUTANEOUS,19.0,,TREATMENT,2024-08-01,2024-08-01,127,127
I8F-JE-GPGO-SURPASS,EC,I8F-JE-GPGO-SURPASS-JPN_KYOTO01-0004,20,TIRZEPATIDE,SCHEDULED,Y,,NOT DONE,SUBJECT NON-COMPLIANCE,,,mg,INJECTION,QW,SUBCUTANEOUS,20.0,,TREATMENT,2024-08-08,2024-08-08,134,134
I8F-JE-GPGO-SURPASS,EC,I8F-JE-GPGO-SURPASS-JPN_KYOTO01-0004,21,TIRZEPATIDE,PERFORMED,Y,Y,,,10.0,,mg,INJECTION,QW,SUBCUTANEOUS,7.0,WEEK 20,TREATMENT,2024-08-15,2024-08-15,141,141
I8F-JE-GPGO-SURPASS,EC,I8F-JE-GPGO-SURPASS-JPN_KYOTO01-0004,22,TIRZEPATIDE,SCHEDULED,Y,,NOT DONE,SUBJECT NON-COMPLIANCE,,,mg,INJECTION,QW,SUBCUTANEOUS,22.0,,TREATMENT,2024-08-22,2024-08-22,148,148
I8F-JE-GPGO-SURPASS,EC,I8F-JE-GPGO-SURPASS-JPN_KYOTO01-0004,23,TIRZEPATIDE,PERFORMED,Y,Y,,,10.0,,mg,INJECTION,QW,SUBCUTANEOUS,23.0,,TREATMENT,2024-08-29,2024-08-29,155,155
I8F-JE-GPGO-SURPASS,EC,I8F-JE-GPGO-SURPASS-JPN_KYOTO01-0004,24,TIRZEPATIDE,PERFORMED,Y,Y,,,10.0,,mg,INJECTION,QW,SUBCUTANEOUS,24.0,,TREATMENT,2024-09-05,2024-09-05,162,162
I8F-JE-GPGO-SURPASS,EC,I8F-JE-GPGO-SURPASS-JPN_KYOTO01-0004,25,TIRZEPATIDE,PERFORMED,Y,Y,,,10.0,,mg,INJECTION,QW,SUBCUTANEOUS,8.0,WEEK 24,TREATMENT,2024-09-12,2024-09-12,169,169
I8F-JE-GPGO-SURPASS,EC,I8F-JE-GPGO-SURPASS-JPN_KYOTO01-0004,26,TIRZEPATIDE,PERFORMED,Y,Y,,,10.0,,mg,INJECTION,QW,SUBCUTANEOUS,26.0,,TREATMENT,2024-09-19,2024-09-19,176,176
I8F-JE-GPGO-SURPASS,EC,I8F-JE-GPGO-SURPASS-JPN_KYOTO01-0004,27,TIRZEPATIDE,PERFORMED,Y,Y,,,10.0,,mg,INJECTION,QW,SUBCUTANEOUS,27.0,,TREATMENT,2024-09-26,2024-09-26,183,183
I8F-JE-GPGO-SURPASS,EC,I8F-JE-GPGO-SURPASS-JPN_KYOTO01-0004,28,TIRZEPATIDE,PERFORMED,Y,Y,,,10.0,,mg,INJECTION,QW,SUBCUTANEOUS,28.0,,TREATMENT,2024-10-03,2024-10-03,190,190
I8F-JE-GPGO-SURPASS,EC,I8F-JE-GPGO-SURPASS-JPN_KYOTO01-0004,29,TIRZEPATIDE,PERFORMED,Y,Y,,,10.0,,mg,INJECTION,QW,SUBCUTANEOUS,29.0,,TREATMENT,2024-10-10,2024-10-10,197,197
I8F-JE-GPGO-SURPASS,EC,I8F-JE-GPGO-SURPASS-JPN_KYOTO01-0004,30,TIRZEPATIDE,PERFORMED,Y,Y,,,10.0,,mg,INJECTION,QW,SUBCUTANEOUS,30.0,,TREATMENT,2024-10-17,2024-10-17,204,204
I8F-JE-GPGO-SURPASS,EC,I8F-JE-GPGO-SURPASS-JPN_KYOTO01-0004,31,TIRZEPATIDE,PERFORMED,Y,Y,,,10.0,,mg,INJECTION,QW,SUBCUTANEOUS,31.0,,TREATMENT,2024-10-24,2024-10-24,211,211
I8F-JE-GPGO-SURPASS,EC,I8F-JE-GPGO-SURPASS-JPN_KYOTO01-0004,32,TIRZEPATIDE,PERFORMED,Y,Y,,,10.0,,mg,INJECTION,QW,SUBCUTANEOUS,32.0,,TREATMENT,2024-10-31,2024-10-31,218,218
I8F-JE-GPGO-SURPASS,EC,I8F-JE-GPGO-SURPASS-JPN_KYOTO01-0004,33,TIRZEPATIDE,PERFORMED,Y,Y,,,10.0,,mg,INJECTION,QW,SUBCUTANEOUS,9.0,WEEK 32,TREATMENT,2024-11-07,2024-11-07,225,225
I8F-JE-GPGO-SURPASS,EC,I8F-JE-GPGO-SURPASS-JPN_KYOTO01-0004,34,TIRZEPATIDE,PERFORMED,Y,Y,,,10.0,,mg,INJECTION,QW,SUBCUTANEOUS,34.0,,TREATMENT,2024-11-14,2024-11-14,232,232
I8F-JE-GPGO-SURPASS,EC,I8F-JE-GPGO-SURPASS-JPN_KYOTO01-0004,35,TIRZEPATIDE,PERFORMED,Y,Y,,,10.0,,mg,INJECTION,QW,SUBCUTANEOUS,35.0,,TREATMENT,2024-11-21,2024-11-21,239,239
I8F-JE-GPGO-SURPASS,EC,I8F-JE-GPGO-SURPASS-JPN_KYOTO01-0004,36,TIRZEPATIDE,PERFORMED,Y,Y,,,10.0,,mg,INJECTION,QW,SUBCUTANEOUS,36.0,,TREATMENT,2024-11-28,2024-11-28,246,246
I8F-JE-GPGO-SURPASS,EC,I8F-JE-GPGO-SURPASS-JPN_KYOTO01-0004,37,TIRZEPATIDE,SCHEDULED,Y,,NOT DONE,SUBJECT NON-COMPLIANCE,,,mg,INJECTION,QW,SUBCUTANEOUS,37.0,,TREATMENT,2024-12-05,2024-12-05,253,253
I8F-JE-GPGO-SURPASS,EC,I8F-JE-GPGO-SURPASS-JPN_KYOTO01-0004,38,TIRZEPATIDE,PERFORMED,Y,Y,,,10.0,,mg,INJECTION,QW,SUBCUTANEOUS,38.0,,TREATMENT,2024-12-12,2024-12-12,260,260
I8F-JE-GPGO-SURPASS,EC,I8F-JE-GPGO-SURPASS-JPN_KYOTO01-0004,39,TIRZEPATIDE,PERFORMED,Y,Y,,,10.0,,mg,INJECTION,QW,SUBCUTANEOUS,39.0,,TREATMENT,2024-12-19,2024-12-19,267,267
I8F-JE-GPGO-SURPASS,EC,I8F-JE-GPGO-SURPASS-JPN_KYOTO01-0004,40,TIRZEPATIDE,PERFORMED,Y,Y,,,10.0,,mg,INJECTION,QW,SUBCUTANEOUS,40.0,,TREATMENT,2024-12-26,2024-12-26,274,274
I8F-JE-GPGO-SURPASS,EC,I8F-JE-GPGO-SURPASS-JPN_KYOTO01-0004,41,TIRZEPATIDE,PERFORMED,Y,Y,,,10.0,,mg,INJECTION,QW,SUBCUTANEOUS,10.0,WEEK 40,TREATMENT,2025-01-02,2025-01-02,281,281
I8F-JE-GPGO-SURPASS,EC,I8F-JE-GPGO-SURPASS-JPN_KYOTO01-0004,42,TIRZEPATIDE,PERFORMED,Y,Y,,,10.0,,mg,INJECTION,QW,SUBCUTANEOUS,42.0,,TREATMENT,2025-01-09,2025-01-09,288,288
I8F-JE-GPGO-SURPASS,EC,I8F-JE-GPGO-SURPASS-JPN_KYOTO01-0004,43,TIRZEPATIDE,PERFORMED,Y,Y,,,10.0,,mg,INJECTION,QW,SUBCUTANEOUS,43.0,,TREATMENT,2025-01-16,2025-01-16,295,295
I8F-JE-GPGO-SURPASS,EC,I8F-JE-GPGO-SURPASS-JPN_KYOTO01-0004,44,TIRZEPATIDE,PERFORMED,Y,Y,,,10.0,,mg,INJECTION,QW,SUBCUTANEOUS,44.0,,TREATMENT,2025-01-23,2025-01-23,302,302
I8F-JE-GPGO-SURPASS,EC,I8F-JE-GPGO-SURPASS-JPN_KYOTO01-0004,45,TIRZEPATIDE,PERFORMED,Y,Y,,,10.0,,mg,INJECTION,QW,SUBCUTANEOUS,45.0,,TREATMENT,2025-01-30,2025-01-30,309,309
I8F-JE-GPGO-SURPASS,EC,I8F-JE-GPGO-SURPASS-JPN_KYOTO01-0004,46,TIRZEPATIDE,PERFORMED,Y,Y,,,10.0,,mg,INJECTION,QW,SUBCUTANEOUS,46.0,,TREATMENT,2025-02-06,2025-02-06,316,316
I8F-JE-GPGO-SURPASS,EC,I8F-JE-GPGO-SURPASS-JPN_KYOTO01-0004,47,TIRZEPATIDE,PERFORMED,Y,Y,,,10.0,,mg,INJECTION,QW,SUBCUTANEOUS,47.0,,TREATMENT,2025-02-13,2025-02-13,323,323
I8F-JE-GPGO-SURPASS,EC,I8F-JE-GPGO-SURPASS-JPN_KYOTO01-0004,48,TIRZEPATIDE,PERFORMED,Y,Y,,,10.0,,mg,INJECTION,QW,SUBCUTANEOUS,48.0,,TREATMENT,2025-02-20,2025-02-20,330,330
I8F-JE-GPGO-SURPASS,EC,I8F-JE-GPGO-SURPASS-JPN_KYOTO01-0004,49,TIRZEPATIDE,PERFORMED,Y,Y,,,10.0,,mg,INJECTION,QW,SUBCUTANEOUS,49.0,,TREATMENT,2025-02-27,2025-02-27,337,337
I8F-JE-GPGO-SURPASS,EC,I8F-JE-GPGO-SURPASS-JPN_KYOTO01-0004,50,TIRZEPATIDE,PERFORMED,Y,Y,,,10.0,,mg,INJECTION,QW,SUBCUTANEOUS,50.0,,TREATMENT,2025-03-06,2025-03-06,344,344
I8F-JE-GPGO-SURPASS,EC,I8F-JE-GPGO-SURPASS-JPN_KYOTO01-0004,51,TIRZEPATIDE,PERFORMED,Y,Y,,,10.0,,mg,INJECTION,QW,SUBCUTANEOUS,51.0,,TREATMENT,2025-03-13,2025-03-13,351,351
I8F-JE-GPGO-SURPASS,EC,I8F-JE-GPGO-SURPASS-JPN_KYOTO01-0004,52,TIRZEPATIDE,PERFORMED,Y,Y,,,10.0,,mg,INJECTION,QW,SUBCUTANEOUS,52.0,,TREATMENT,2025-03-20,2025-03-20,358,358
I8F-JE-GPGO-SURPASS,EC,I8F-JE-GPGO-SURPASS-JPN_KYOTO01-0007,1,DULAGLUTIDE,PERFORMED,Y,Y,,,0.75,,mg,INJECTION,QW,SUBCUTANEOUS,2.0,BASELINE,TREATMENT,2024-03-28,2024-03-28,1,1
I8F-JE-GPGO-SURPASS,EC,I8F-JE-GPGO-SURPASS-JPN_KYOTO01-0007,2,DULAGLUTIDE,PERFORMED,Y,Y,,,0.75,,mg,INJECTION,QW,SUBCUTANEOUS,2.0,,TREATMENT,2024-04-04,2024-04-04,8,8
I8F-JE-GPGO-SURPASS,EC,I8F-JE-GPGO-SURPASS-JPN_KYOTO01-0007,3,DULAGLUTIDE,PERFORMED,Y,Y,,,0.75,,mg,INJECTION,QW,SUBCUTANEOUS,3.0,,TREATMENT,2024-04-11,2024-04-11,15,15
I8F-JE-GPGO-SURPASS,EC,I8F-JE-GPGO-SURPASS-JPN_KYOTO01-0007,4,DULAGLUTIDE,PERFORMED,Y,Y,,,0.75,,mg,INJECTION,QW,SUBCUTANEOUS,4.0,,TREATMENT,2024-04-18,2024-04-18,22,22
I8F-JE-GPGO-SURPASS,EC,I8F-JE-GPGO-SURPASS-JPN_KYOTO01-0007,5,DULAGLUTIDE,PERFORMED,Y,Y,,,0.75,,mg,INJECTION,QW,SUBCUTANEOUS,3.0,WEEK 4,TREATMENT,2024-04-25,2024-04-25,29,29
I8F-JE-GPGO-SURPASS,EC,I8F-JE-GPGO-SURPASS-JPN_KYOTO01-0007,6,DULAGLUTIDE,PERFORMED,Y,Y,,,0.75,,mg,INJECTION,QW,SUBCUTANEOUS,6.0,,TREATMENT,2024-05-02,2024-05-02,36,36
I8F-JE-GPGO-SURPASS,EC,I8F-JE-GPGO-SURPASS-JPN_KYOTO01-0007,7,DULAGLUTIDE,PERFORMED,Y,Y,,,0.75,,mg,INJECTION,QW,SUBCUTANEOUS,7.0,,TREATMENT,2024-05-09,2024-05-09,43,43
I8F-JE-GPGO-SURPASS,EC,I8F-JE-GPGO-SURPASS-JPN_KYOTO01-0007,8,DULAGLUTIDE,PERFORMED,Y,Y,,,0.75,,mg,INJECTION,QW,SUBCUTANEOUS,8.0,,TREATMENT,2024-05-16,2024-05-16,50,50
I8F-JE-GPGO-SURPASS,EC,I8F-JE-GPGO-SURPASS-JPN_KYOTO01-0007,9,DULAGLUTIDE,SCHEDULED,Y,,NOT DONE,SUBJECT NON-COMPLIANCE,,,mg,INJECTION,QW,SUBCUTANEOUS,4.0,WEEK 8,TREATMENT,2024-05-23,2024-05-23,57,57
I8F-JE-GPGO-SURPASS,EC,I8F-JE-GPGO-SURPASS-JPN_KYOTO01-0007,10,DULAGLUTIDE,PERFORMED,Y,Y,,,0.75,,mg,INJECTION,QW,SUBCUTANEOUS,10.0,,TREATMENT,2024-05-30,2024-05-30,64,64
I8F-JE-GPGO-SURPASS,EC,I8F-JE-GPGO-SURPASS-JPN_KYOTO01-0007,11,DULAGLUTIDE,PERFORMED,Y,Y,,,0.75,,mg,INJECTION,QW,SUBCUTANEOUS,11.0,,TREATMENT,2024-06-06,2024-06-06,71,71
I8F-JE-GPGO-SURPASS,EC,I8F-JE-GPGO-SURPASS-JPN_KYOTO01-0007,12,DULAGLUTIDE,PERFORMED,Y,Y,,,0.75,,mg,INJECTION,QW,SUBCUTANEOUS,12.0,,TREATMENT,2024-06-13,2024-06-13,78,78
I8F-JE-GPGO-SURPASS,EC,I8F-JE-GPGO-SURPASS-JPN_KYOTO01-0007,13,DULAGLUTIDE,PERFORMED,Y,Y,,,0.75,,mg,INJECTION,QW,SUBCUTANEOUS,5.0,WEEK 12,TREATMENT,2024-06-20,2024-06-20,85,85
I8F-JE-GPGO-SURPASS,EC,I8F-JE-GPGO-SURPASS-JPN_KYOTO01-0007,14,DULAGLUTIDE,PERFORMED,Y,Y,,,0.75,,mg,INJECTION,QW,SUBCUTANEOUS,14.0,,TREATMENT,2024-06-27,2024-06-27,92,92
I8F-JE-GPGO-SURPASS,EC,I8F-JE-GPGO-SURPASS-JPN_KYOTO01-0007,15,DULAGLUTIDE,SCHEDULED,Y,,NOT DONE,SUBJECT NON-COMPLIANCE,,,mg,INJECTION,QW,SUBCUTANEOUS,15.0,,TREATMENT,2024-07-04,2024-07-04,99,99
I8F-JE-GPGO-SURPASS,EC,I8F-JE-GPGO-SURPASS-JPN_NAGOYA01-0001,1,TIRZEPATIDE,SCHEDULED,Y,,NOT DONE,SUBJECT NON-COMPLIANCE,,,mg,INJECTION,QW,SUBCUTANEOUS,2.0,BASELINE,TREATMENT,2024-04-25,2024-04-25,1,1
I8F-JE-GPGO-SURPASS,EC,I8F-JE-GPGO-SURPASS-JPN_NAGOYA01-0001,2,TIRZEPATIDE,PERFORMED,Y,Y,,,2.5,,mg,INJECTION,QW,SUBCUTANEOUS,2.0,,TREATMENT,2024-05-02,2024-05-02,8,8
I8F-JE-GPGO-SURPASS,EC,I8F-JE-GPGO-SURPASS-JPN_NAGOYA01-0001,3,TIRZEPATIDE,PERFORMED,Y,Y,,,2.5,,mg,INJECTION,QW,SUBCUTANEOUS,3.0,,TREATMENT,2024-05-09,2024-05-09,15,15
I8F-JE-GPGO-SURPASS,EC,I8F-JE-GPGO-SURPASS-JPN_NAGOYA01-0001,4,TIRZEPATIDE,PERFORMED,Y,Y,,,2.5,,mg,INJECTION,QW,SUBCUTANEOUS,4.0,,TREATMENT,2024-05-16,2024-05-16,22,22
I8F-JE-GPGO-SURPASS,EC,I8F-JE-GPGO-SURPASS-JPN_NAGOYA01-0001,5,TIRZEPATIDE,SCHEDULED,Y,,NOT DONE,SUBJECT NON-COMPLIANCE,,,mg,INJECTION,QW,SUBCUTANEOUS,3.0,WEEK 4,TREATMENT,2024-05-23,2024-05-23,29,29
I8F-JE-GPGO-SURPASS,EC,I8F-JE-GPGO-SURPASS-JPN_NAGOYA01-0001,6,TIRZEPATIDE,PERFORMED,Y,Y,,,5.0,,mg,INJECTION,QW,SUBCUTANEOUS,6.0,,TREATMENT,2024-05-30,2024-05-30,36,36
I8F-JE-GPGO-SURPASS,EC,I8F-JE-GPGO-SURPASS-JPN_NAGOYA01-0001,7,TIRZEPATIDE,PERFORMED,Y,Y,,,5.0,,mg,INJECTION,QW,SUBCUTANEOUS,7.0,,TREATMENT,2024-06-06,2024-06-06,43,43
I8F-JE-GPGO-SURPASS,EC,I8F-JE-GPGO-SURPASS-JPN_NAGOYA01-0001,8,TIRZEPATIDE,PERFORMED,Y,Y,,,5.0,,mg,INJECTION,QW,SUBCUTANEOUS,8.0,,TREATMENT,2024-06-13,2024-06-13,50,50
I8F-JE-GPGO-SURPASS,EC,I8F-JE-GPGO-SURPASS-JPN_NAGOYA01-0001,9,TIRZEPATIDE,PERFORMED,Y,Y,,,5.0,,mg,INJECTION,QW,SUBCUTANEOUS,4.0,WEEK 8,TREATMENT,2024-06-20,2024-06-20,57,57
I8F-JE-GPGO-SURPASS,EC,I8F-JE-GPGO-SURPASS-JPN_NAGOYA01-0001,10,TIRZEPATIDE,PERFORMED,Y,Y,,,5.0,,mg,INJECTION,QW,SUBCUTANEOUS,10.0,,TREATMENT,2024-06-27,2024-06-27,64,64
I8F-JE-GPGO-SURPASS,EC,I8F-JE-GPGO-SURPASS-JPN_NAGOYA01-0001,11,TIRZEPATIDE,PERFORMED,Y,Y,,,5.0,,mg,INJECTION,QW,SUBCUTANEOUS,11.0,,TREATMENT,2024-07-04,2024-07-04,71,71
I8F-JE-GPGO-SURPASS,EC,I8F-JE-GPGO-SURPASS-JPN_NAGOYA01-0001,12,TIRZEPATIDE,PERFORMED,Y,Y,,,5.0,,mg,INJECTION,QW,SUBCUTANEOUS,12.0,,TREATMENT,2024-07-11,2024-07-11,78,78
I8F-JE-GPGO-SURPASS,EC,I8F-JE-GPGO-SURPASS-JPN_NAGOYA01-0001,13,TIRZEPATIDE,PERFORMED,Y,Y,,,5.0,,mg,INJECTION,QW,SUBCUTANEOUS,5.0,WEEK 12,TREATMENT,2024-07-18,2024-07-18,85,85
I8F-JE-GPGO-SURPASS,EC,I8F-JE-GPGO-SURPASS-JPN_NAGOYA01-0001,14,TIRZEPATIDE,PERFORMED,Y,Y,,,5.0,,mg,INJECTION,QW,SUBCUTANEOUS,14.0,,TREATMENT,2024-07-25,2024-07-25,92,92
I8F-JE-GPGO-SURPASS,EC,I8F-JE-GPGO-SURPASS-JPN_NAGOYA01-0001,15,TIRZEPATIDE,PERFORMED,Y,Y,,,5.0,,mg,INJECTION,QW,SUBCUTANEOUS,15.0,,TREATMENT,2024-08-01,2024-08-01,99,99
I8F-JE-GPGO-SURPASS,EC,I8F-JE-GPGO-SURPASS-JPN_NAGOYA01-0001,16,TIRZEPATIDE,PERFORMED,Y,Y,,,5.0,,mg,INJECTION,QW,SUBCUTANEOUS,16.0,,TREATMENT,2024-08-08,2024-08-08,106,106
I8F-JE-GPGO-SURPASS,EC,I8F-JE-GPGO-SURPASS-JPN_NAGOYA01-0001,17,TIRZEPATIDE,SCHEDULED,Y,,NOT DONE,SUBJECT NON-COMPLIANCE,,,mg,INJECTION,QW,SUBCUTANEOUS,6.0,WEEK 16,TREATMENT,2024-08-15,2024-08-15,113,113
I8F-JE-GPGO-SURPASS,EC,I8F-JE-GPGO-SURPASS-JPN_NAGOYA01-0001,18,TIRZEPATIDE,SCHEDULED,Y,,NOT DONE,SUBJECT NON-COMPLIANCE,,,mg,INJECTION,QW,SUBCUTANEOUS,18.0,,TREATMENT,2024-08-22,2024-08-22,120,120
I8F-JE-GPGO-SURPASS,EC,I8F-JE-GPGO-SURPASS-JPN_NAGOYA01-0001,19,TIRZEPATIDE,PERFORMED,Y,Y,,,5.0,,mg,INJECTION,QW,SUBCUTANEOUS,19.0,,TREATMENT,2024-08-29,2024-08-29,127,127
I8F-JE-GPGO-SURPASS,EC,I8F-JE-GPGO-SURPASS-JPN_NAGOYA01-0001,20,TIRZEPATIDE,SCHEDULED,Y,,NOT DONE,SUBJECT NON-COMPLIANCE,,,mg,INJECTION,QW,SUBCUTANEOUS,20.0,,TREATMENT,2024-09-05,2024-09-05,134,134
I8F-JE-GPGO-SURPASS,EC,I8F-JE-GPGO-SURPASS-JPN_NAGOYA01-0001,21,TIRZEPATIDE,PERFORMED,Y,Y,,,5.0,,mg,INJECTION,QW,SUBCUTANEOUS,7.0,WEEK 20,TREATMENT,2024-09-12,2024-09-12,141,141
I8F-JE-GPGO-SURPASS,EC,I8F-JE-GPGO-SURPASS-JPN_NAGOYA01-0001,22,TIRZEPATIDE,PERFORMED,Y,Y,,,5.0,,mg,INJECTION,QW,SUBCUTANEOUS,22.0,,TREATMENT,2024-09-19,2024-09-19,148,148
I8F-JE-GPGO-SURPASS,EC,I8F-JE-GPGO-SURPASS-JPN_NAGOYA01-0001,23,TIRZEPATIDE,PERFORMED,Y,Y,,,5.0,,mg,INJECTION,QW,SUBCUTANEOUS,23.0,,TREATMENT,2024-09-26,2024-09-26,155,155
I8F-JE-GPGO-SURPASS,EC,I8F-JE-GPGO-SURPASS-JPN_NAGOYA01-0001,24,TIRZEPATIDE,PERFORMED,Y,Y,,,5.0,,mg,INJECTION,QW,SUBCUTANEOUS,24.0,,TREATMENT,2024-10-03,2024-10-03,162,162
I8F-JE-GPGO-SURPASS,EC,I8F-JE-GPGO-SURPASS-JPN_NAGOYA01-0001,25,TIRZEPATIDE,PERFORMED,Y,Y,,,5.0,,mg,INJECTION,QW,SUBCUTANEOUS,8.0,WEEK 24,TREATMENT,2024-10-10,2024-10-10,169,169
I8F-JE-GPGO-SURPASS,EC,I8F-JE-GPGO-SURPASS-JPN_NAGOYA01-0001,26,TIRZEPATIDE,PERFORMED,Y,Y,,,5.0,,mg,INJECTION,QW,SUBCUTANEOUS,26.0,,TREATMENT,2024-10-17,2024-10-17,176,176
I8F-JE-GPGO-SURPASS,EC,I8F-JE-GPGO-SURPASS-JPN_NAGOYA01-0001,27,TIRZEPATIDE,PERFORMED,Y,Y,,,5.0,,mg,INJECTION,QW,SUBCUTANEOUS,27.0,,TREATMENT,2024-10-24,2024-10-24,183,183
I8F-JE-GPGO-SURPASS,EC,I8F-JE-GPGO-SURPASS-JPN_NAGOYA01-0001,28,TIRZEPATIDE,PERFORMED,Y,Y,,,5.0,,mg,INJECTION,QW,SUBCUTANEOUS,28.0,,TREATMENT,2024-10-31,2024-10-31,190,190
I8F-JE-GPGO-SURPASS,EC,I8F-JE-GPGO-SURPASS-JPN_NAGOYA01-0001,29,TIRZEPATIDE,PERFORMED,Y,Y,,,5.0,,mg,INJECTION,QW,SUBCUTANEOUS,29.0,,TREATMENT,2024-11-07,2024-11-07,197,197
I8F-JE-GPGO-SURPASS,EC,I8F-JE-GPGO-SURPASS-JPN_NAGOYA01-0001,30,TIRZEPATIDE,PERFORMED,Y,Y,,,5.0,,mg,INJECTION,QW,SUBCUTANEOUS,30.0,,TREATMENT,2024-11-14,2024-11-14,204,204
I8F-JE-GPGO-SURPASS,EC,I8F-JE-GPGO-SURPASS-JPN_NAGOYA01-0001,31,TIRZEPATIDE,PERFORMED,Y,Y,,,5.0,,mg,INJECTION,QW,SUBCUTANEOUS,31.0,,TREATMENT,2024-11-21,2024-11-21,211,211
I8F-JE-GPGO-SURPASS,EC,I8F-JE-GPGO-SURPASS-JPN_NAGOYA01-0001,32,TIRZEPATIDE,PERFORMED,Y,Y,,,5.0,,mg,INJECTION,QW,SUBCUTANEOUS,32.0,,TREATMENT,2024-11-28,2024-11-28,218,218
I8F-JE-GPGO-SURPASS,EC,I8F-JE-GPGO-SURPASS-JPN_NAGOYA01-0001,33,TIRZEPATIDE,PERFORMED,Y,Y,,,5.0,,mg,INJECTION,QW,SUBCUTANEOUS,9.0,WEEK 32,TREATMENT,2024-12-05,2024-12-05,225,225
I8F-JE-GPGO-SURPASS,EC,I8F-JE-GPGO-SURPASS-JPN_NAGOYA01-0001,34,TIRZEPATIDE,SCHEDULED,Y,,NOT DONE,SUBJECT NON-COMPLIANCE,,,mg,INJECTION,QW,SUBCUTANEOUS,34.0,,TREATMENT,2024-12-12,2024-12-12,232,232
I8F-JE-GPGO-SURPASS,EC,I8F-JE-GPGO-SURPASS-JPN_NAGOYA01-0001,35,TIRZEPATIDE,PERFORMED,Y,Y,,,5.0,,mg,INJECTION,QW,SUBCUTANEOUS,35.0,,TREATMENT,2024-12-19,2024-12-19,239,239
I8F-JE-GPGO-SURPASS,EC,I8F-JE-GPGO-SURPASS-JPN_NAGOYA01-0001,36,TIRZEPATIDE,PERFORMED,Y,Y,,,5.0,,mg,INJECTION,QW,SUBCUTANEOUS,36.0,,TREATMENT,2024-12-26,2024-12-26,246,246
I8F-JE-GPGO-SURPASS,EC,I8F-JE-GPGO-SURPASS-JPN_NAGOYA01-0001,37,TIRZEPATIDE,PERFORMED,Y,Y,,,5.0,,mg,INJECTION,QW,SUBCUTANEOUS,37.0,,TREATMENT,2025-01-02,2025-01-02,253,253
I8F-JE-GPGO-SURPASS,EC,I8F-JE-GPGO-SURPASS-JPN_NAGOYA01-0001,38,TIRZEPATIDE,PERFORMED,Y,Y,,,5.0,,mg,INJECTION,QW,SUBCUTANEOUS,38.0,,TREATMENT,2025-01-09,2025-01-09,260,260
I8F-JE-GPGO-SURPASS,EC,I8F-JE-GPGO-SURPASS-JPN_NAGOYA01-0001,39,TIRZEPATIDE,PERFORMED,Y,Y,,,5.0,,mg,INJECTION,QW,SUBCUTANEOUS,39.0,,TREATMENT,2025-01-16,2025-01-16,267,267
I8F-JE-GPGO-SURPASS,EC,I8F-JE-GPGO-SURPASS-JPN_NAGOYA01-0001,40,TIRZEPATIDE,PERFORMED,Y,Y,,,5.0,,mg,INJECTION,QW,SUBCUTANEOUS,40.0,,TREATMENT,2025-01-23,2025-01-23,274,274
I8F-JE-GPGO-SURPASS,EC,I8F-JE-GPGO-SURPASS-JPN_NAGOYA01-0001,41,TIRZEPATIDE,PERFORMED,Y,Y,,,5.0,,mg,INJECTION,QW,SUBCUTANEOUS,10.0,WEEK 40,TREATMENT,2025-01-30,2025-01-30,281,281
I8F-JE-GPGO-SURPASS,EC,I8F-JE-GPGO-SURPASS-JPN_NAGOYA01-0001,42,TIRZEPATIDE,PERFORMED,Y,Y,,,5.0,,mg,INJECTION,QW,SUBCUTANEOUS,42.0,,TREATMENT,2025-02-06,2025-02-06,288,288
I8F-JE-GPGO-SURPASS,EC,I8F-JE-GPGO-SURPASS-JPN_NAGOYA01-0001,43,TIRZEPATIDE,PERFORMED,Y,Y,,,5.0,,mg,INJECTION,QW,SUBCUTANEOUS,43.0,,TREATMENT,2025-02-13,2025-02-13,295,295
I8F-JE-GPGO-SURPASS,EC,I8F-JE-GPGO-SURPASS-JPN_NAGOYA01-0001,44,TIRZEPATIDE,PERFORMED,Y,Y,,,5.0,,mg,INJECTION,QW,SUBCUTANEOUS,44.0,,TREATMENT,2025-02-20,2025-02-20,302,302
I8F-JE-GPGO-SURPASS,EC,I8F-JE-GPGO-SURPASS-JPN_NAGOYA01-0001,45,TIRZEPATIDE,PERFORMED,Y,Y,,,5.0,,mg,INJECTION,QW,SUBCUTANEOUS,45.0,,TREATMENT,2025-02-27,2025-02-27,309,309
I8F-JE-GPGO-SURPASS,EC,I8F-JE-GPGO-SURPASS-JPN_NAGOYA01-0001,46,TIRZEPATIDE,PERFORMED,Y,Y,,,5.0,,mg,INJECTION,QW,SUBCUTANEOUS,46.0,,TREATMENT,2025-03-06,2025-03-06,316,316
I8F-JE-GPGO-SURPASS,EC,I8F-JE-GPGO-SURPASS-JPN_NAGOYA01-0001,47,TIRZEPATIDE,PERFORMED,Y,Y,,,5.0,,mg,INJECTION,QW,SUBCUTANEOUS,47.0,,TREATMENT,2025-03-13,2025-03-13,323,323
I8F-JE-GPGO-SURPASS,EC,I8F-JE-GPGO-SURPASS-JPN_NAGOYA01-0001,48,TIRZEPATIDE,PERFORMED,Y,Y,,,5.0,,mg,INJECTION,QW,SUBCUTANEOUS,48.0,,TREATMENT,2025-03-20,2025-03-20,330,330
I8F-JE-GPGO-SURPASS,EC,I8F-JE-GPGO-SURPASS-JPN_NAGOYA01-0001,49,TIRZEPATIDE,PERFORMED,Y,Y,,,5.0,,mg,INJECTION,QW,SUBCUTANEOUS,49.0,,TREATMENT,2025-03-27,2025-03-27,337,337
I8F-JE-GPGO-SURPASS,EC,I8F-JE-GPGO-SURPASS-JPN_NAGOYA01-0001,50,TIRZEPATIDE,PERFORMED,Y,Y,,,5.0,,mg,INJECTION,QW,SUBCUTANEOUS,50.0,,TREATMENT,2025-04-03,2025-04-03,344,344
I8F-JE-GPGO-SURPASS,EC,I8F-JE-GPGO-SURPASS-JPN_NAGOYA01-0001,51,TIRZEPATIDE,PERFORMED,Y,Y,,,5.0,,mg,INJECTION,QW,SUBCUTANEOUS,51.0,,TREATMENT,2025-04-10,2025-04-10,351,351
I8F-JE-GPGO-SURPASS,EC,I8F-JE-GPGO-SURPASS-JPN_NAGOYA01-0001,52,TIRZEPATIDE,PERFORMED,Y,Y,,,5.0,,mg,INJECTION,QW,SUBCUTANEOUS,52.0,,TREATMENT,2025-04-17,2025-04-17,358,358
I8F-JE-GPGO-SURPASS,EC,I8F-JE-GPGO-SURPASS-JPN_OSAKA01-0002,1,TIRZEPATIDE,PERFORMED,Y,Y,,,2.5,,mg,INJECTION,QW,SUBCUTANEOUS,2.0,BASELINE,TREATMENT,2024-02-25,2024-02-25,1,1
I8F-JE-GPGO-SURPASS,EC,I8F-JE-GPGO-SURPASS-JPN_OSAKA01-0002,2,TIRZEPATIDE,PERFORMED,Y,Y,,,2.5,,mg,INJECTION,QW,SUBCUTANEOUS,2.0,,TREATMENT,2024-03-03,2024-03-03,8,8
I8F-JE-GPGO-SURPASS,EC,I8F-JE-GPGO-SURPASS-JPN_OSAKA01-0002,3,TIRZEPATIDE,PERFORMED,Y,Y,,,2.5,,mg,INJECTION,QW,SUBCUTANEOUS,3.0,,TREATMENT,2024-03-10,2024-03-10,15,15
I8F-JE-GPGO-SURPASS,EC,I8F-JE-GPGO-SURPASS-JPN_OSAKA01-0002,4,TIRZEPATIDE,PERFORMED,Y,Y,,,2.5,,mg,INJECTION,QW,SUBCUTANEOUS,4.0,,TREATMENT,2024-03-17,2024-03-17,22,22
I8F-JE-GPGO-SURPASS,EC,I8F-JE-GPGO-SURPASS-JPN_OSAKA01-0002,5,TIRZEPATIDE,PERFORMED,Y,Y,,,5.0,,mg,INJECTION,QW,SUBCUTANEOUS,3.0,WEEK 4,TREATMENT,2024-03-24,2024-03-24,29,29
I8F-JE-GPGO-SURPASS,EC,I8F-JE-GPGO-SURPASS-JPN_OSAKA01-0002,6,TIRZEPATIDE,PERFORMED,Y,Y,,,5.0,,mg,INJECTION,QW,SUBCUTANEOUS,6.0,,TREATMENT,2024-03-31,2024-03-31,36,36
I8F-JE-GPGO-SURPASS,EC,I8F-JE-GPGO-SURPASS-JPN_OSAKA01-0002,7,TIRZEPATIDE,PERFORMED,Y,Y,,,5.0,,mg,INJECTION,QW,SUBCUTANEOUS,7.0,,TREATMENT,2024-04-07,2024-04-07,43,43
I8F-JE-GPGO-SURPASS,EC,I8F-JE-GPGO-SURPASS-JPN_OSAKA01-0002,8,TIRZEPATIDE,PERFORMED,Y,Y,,,5.0,,mg,INJECTION,QW,SUBCUTANEOUS,8.0,,TREATMENT,2024-04-14,2024-04-14,50,50
I8F-JE-GPGO-SURPASS,EC,I8F-JE-GPGO-SURPASS-JPN_OSAKA01-0002,9,TIRZEPATIDE,PERFORMED,Y,Y,,,7.5,,mg,INJECTION,QW,SUBCUTANEOUS,4.0,WEEK 8,TREATMENT,2024-04-21,2024-04-21,57,57
I8F-JE-GPGO-SURPASS,EC,I8F-JE-GPGO-SURPASS-JPN_OSAKA01-0002,10,TIRZEPATIDE,PERFORMED,Y,Y,,,7.5,,mg,INJECTION,QW,SUBCUTANEOUS,10.0,,TREATMENT,2024-04-28,2024-04-28,64,64
I8F-JE-GPGO-SURPASS,EC,I8F-JE-GPGO-SURPASS-JPN_OSAKA01-0002,11,TIRZEPATIDE,PERFORMED,Y,Y,,,7.5,,mg,INJECTION,QW,SUBCUTANEOUS,11.0,,TREATMENT,2024-05-05,2024-05-05,71,71
I8F-JE-GPGO-SURPASS,EC,I8F-JE-GPGO-SURPASS-JPN_OSAKA01-0002,12,TIRZEPATIDE,PERFORMED,Y,Y,,,7.5,,mg,INJECTION,QW,SUBCUTANEOUS,12.0,,TREATMENT,2024-05-12,2024-05-12,78,78
I8F-JE-GPGO-SURPASS,EC,I8F-JE-GPGO-SURPASS-JPN_OSAKA01-0002,13,TIRZEPATIDE,PERFORMED,Y,Y,,,10.0,,mg,INJECTION,QW,SUBCUTANEOUS,5.0,WEEK 12,TREATMENT,2024-05-19,2024-05-19,85,85
I8F-JE-GPGO-SURPASS,EC,I8F-JE-GPGO-SURPASS-JPN_OSAKA01-0002,14,TIRZEPATIDE,PERFORMED,Y,Y,,,10.0,,mg,INJECTION,QW,SUBCUTANEOUS,14.0,,TREATMENT,2024-05-26,2024-05-26,92,92
I8F-JE-GPGO-SURPASS,EC,I8F-JE-GPGO-SURPASS-JPN_OSAKA01-0002,15,TIRZEPATIDE,SCHEDULED,Y,,NOT DONE,SUBJECT NON-COMPLIANCE,,,mg,INJECTION,QW,SUBCUTANEOUS,15.0,,TREATMENT,2024-06-02,2024-06-02,99,99
I8F-JE-GPGO-SURPASS,EC,I8F-JE-GPGO-SURPASS-JPN_OSAKA01-0002,16,TIRZEPATIDE,SCHEDULED,Y,,NOT DONE,SUBJECT NON-COMPLIANCE,,,mg,INJECTION,QW,SUBCUTANEOUS,16.0,,TREATMENT,2024-06-09,2024-06-09,106,106
I8F-JE-GPGO-SURPASS,EC,I8F-JE-GPGO-SURPASS-JPN_OSAKA01-0002,17,TIRZEPATIDE,PERFORMED,Y,Y,,,12.5,,mg,INJECTION,QW,SUBCUTANEOUS,6.0,WEEK 16,TREATMENT,2024-06-16,2024-06-16,113,113
I8F-JE-GPGO-SURPASS,EC,I8F-JE-GPGO-SURPASS-JPN_OSAKA01-0002,18,TIRZEPATIDE,PERFORMED,Y,Y,,,12.5,,mg,INJECTION,QW,SUBCUTANEOUS,18.0,,TREATMENT,2024-06-23,2024-06-23,120,120
I8F-JE-GPGO-SURPASS,EC,I8F-JE-GPGO-SURPASS-JPN_OSAKA01-0002,19,TIRZEPATIDE,PERFORMED,Y,Y,,,12.5,,mg,INJECTION,QW,SUBCUTANEOUS,19.0,,TREATMENT,2024-06-30,2024-06-30,127,127
I8F-JE-GPGO-SURPASS,EC,I8F-JE-GPGO-SURPASS-JPN_OSAKA01-0002,20,TIRZEPATIDE,PERFORMED,Y,Y,,,12.5,,mg,INJECTION,QW,SUBCUTANEOUS,20.0,,TREATMENT,2024-07-07,2024-07-07,134,134
I8F-JE-GPGO-SURPASS,EC,I8F-JE-GPGO-SURPASS-JPN_OSAKA01-0002,21,TIRZEPATIDE,PERFORMED,Y,Y,,,15.0,,mg,INJECTION,QW,SUBCUTANEOUS,7.0,WEEK 20,TREATMENT,2024-07-14,2024-07-14,141,141
I8F-JE-GPGO-SURPASS,EC,I8F-JE-GPGO-SURPASS-JPN_OSAKA01-0002,22,TIRZEPATIDE,PERFORMED,Y,Y,,,15.0,,mg,INJECTION,QW,SUBCUTANEOUS,22.0,,TREATMENT,2024-07-21,2024-07-21,148,148
I8F-JE-GPGO-SURPASS,EC,I8F-JE-GPGO-SURPASS-JPN_OSAKA01-0002,23,TIRZEPATIDE,PERFORMED,Y,Y,,,15.0,,mg,INJECTION,QW,SUBCUTANEOUS,23.0,,TREATMENT,2024-07-28,2024-07-28,155,155
I8F-JE-GPGO-SURPASS,EC,I8F-JE-GPGO-SURPASS-JPN_OSAKA01-0002,24,TIRZEPATIDE,PERFORMED,Y,Y,,,15.0,,mg,INJECTION,QW,SUBCUTANEOUS,24.0,,TREATMENT,2024-08-04,2024-08-04,162,162
I8F-JE-GPGO-SURPASS,EC,I8F-JE-GPGO-SURPASS-JPN_OSAKA01-0002,25,TIRZEPATIDE,SCHEDULED,Y,,NOT DONE,SUBJECT NON-COMPLIANCE,,,mg,INJECTION,QW,SUBCUTANEOUS,8.0,WEEK 24,TREATMENT,2024-08-11,2024-08-11,169,169
I8F-JE-GPGO-SURPASS,EC,I8F-JE-GPGO-SURPASS-JPN_OSAKA01-0002,26,TIRZEPATIDE,PERFORMED,Y,Y,,,15.0,,mg,INJECTION,QW,SUBCUTANEOUS,26.0,,TREATMENT,2024-08-18,2024-08-18,176,176
I8F-JE-GPGO-SURPASS,EC,I8F-JE-GPGO-SURPASS-JPN_OSAKA01-0002,27,TIRZEPATIDE,PERFORMED,Y,Y,,,15.0,,mg,INJECTION,QW,SUBCUTANEOUS,27.0,,TREATMENT,2024-08-25,2024-08-25,183,183
I8F-JE-GPGO-SURPASS,EC,I8F-JE-GPGO-SURPASS-JPN_OSAKA01-0002,28,TIRZEPATIDE,PERFORMED,Y,Y,,,15.0,,mg,INJECTION,QW,SUBCUTANEOUS,28.0,,TREATMENT,2024-09-01,2024-09-01,190,190
I8F-JE-GPGO-SURPASS,EC,I8F-JE-GPGO-SURPASS-JPN_OSAKA01-0002,29,TIRZEPATIDE,PERFORMED,Y,Y,,,15.0,,mg,INJECTION,QW,SUBCUTANEOUS,29.0,,TREATMENT,2024-09-08,2024-09-08,197,197
I8F-JE-GPGO-SURPASS,EC,I8F-JE-GPGO-SURPASS-JPN_OSAKA01-0002,30,TIRZEPATIDE,PERFORMED,Y,Y,,,15.0,,mg,INJECTION,QW,SUBCUTANEOUS,30.0,,TREATMENT,2024-09-15,2024-09-15,204,204
I8F-JE-GPGO-SURPASS,EC,I8F-JE-GPGO-SURPASS-JPN_OSAKA01-0002,31,TIRZEPATIDE,PERFORMED,Y,Y,,,15.0,,mg,INJECTION,QW,SUBCUTANEOUS,31.0,,TREATMENT,2024-09-22,2024-09-22,211,211
I8F-JE-GPGO-SURPASS,EC,I8F-JE-GPGO-SURPASS-JPN_OSAKA01-0002,32,TIRZEPATIDE,PERFORMED,Y,Y,,,15.0,,mg,INJECTION,QW,SUBCUTANEOUS,32.0,,TREATMENT,2024-09-29,2024-09-29,218,218
I8F-JE-GPGO-SURPASS,EC,I8F-JE-GPGO-SURPASS-JPN_OSAKA01-0002,33,TIRZEPATIDE,PERFORMED,Y,Y,,,15.0,,mg,INJECTION,QW,SUBCUTANEOUS,9.0,WEEK 32,TREATMENT,2024-10-06,2024-10-06,225,225
I8F-JE-GPGO-SURPASS,EC,I8F-JE-GPGO-SURPASS-JPN_OSAKA01-0002,34,TIRZEPATIDE,PERFORMED,Y,Y,,,15.0,,mg,INJECTION,QW,SUBCUTANEOUS,34.0,,TREATMENT,2024-10-13,2024-10-13,232,232
I8F-JE-GPGO-SURPASS,EC,I8F-JE-GPGO-SURPASS-JPN_OSAKA01-0002,35,TIRZEPATIDE,PERFORMED,Y,Y,,,15.0,,mg,INJECTION,QW,SUBCUTANEOUS,35.0,,TREATMENT,2024-10-20,2024-10-20,239,239
I8F-JE-GPGO-SURPASS,EC,I8F-JE-GPGO-SURPASS-JPN_OSAKA01-0002,36,TIRZEPATIDE,PERFORMED,Y,Y,,,15.0,,mg,INJECTION,QW,SUBCUTANEOUS,36.0,,TREATMENT,2024-10-27,2024-10-27,246,246
I8F-JE-GPGO-SURPASS,EC,I8F-JE-GPGO-SURPASS-JPN_OSAKA01-0002,37,TIRZEPATIDE,PERFORMED,Y,Y,,,15.0,,mg,INJECTION,QW,SUBCUTANEOUS,37.0,,TREATMENT,2024-11-03,2024-11-03,253,253
I8F-JE-GPGO-SURPASS,EC,I8F-JE-GPGO-SURPASS-JPN_OSAKA01-0002,38,TIRZEPATIDE,PERFORMED,Y,Y,,,15.0,,mg,INJECTION,QW,SUBCUTANEOUS,38.0,,TREATMENT,2024-11-10,2024-11-10,260,260
I8F-JE-GPGO-SURPASS,EC,I8F-JE-GPGO-SURPASS-JPN_OSAKA01-0002,39,TIRZEPATIDE,PERFORMED,Y,Y,,,15.0,,mg,INJECTION,QW,SUBCUTANEOUS,39.0,,TREATMENT,2024-11-17,2024-11-17,267,267
I8F-JE-GPGO-SURPASS,EC,I8F-JE-GPGO-SURPASS-JPN_OSAKA01-0002,40,TIRZEPATIDE,PERFORMED,Y,Y,,,15.0,,mg,INJECTION,QW,SUBCUTANEOUS,40.0,,TREATMENT,2024-11-24,2024-11-24,274,274
I8F-JE-GPGO-SURPASS,EC,I8F-JE-GPGO-SURPASS-JPN_OSAKA01-0002,41,TIRZEPATIDE,PERFORMED,Y,Y,,,15.0,,mg,INJECTION,QW,SUBCUTANEOUS,10.0,WEEK 40,TREATMENT,2024-12-01,2024-12-01,281,281
I8F-JE-GPGO-SURPASS,EC,I8F-JE-GPGO-SURPASS-JPN_OSAKA01-0002,42,TIRZEPATIDE,PERFORMED,Y,Y,,,15.0,,mg,INJECTION,QW,SUBCUTANEOUS,42.0,,TREATMENT,2024-12-08,2024-12-08,288,288
I8F-JE-GPGO-SURPASS,EC,I8F-JE-GPGO-SURPASS-JPN_OSAKA01-0002,43,TIRZEPATIDE,SCHEDULED,Y,,NOT DONE,SUBJECT NON-COMPLIANCE,,,mg,INJECTION,QW,SUBCUTANEOUS,43.0,,TREATMENT,2024-12-15,2024-12-15,295,295
I8F-JE-GPGO-SURPASS,EC,I8F-JE-GPGO-SURPASS-JPN_OSAKA01-0002,44,TIRZEPATIDE,PERFORMED,Y,Y,,,15.0,,mg,INJECTION,QW,SUBCUTANEOUS,44.0,,TREATMENT,2024-12-22,2024-12-22,302,302
I8F-JE-GPGO-SURPASS,EC,I8F-JE-GPGO-SURPASS-JPN_OSAKA01-0002,45,TIRZEPATIDE,PERFORMED,Y,Y,,,15.0,,mg,INJECTION,QW,SUBCUTANEOUS,45.0,,TREATMENT,2024-12-29,2024-12-29,309,309
I8F-JE-GPGO-SURPASS,EC,I8F-JE-GPGO-SURPASS-JPN_OSAKA01-0002,46,TIRZEPATIDE,PERFORMED,Y,Y,,,15.0,,mg,INJECTION,QW,SUBCUTANEOUS,46.0,,TREATMENT,2025-01-05,2025-01-05,316,316
I8F-JE-GPGO-SURPASS,EC,I8F-JE-GPGO-SURPASS-JPN_OSAKA01-0002,47,TIRZEPATIDE,PERFORMED,Y,Y,,,15.0,,mg,INJECTION,QW,SUBCUTANEOUS,47.0,,TREATMENT,2025-01-12,2025-01-12,323,323
I8F-JE-GPGO-SURPASS,EC,I8F-JE-GPGO-SURPASS-JPN_OSAKA01-0002,48,TIRZEPATIDE,SCHEDULED,Y,,NOT DONE,SUBJECT NON-COMPLIANCE,,,mg,INJECTION,QW,SUBCUTANEOUS,48.0,,TREATMENT,2025-01-19,2025-01-19,330,330
I8F-JE-GPGO-SURPASS,EC,I8F-JE-GPGO-SURPASS-JPN_OSAKA01-0002,49,TIRZEPATIDE,PERFORMED,Y,Y,,,15.0,,mg,INJECTION,QW,SUBCUTANEOUS,49.0,,TREATMENT,2025-01-26,2025-01-26,337,337
I8F-JE-GPGO-SURPASS,EC,I8F-JE-GPGO-SURPASS-JPN_OSAKA01-0002,50,TIRZEPATIDE,PERFORMED,Y,Y,,,15.0,,mg,INJECTION,QW,SUBCUTANEOUS,50.0,,TREATMENT,2025-02-02,2025-02-02,344,344
I8F-JE-GPGO-SURPASS,EC,I8F-JE-GPGO-SURPASS-JPN_OSAKA01-0002,51,TIRZEPATIDE,PERFORMED,Y,Y,,,15.0,,mg,INJECTION,QW,SUBCUTANEOUS,51.0,,TREATMENT,2025-02-09,2025-02-09,351,351
I8F-JE-GPGO-SURPASS,EC,I8F-JE-GPGO-SURPASS-JPN_OSAKA01-0002,52,TIRZEPATIDE,PERFORMED,Y,Y,,,15.0,,mg,INJECTION,QW,SUBCUTANEOUS,52.0,,TREATMENT,2025-02-16,2025-02-16,358,358
I8F-JE-GPGO-SURPASS,EC,I8F-JE-GPGO-SURPASS-JPN_SAPPORO01-0020,1,TIRZEPATIDE,PERFORMED,Y,Y,,,2.5,,mg,INJECTION,QW,SUBCUTANEOUS,2.0,BASELINE,TREATMENT,2024-04-27,2024-04-27,1,1
I8F-JE-GPGO-SURPASS,EC,I8F-JE-GPGO-SURPASS-JPN_SAPPORO01-0020,2,TIRZEPATIDE,PERFORMED,Y,Y,,,2.5,,mg,INJECTION,QW,SUBCUTANEOUS,2.0,,TREATMENT,2024-05-04,2024-05-04,8,8
I8F-JE-GPGO-SURPASS,EC,I8F-JE-GPGO-SURPASS-JPN_SAPPORO01-0020,3,TIRZEPATIDE,PERFORMED,Y,Y,,,2.5,,mg,INJECTION,QW,SUBCUTANEOUS,3.0,,TREATMENT,2024-05-11,2024-05-11,15,15
I8F-JE-GPGO-SURPASS,EC,I8F-JE-GPGO-SURPASS-JPN_SAPPORO01-0020,4,TIRZEPATIDE,PERFORMED,Y,Y,,,2.5,,mg,INJECTION,QW,SUBCUTANEOUS,4.0,,TREATMENT,2024-05-18,2024-05-18,22,22
I8F-JE-GPGO-SURPASS,EC,I8F-JE-GPGO-SURPASS-JPN_SAPPORO01-0020,5,TIRZEPATIDE,SCHEDULED,Y,,NOT DONE,SUBJECT NON-COMPLIANCE,,,mg,INJECTION,QW,SUBCUTANEOUS,3.0,WEEK 4,TREATMENT,2024-05-25,2024-05-25,29,29
I8F-JE-GPGO-SURPASS,EC,I8F-JE-GPGO-SURPASS-JPN_SAPPORO01-0020,6,TIRZEPATIDE,PERFORMED,Y,Y,,,5.0,,mg,INJECTION,QW,SUBCUTANEOUS,6.0,,TREATMENT,2024-06-01,2024-06-01,36,36
I8F-JE-GPGO-SURPASS,EC,I8F-JE-GPGO-SURPASS-JPN_SAPPORO01-0020,7,TIRZEPATIDE,PERFORMED,Y,Y,,,5.0,,mg,INJECTION,QW,SUBCUTANEOUS,7.0,,TREATMENT,2024-06-08,2024-06-08,43,43
I8F-JE-GPGO-SURPASS,EC,I8F-JE-GPGO-SURPASS-JPN_SAPPORO01-0020,8,TIRZEPATIDE,PERFORMED,Y,Y,,,5.0,,mg,INJECTION,QW,SUBCUTANEOUS,8.0,,TREATMENT,2024-06-15,2024-06-15,50,50
I8F-JE-GPGO-SURPASS,EC,I8F-JE-GPGO-SURPASS-JPN_SAPPORO01-0020,9,TIRZEPATIDE,PERFORMED,Y,Y,,,7.5,,mg,INJECTION,QW,SUBCUTANEOUS,4.0,WEEK 8,TREATMENT,2024-06-22,2024-06-22,57,57
I8F-JE-GPGO-SURPASS,EC,I8F-JE-GPGO-SURPASS-JPN_SAPPORO01-0020,10,TIRZEPATIDE,PERFORMED,Y,Y,,,7.5,,mg,INJECTION,QW,SUBCUTANEOUS,10.0,,TREATMENT,2024-06-29,2024-06-29,64,64
I8F-JE-GPGO-SURPASS,EC,I8F-JE-GPGO-SURPASS-JPN_SAPPORO01-0020,11,TIRZEPATIDE,PERFORMED,Y,Y,,,7.5,,mg,INJECTION,QW,SUBCUTANEOUS,11.0,,TREATMENT,2024-07-06,2024-07-06,71,71
I8F-JE-GPGO-SURPASS,EC,I8F-JE-GPGO-SURPASS-JPN_SAPPORO01-0020,12,TIRZEPATIDE,PERFORMED,Y,Y,,,7.5,,mg,INJECTION,QW,SUBCUTANEOUS,12.0,,TREATMENT,2024-07-13,2024-07-13,78,78
I8F-JE-GPGO-SURPASS,EC,I8F-JE-GPGO-SURPASS-JPN_SAPPORO01-0020,13,TIRZEPATIDE,PERFORMED,Y,Y,,,10.0,,mg,INJECTION,QW,SUBCUTANEOUS,5.0,WEEK 12,TREATMENT,2024-07-20,2024-07-20,85,85
I8F-JE-GPGO-SURPASS,EC,I8F-JE-GPGO-SURPASS-JPN_SAPPORO01-0020,14,TIRZEPATIDE,PERFORMED,Y,Y,,,10.0,,mg,INJECTION,QW,SUBCUTANEOUS,14.0,,TREATMENT,2024-07-27,2024-07-27,92,92
I8F-JE-GPGO-SURPASS,EC,I8F-JE-GPGO-SURPASS-JPN_SAPPORO01-0020,15,TIRZEPATIDE,PERFORMED,Y,Y,,,10.0,,mg,INJECTION,QW,SUBCUTANEOUS,15.0,,TREATMENT,2024-08-03,2024-08-03,99,99
I8F-JE-GPGO-SURPASS,EC,I8F-JE-GPGO-SURPASS-JPN_SAPPORO01-0020,16,TIRZEPATIDE,PERFORMED,Y,Y,,,10.0,,mg,INJECTION,QW,SUBCUTANEOUS,16.0,,TREATMENT,2024-08-10,2024-08-10,106,106
I8F-JE-GPGO-SURPASS,EC,I8F-JE-GPGO-SURPASS-JPN_SAPPORO01-0020,17,TIRZEPATIDE,PERFORMED,Y,Y,,,10.0,,mg,INJECTION,QW,SUBCUTANEOUS,6.0,WEEK 16,TREATMENT,2024-08-17,2024-08-17,113,113
I8F-JE-GPGO-SURPASS,EC,I8F-JE-GPGO-SURPASS-JPN_SAPPORO01-0020,18,TIRZEPATIDE,PERFORMED,Y,Y,,,10.0,,mg,INJECTION,QW,SUBCUTANEOUS,18.0,,TREATMENT,2024-08-24,2024-08-24,120,120
I8F-JE-GPGO-SURPASS,EC,I8F-JE-GPGO-SURPASS-JPN_SAPPORO01-0020,19,TIRZEPATIDE,PERFORMED,Y,Y,,,10.0,,mg,INJECTION,QW,SUBCUTANEOUS,19.0,,TREATMENT,2024-08-31,2024-08-31,127,127
I8F-JE-GPGO-SURPASS,EC,I8F-JE-GPGO-SURPASS-JPN_SAPPORO01-0020,20,TIRZEPATIDE,PERFORMED,Y,Y,,,10.0,,mg,INJECTION,QW,SUBCUTANEOUS,20.0,,TREATMENT,2024-09-07,2024-09-07,134,134
I8F-JE-GPGO-SURPASS,EC,I8F-JE-GPGO-SURPASS-JPN_SAPPORO01-0020,21,TIRZEPATIDE,PERFORMED,Y,Y,,,10.0,,mg,INJECTION,QW,SUBCUTANEOUS,7.0,WEEK 20,TREATMENT,2024-09-14,2024-09-14,141,141
I8F-JE-GPGO-SURPASS,EC,I8F-JE-GPGO-SURPASS-JPN_SAPPORO01-0020,22,TIRZEPATIDE,PERFORMED,Y,Y,,,10.0,,mg,INJECTION,QW,SUBCUTANEOUS,22.0,,TREATMENT,2024-09-21,2024-09-21,148,148
I8F-JE-GPGO-SURPASS,EC,I8F-JE-GPGO-SURPASS-JPN_SAPPORO01-0020,23,TIRZEPATIDE,PERFORMED,Y,Y,,,10.0,,mg,INJECTION,QW,SUBCUTANEOUS,23.0,,TREATMENT,2024-09-28,2024-09-28,155,155
I8F-JE-GPGO-SURPASS,EC,I8F-JE-GPGO-SURPASS-JPN_SAPPORO01-0020,24,TIRZEPATIDE,PERFORMED,Y,Y,,,10.0,,mg,INJECTION,QW,SUBCUTANEOUS,24.0,,TREATMENT,2024-10-05,2024-10-05,162,162
I8F-JE-GPGO-SURPASS,EC,I8F-JE-GPGO-SURPASS-JPN_SAPPORO01-0020,25,TIRZEPATIDE,PERFORMED,Y,Y,,,10.0,,mg,INJECTION,QW,SUBCUTANEOUS,8.0,WEEK 24,TREATMENT,2024-10-12,2024-10-12,169,169
I8F-JE-GPGO-SURPASS,EC,I8F-JE-GPGO-SURPASS-JPN_SAPPORO01-0020,26,TIRZEPATIDE,PERFORMED,Y,Y,,,10.0,,mg,INJECTION,QW,SUBCUTANEOUS,26.0,,TREATMENT,2024-10-19,2024-10-19,176,176
I8F-JE-GPGO-SURPASS,EC,I8F-JE-GPGO-SURPASS-JPN_SAPPORO01-0020,27,TIRZEPATIDE,PERFORMED,Y,Y,,,10.0,,mg,INJECTION,QW,SUBCUTANEOUS,27.0,,TREATMENT,2024-10-26,2024-10-26,183,183
I8F-JE-GPGO-SURPASS,EC,I8F-JE-GPGO-SURPASS-JPN_SAPPORO01-0020,28,TIRZEPATIDE,PERFORMED,Y,Y,,,10.0,,mg,INJECTION,QW,SUBCUTANEOUS,28.0,,TREATMENT,2024-11-02,2024-11-02,190,190
I8F-JE-GPGO-SURPASS,EC,I8F-JE-GPGO-SURPASS-JPN_SAPPORO01-0020,29,TIRZEPATIDE,PERFORMED,Y,Y,,,10.0,,mg,INJECTION,QW,SUBCUTANEOUS,29.0,,TREATMENT,2024-11-09,2024-11-09,197,197
I8F-JE-GPGO-SURPASS,EC,I8F-JE-GPGO-SURPASS-JPN_SAPPORO01-0020,30,TIRZEPATIDE,PERFORMED,Y,Y,,,10.0,,mg,INJECTION,QW,SUBCUTANEOUS,30.0,,TREATMENT,2024-11-16,2024-11-16,204,204
I8F-JE-GPGO-SURPASS,EC,I8F-JE-GPGO-SURPASS-JPN_SAPPORO01-0020,31,TIRZEPATIDE,PERFORMED,Y,Y,,,10.0,,mg,INJECTION,QW,SUBCUTANEOUS,31.0,,TREATMENT,2024-11-23,2024-11-23,211,211
I8F-JE-GPGO-SURPASS,EC,I8F-JE-GPGO-SURPASS-JPN_SAPPORO01-0020,32,TIRZEPATIDE,PERFORMED,Y,Y,,,10.0,,mg,INJECTION,QW,SUBCUTANEOUS,32.0,,TREATMENT,2024-11-30,2024-11-30,218,218
I8F-JE-GPGO-SURPASS,EC,I8F-JE-GPGO-SURPASS-JPN_SAPPORO01-0020,33,TIRZEPATIDE,PERFORMED,Y,Y,,,10.0,,mg,INJECTION,QW,SUBCUTANEOUS,9.0,WEEK 32,TREATMENT,2024-12-07,2024-12-07,225,225
I8F-JE-GPGO-SURPASS,EC,I8F-JE-GPGO-SURPASS-JPN_SAPPORO01-0020,34,TIRZEPATIDE,PERFORMED,Y,Y,,,10.0,,mg,INJECTION,QW,SUBCUTANEOUS,34.0,,TREATMENT,2024-12-14,2024-12-14,232,232
I8F-JE-GPGO-SURPASS,EC,I8F-JE-GPGO-SURPASS-JPN_SAPPORO01-0020,35,TIRZEPATIDE,PERFORMED,Y,Y,,,10.0,,mg,INJECTION,QW,SUBCUTANEOUS,35.0,,TREATMENT,2024-12-21,2024-12-21,239,239
I8F-JE-GPGO-SURPASS,EC,I8F-JE-GPGO-SURPASS-JPN_SAPPORO01-0020,36,TIRZEPATIDE,PERFORMED,Y,Y,,,10.0,,mg,INJECTION,QW,SUBCUTANEOUS,36.0,,TREATMENT,2024-12-28,2024-12-28,246,246
I8F-JE-GPGO-SURPASS,EC,I8F-JE-GPGO-SURPASS-JPN_SAPPORO01-0020,37,TIRZEPATIDE,PERFORMED,Y,Y,,,10.0,,mg,INJECTION,QW,SUBCUTANEOUS,37.0,,TREATMENT,2025-01-04,2025-01-04,253,253
I8F-JE-GPGO-SURPASS,EC,I8F-JE-GPGO-SURPASS-JPN_SAPPORO01-0020,38,TIRZEPATIDE,PERFORMED,Y,Y,,,10.0,,mg,INJECTION,QW,SUBCUTANEOUS,38.0,,TREATMENT,2025-01-11,2025-01-11,260,260
I8F-JE-GPGO-SURPASS,EC,I8F-JE-GPGO-SURPASS-JPN_SAPPORO01-0020,39,TIRZEPATIDE,PERFORMED,Y,Y,,,10.0,,mg,INJECTION,QW,SUBCUTANEOUS,39.0,,TREATMENT,2025-01-18,2025-01-18,267,267
I8F-JE-GPGO-SURPASS,EC,I8F-JE-GPGO-SURPASS-JPN_SAPPORO01-0020,40,TIRZEPATIDE,PERFORMED,Y,Y,,,10.0,,mg,INJECTION,QW,SUBCUTANEOUS,40.0,,TREATMENT,2025-01-25,2025-01-25,274,274
I8F-JE-GPGO-SURPASS,EC,I8F-JE-GPGO-SURPASS-JPN_SAPPORO01-0020,41,TIRZEPATIDE,PERFORMED,Y,Y,,,10.0,,mg,INJECTION,QW,SUBCUTANEOUS,10.0,WEEK 40,TREATMENT,2025-02-01,2025-02-01,281,281
I8F-JE-GPGO-SURPASS,EC,I8F-JE-GPGO-SURPASS-JPN_SAPPORO01-0020,42,TIRZEPATIDE,PERFORMED,Y,Y,,,10.0,,mg,INJECTION,QW,SUBCUTANEOUS,42.0,,TREATMENT,2025-02-08,2025-02-08,288,288
I8F-JE-GPGO-SURPASS,EC,I8F-JE-GPGO-SURPASS-JPN_SAPPORO01-0020,43,TIRZEPATIDE,PERFORMED,Y,Y,,,10.0,,mg,INJECTION,QW,SUBCUTANEOUS,43.0,,TREATMENT,2025-02-15,2025-02-15,295,295
I8F-JE-GPGO-SURPASS,EC,I8F-JE-GPGO-SURPASS-JPN_SAPPORO01-0020,44,TIRZEPATIDE,PERFORMED,Y,Y,,,10.0,,mg,INJECTION,QW,SUBCUTANEOUS,44.0,,TREATMENT,2025-02-22,2025-02-22,302,302
I8F-JE-GPGO-SURPASS,EC,I8F-JE-GPGO-SURPASS-JPN_SAPPORO01-0020,45,TIRZEPATIDE,PERFORMED,Y,Y,,,10.0,,mg,INJECTION,QW,SUBCUTANEOUS,45.0,,TREATMENT,2025-03-01,2025-03-01,309,309
I8F-JE-GPGO-SURPASS,EC,I8F-JE-GPGO-SURPASS-JPN_SAPPORO01-0020,46,TIRZEPATIDE,PERFORMED,Y,Y,,,10.0,,mg,INJECTION,QW,SUBCUTANEOUS,46.0,,TREATMENT,2025-03-08,2025-03-08,316,316
I8F-JE-GPGO-SURPASS,EC,I8F-JE-GPGO-SURPASS-JPN_SAPPORO01-0020,47,TIRZEPATIDE,PERFORMED,Y,Y,,,10.0,,mg,INJECTION,QW,SUBCUTANEOUS,47.0,,TREATMENT,2025-03-15,2025-03-15,323,323
I8F-JE-GPGO-SURPASS,EC,I8F-JE-GPGO-SURPASS-JPN_SAPPORO01-0020,48,TIRZEPATIDE,PERFORMED,Y,Y,,,10.0,,mg,INJECTION,QW,SUBCUTANEOUS,48.0,,TREATMENT,2025-03-22,2025-03-22,330,330
I8F-JE-GPGO-SURPASS,EC,I8F-JE-GPGO-SURPASS-JPN_SAPPORO01-0020,49,TIRZEPATIDE,PERFORMED,Y,Y,,,10.0,,mg,INJECTION,QW,SUBCUTANEOUS,49.0,,TREATMENT,2025-03-29,2025-03-29,337,337
I8F-JE-GPGO-SURPASS,EC,I8F-JE-GPGO-SURPASS-JPN_SAPPORO01-0020,50,TIRZEPATIDE,PERFORMED,Y,Y,,,10.0,,mg,INJECTION,QW,SUBCUTANEOUS,50.0,,TREATMENT,2025-04-05,2025-04-05,344,344
I8F-JE-GPGO-SURPASS,EC,I8F-JE-GPGO-SURPASS-JPN_SAPPORO01-0020,51,TIRZEPATIDE,PERFORMED,Y,Y,,,10.0,,mg,INJECTION,QW,SUBCUTANEOUS,51.0,,TREATMENT,2025-04-12,2025-04-12,351,351
I8F-JE-GPGO-SURPASS,EC,I8F-JE-GPGO-SURPASS-JPN_SAPPORO01-0020,52,TIRZEPATIDE,PERFORMED,Y,Y,,,10.0,,mg,INJECTION,QW,SUBCUTANEOUS,52.0,,TREATMENT,2025-04-19,2025-04-19,358,358
I8F-JE-GPGO-SURPASS,EC,I8F-JE-GPGO-SURPASS-JPN_SENDAI01-0006,1,TIRZEPATIDE,PERFORMED,Y,Y,,,2.5,,mg,INJECTION,QW,SUBCUTANEOUS,2.0,BASELINE,TREATMENT,2024-03-06,2024-03-06,1,1
I8F-JE-GPGO-SURPASS,EC,I8F-JE-GPGO-SURPASS-JPN_SENDAI01-0006,2,TIRZEPATIDE,PERFORMED,Y,Y,,,2.5,,mg,INJECTION,QW,SUBCUTANEOUS,2.0,,TREATMENT,2024-03-13,2024-03-13,8,8
I8F-JE-GPGO-SURPASS,EC,I8F-JE-GPGO-SURPASS-JPN_SENDAI01-0006,3,TIRZEPATIDE,PERFORMED,Y,Y,,,2.5,,mg,INJECTION,QW,SUBCUTANEOUS,3.0,,TREATMENT,2024-03-20,2024-03-20,15,15
I8F-JE-GPGO-SURPASS,EC,I8F-JE-GPGO-SURPASS-JPN_SENDAI01-0006,4,TIRZEPATIDE,SCHEDULED,Y,,NOT DONE,SUBJECT NON-COMPLIANCE,,,mg,INJECTION,QW,SUBCUTANEOUS,4.0,,TREATMENT,2024-03-27,2024-03-27,22,22
I8F-JE-GPGO-SURPASS,EC,I8F-JE-GPGO-SURPASS-JPN_SENDAI01-0006,5,TIRZEPATIDE,PERFORMED,Y,Y,,,5.0,,mg,INJECTION,QW,SUBCUTANEOUS,3.0,WEEK 4,TREATMENT,2024-04-03,2024-04-03,29,29
I8F-JE-GPGO-SURPASS,EC,I8F-JE-GPGO-SURPASS-JPN_SENDAI01-0006,6,TIRZEPATIDE,PERFORMED,Y,Y,,,5.0,,mg,INJECTION,QW,SUBCUTANEOUS,6.0,,TREATMENT,2024-04-10,2024-04-10,36,36
I8F-JE-GPGO-SURPASS,EC,I8F-JE-GPGO-SURPASS-JPN_SENDAI01-0006,7,TIRZEPATIDE,PERFORMED,Y,Y,,,5.0,,mg,INJECTION,QW,SUBCUTANEOUS,7.0,,TREATMENT,2024-04-17,2024-04-17,43,43
I8F-JE-GPGO-SURPASS,EC,I8F-JE-GPGO-SURPASS-JPN_SENDAI01-0006,8,TIRZEPATIDE,PERFORMED,Y,Y,,,5.0,,mg,INJECTION,QW,SUBCUTANEOUS,8.0,,TREATMENT,2024-04-24,2024-04-24,50,50
I8F-JE-GPGO-SURPASS,EC,I8F-JE-GPGO-SURPASS-JPN_SENDAI01-0006,9,TIRZEPATIDE,PERFORMED,Y,Y,,,7.5,,mg,INJECTION,QW,SUBCUTANEOUS,4.0,WEEK 8,TREATMENT,2024-05-01,2024-05-01,57,57
I8F-JE-GPGO-SURPASS,EC,I8F-JE-GPGO-SURPASS-JPN_SENDAI01-0006,10,TIRZEPATIDE,PERFORMED,Y,Y,,,7.5,,mg,INJECTION,QW,SUBCUTANEOUS,10.0,,TREATMENT,2024-05-08,2024-05-08,64,64
I8F-JE-GPGO-SURPASS,EC,I8F-JE-GPGO-SURPASS-JPN_SENDAI01-0006,11,TIRZEPATIDE,PERFORMED,Y,Y,,,7.5,,mg,INJECTION,QW,SUBCUTANEOUS,11.0,,TREATMENT,2024-05-15,2024-05-15,71,71
I8F-JE-GPGO-SURPASS,EC,I8F-JE-GPGO-SURPASS-JPN_SENDAI01-0006,12,TIRZEPATIDE,PERFORMED,Y,Y,,,7.5,,mg,INJECTION,QW,SUBCUTANEOUS,12.0,,TREATMENT,2024-05-22,2024-05-22,78,78
I8F-JE-GPGO-SURPASS,EC,I8F-JE-GPGO-SURPASS-JPN_SENDAI01-0006,13,TIRZEPATIDE,PERFORMED,Y,Y,,,10.0,,mg,INJECTION,QW,SUBCUTANEOUS,5.0,WEEK 12,TREATMENT,2024-05-29,2024-05-29,85,85
I8F-JE-GPGO-SURPASS,EC,I8F-JE-GPGO-SURPASS-JPN_SENDAI01-0006,14,TIRZEPATIDE,PERFORMED,Y,Y,,,10.0,,mg,INJECTION,QW,SUBCUTANEOUS,14.0,,TREATMENT,2024-06-05,2024-06-05,92,92
I8F-JE-GPGO-SURPASS,EC,I8F-JE-GPGO-SURPASS-JPN_SENDAI01-0006,15,TIRZEPATIDE,PERFORMED,Y,Y,,,10.0,,mg,INJECTION,QW,SUBCUTANEOUS,15.0,,TREATMENT,2024-06-12,2024-06-12,99,99
I8F-JE-GPGO-SURPASS,EC,I8F-JE-GPGO-SURPASS-JPN_SENDAI01-0006,16,TIRZEPATIDE,PERFORMED,Y,Y,,,10.0,,mg,INJECTION,QW,SUBCUTANEOUS,16.0,,TREATMENT,2024-06-19,2024-06-19,106,106
I8F-JE-GPGO-SURPASS,EC,I8F-JE-GPGO-SURPASS-JPN_SENDAI01-0006,17,TIRZEPATIDE,SCHEDULED,Y,,NOT DONE,SUBJECT NON-COMPLIANCE,,,mg,INJECTION,QW,SUBCUTANEOUS,6.0,WEEK 16,TREATMENT,2024-06-26,2024-06-26,113,113
I8F-JE-GPGO-SURPASS,EC,I8F-JE-GPGO-SURPASS-JPN_SENDAI01-0006,18,TIRZEPATIDE,PERFORMED,Y,Y,,,12.5,,mg,INJECTION,QW,SUBCUTANEOUS,18.0,,TREATMENT,2024-07-03,2024-07-03,120,120
I8F-JE-GPGO-SURPASS,EC,I8F-JE-GPGO-SURPASS-JPN_SENDAI01-0006,19,TIRZEPATIDE,PERFORMED,Y,Y,,,12.5,,mg,INJECTION,QW,SUBCUTANEOUS,19.0,,TREATMENT,2024-07-10,2024-07-10,127,127
I8F-JE-GPGO-SURPASS,EC,I8F-JE-GPGO-SURPASS-JPN_SENDAI01-0006,20,TIRZEPATIDE,PERFORMED,Y,Y,,,12.5,,mg,INJECTION,QW,SUBCUTANEOUS,20.0,,TREATMENT,2024-07-17,2024-07-17,134,134
I8F-JE-GPGO-SURPASS,EC,I8F-JE-GPGO-SURPASS-JPN_SENDAI01-0006,21,TIRZEPATIDE,PERFORMED,Y,Y,,,15.0,,mg,INJECTION,QW,SUBCUTANEOUS,7.0,WEEK 20,TREATMENT,2024-07-24,2024-07-24,141,141
I8F-JE-GPGO-SURPASS,EC,I8F-JE-GPGO-SURPASS-JPN_SENDAI01-0006,22,TIRZEPATIDE,PERFORMED,Y,Y,,,15.0,,mg,INJECTION,QW,SUBCUTANEOUS,22.0,,TREATMENT,2024-07-31,2024-07-31,148,148
I8F-JE-GPGO-SURPASS,EC,I8F-JE-GPGO-SURPASS-JPN_SENDAI01-0006,23,TIRZEPATIDE,PERFORMED,Y,Y,,,15.0,,mg,INJECTION,QW,SUBCUTANEOUS,23.0,,TREATMENT,2024-08-07,2024-08-07,155,155
I8F-JE-GPGO-SURPASS,EC,I8F-JE-GPGO-SURPASS-JPN_SENDAI01-0006,24,TIRZEPATIDE,PERFORMED,Y,Y,,,15.0,,mg,INJECTION,QW,SUBCUTANEOUS,24.0,,TREATMENT,2024-08-14,2024-08-14,162,162
I8F-JE-GPGO-SURPASS,EC,I8F-JE-GPGO-SURPASS-JPN_SENDAI01-0006,25,TIRZEPATIDE,PERFORMED,Y,Y,,,15.0,,mg,INJECTION,QW,SUBCUTANEOUS,8.0,WEEK 24,TREATMENT,2024-08-21,2024-08-21,169,169
I8F-JE-GPGO-SURPASS,EC,I8F-JE-GPGO-SURPASS-JPN_SENDAI01-0006,26,TIRZEPATIDE,PERFORMED,Y,Y,,,15.0,,mg,INJECTION,QW,SUBCUTANEOUS,26.0,,TREATMENT,2024-08-28,2024-08-28,176,176
I8F-JE-GPGO-SURPASS,EC,I8F-JE-GPGO-SURPASS-JPN_SENDAI01-0006,27,TIRZEPATIDE,PERFORMED,Y,Y,,,15.0,,mg,INJECTION,QW,SUBCUTANEOUS,27.0,,TREATMENT,2024-09-04,2024-09-04,183,183
I8F-JE-GPGO-SURPASS,EC,I8F-JE-GPGO-SURPASS-JPN_SENDAI01-0006,28,TIRZEPATIDE,PERFORMED,Y,Y,,,15.0,,mg,INJECTION,QW,SUBCUTANEOUS,28.0,,TREATMENT,2024-09-11,2024-09-11,190,190
I8F-JE-GPGO-SURPASS,EC,I8F-JE-GPGO-SURPASS-JPN_SENDAI01-0006,29,TIRZEPATIDE,PERFORMED,Y,Y,,,15.0,,mg,INJECTION,QW,SUBCUTANEOUS,29.0,,TREATMENT,2024-09-18,2024-09-18,197,197
I8F-JE-GPGO-SURPASS,EC,I8F-JE-GPGO-SURPASS-JPN_SENDAI01-0006,30,TIRZEPATIDE,PERFORMED,Y,Y,,,15.0,,mg,INJECTION,QW,SUBCUTANEOUS,30.0,,TREATMENT,2024-09-25,2024-09-25,204,204
I8F-JE-GPGO-SURPASS,EC,I8F-JE-GPGO-SURPASS-JPN_SENDAI01-0006,31,TIRZEPATIDE,PERFORMED,Y,Y,,,15.0,,mg,INJECTION,QW,SUBCUTANEOUS,31.0,,TREATMENT,2024-10-02,2024-10-02,211,211
I8F-JE-GPGO-SURPASS,EC,I8F-JE-GPGO-SURPASS-JPN_SENDAI01-0006,32,TIRZEPATIDE,PERFORMED,Y,Y,,,15.0,,mg,INJECTION,QW,SUBCUTANEOUS,32.0,,TREATMENT,2024-10-09,2024-10-09,218,218
I8F-JE-GPGO-SURPASS,EC,I8F-JE-GPGO-SURPASS-JPN_SENDAI01-0006,33,TIRZEPATIDE,PERFORMED,Y,Y,,,15.0,,mg,INJECTION,QW,SUBCUTANEOUS,9.0,WEEK 32,TREATMENT,2024-10-16,2024-10-16,225,225
I8F-JE-GPGO-SURPASS,EC,I8F-JE-GPGO-SURPASS-JPN_SENDAI01-0006,34,TIRZEPATIDE,PERFORMED,Y,Y,,,15.0,,mg,INJECTION,QW,SUBCUTANEOUS,34.0,,TREATMENT,2024-10-23,2024-10-23,232,232
I8F-JE-GPGO-SURPASS,EC,I8F-JE-GPGO-SURPASS-JPN_SENDAI01-0006,35,TIRZEPATIDE,PERFORMED,Y,Y,,,15.0,,mg,INJECTION,QW,SUBCUTANEOUS,35.0,,TREATMENT,2024-10-30,2024-10-30,239,239
I8F-JE-GPGO-SURPASS,EC,I8F-JE-GPGO-SURPASS-JPN_SENDAI01-0006,36,TIRZEPATIDE,PERFORMED,Y,Y,,,15.0,,mg,INJECTION,QW,SUBCUTANEOUS,36.0,,TREATMENT,2024-11-06,2024-11-06,246,246
I8F-JE-GPGO-SURPASS,EC,I8F-JE-GPGO-SURPASS-JPN_SENDAI01-0006,37,TIRZEPATIDE,PERFORMED,Y,Y,,,15.0,,mg,INJECTION,QW,SUBCUTANEOUS,37.0,,TREATMENT,2024-11-13,2024-11-13,253,253
I8F-JE-GPGO-SURPASS,EC,I8F-JE-GPGO-SURPASS-JPN_SENDAI01-0006,38,TIRZEPATIDE,PERFORMED,Y,Y,,,15.0,,mg,INJECTION,QW,SUBCUTANEOUS,38.0,,TREATMENT,2024-11-20,2024-11-20,260,260
I8F-JE-GPGO-SURPASS,EC,I8F-JE-GPGO-SURPASS-JPN_SENDAI01-0006,39,TIRZEPATIDE,PERFORMED,Y,Y,,,15.0,,mg,INJECTION,QW,SUBCUTANEOUS,39.0,,TREATMENT,2024-11-27,2024-11-27,267,267
I8F-JE-GPGO-SURPASS,EC,I8F-JE-GPGO-SURPASS-JPN_SENDAI01-0006,40,TIRZEPATIDE,PERFORMED,Y,Y,,,15.0,,mg,INJECTION,QW,SUBCUTANEOUS,40.0,,TREATMENT,2024-12-04,2024-12-04,274,274
I8F-JE-GPGO-SURPASS,EC,I8F-JE-GPGO-SURPASS-JPN_SENDAI01-0006,41,TIRZEPATIDE,PERFORMED,Y,Y,,,15.0,,mg,INJECTION,QW,SUBCUTANEOUS,10.0,WEEK 40,TREATMENT,2024-12-11,2024-12-11,281,281
I8F-JE-GPGO-SURPASS,EC,I8F-JE-GPGO-SURPASS-JPN_SENDAI01-0006,42,TIRZEPATIDE,PERFORMED,Y,Y,,,15.0,,mg,INJECTION,QW,SUBCUTANEOUS,42.0,,TREATMENT,2024-12-18,2024-12-18,288,288
I8F-JE-GPGO-SURPASS,EC,I8F-JE-GPGO-SURPASS-JPN_SENDAI01-0006,43,TIRZEPATIDE,PERFORMED,Y,Y,,,15.0,,mg,INJECTION,QW,SUBCUTANEOUS,43.0,,TREATMENT,2024-12-25,2024-12-25,295,295
I8F-JE-GPGO-SURPASS,EC,I8F-JE-GPGO-SURPASS-JPN_SENDAI01-0006,44,TIRZEPATIDE,PERFORMED,Y,Y,,,15.0,,mg,INJECTION,QW,SUBCUTANEOUS,44.0,,TREATMENT,2025-01-01,2025-01-01,302,302
I8F-JE-GPGO-SURPASS,EC,I8F-JE-GPGO-SURPASS-JPN_SENDAI01-0006,45,TIRZEPATIDE,PERFORMED,Y,Y,,,15.0,,mg,INJECTION,QW,SUBCUTANEOUS,45.0,,TREATMENT,2025-01-08,2025-01-08,309,309
I8F-JE-GPGO-SURPASS,EC,I8F-JE-GPGO-SURPASS-JPN_SENDAI01-0006,46,TIRZEPATIDE,SCHEDULED,Y,,NOT DONE,SUBJECT NON-COMPLIANCE,,,mg,INJECTION,QW,SUBCUTANEOUS,46.0,,TREATMENT,2025-01-15,2025-01-15,316,316
I8F-JE-GPGO-SURPASS,EC,I8F-JE-GPGO-SURPASS-JPN_SENDAI01-0006,47,TIRZEPATIDE,PERFORMED,Y,Y,,,15.0,,mg,INJECTION,QW,SUBCUTANEOUS,47.0,,TREATMENT,2025-01-22,2025-01-22,323,323
I8F-JE-GPGO-SURPASS,EC,I8F-JE-GPGO-SURPASS-JPN_SENDAI01-0006,48,TIRZEPATIDE,PERFORMED,Y,Y,,,15.0,,mg,INJECTION,QW,SUBCUTANEOUS,48.0,,TREATMENT,2025-01-29,2025-01-29,330,330
I8F-JE-GPGO-SURPASS,EC,I8F-JE-GPGO-SURPASS-JPN_SENDAI01-0006,49,TIRZEPATIDE,PERFORMED,Y,Y,,,15.0,,mg,INJECTION,QW,SUBCUTANEOUS,49.0,,TREATMENT,2025-02-05,2025-02-05,337,337
I8F-JE-GPGO-SURPASS,EC,I8F-JE-GPGO-SURPASS-JPN_SENDAI01-0006,50,TIRZEPATIDE,PERFORMED,Y,Y,,,15.0,,mg,INJECTION,QW,SUBCUTANEOUS,50.0,,TREATMENT,2025-02-12,2025-02-12,344,344
I8F-JE-GPGO-SURPASS,EC,I8F-JE-GPGO-SURPASS-JPN_SENDAI01-0006,51,TIRZEPATIDE,PERFORMED,Y,Y,,,15.0,,mg,INJECTION,QW,SUBCUTANEOUS,51.0,,TREATMENT,2025-02-19,2025-02-19,351,351
I8F-JE-GPGO-SURPASS,EC,I8F-JE-GPGO-SURPASS-JPN_SENDAI01-0006,52,TIRZEPATIDE,PERFORMED,Y,Y,,,15.0,,mg,INJECTION,QW,SUBCUTANEOUS,52.0,,TREATMENT,2025-02-26,2025-02-26,358,358
I8F-JE-GPGO-SURPASS,EC,I8F-JE-GPGO-SURPASS-JPN_SENDAI01-0009,1,TIRZEPATIDE,PERFORMED,Y,Y,,,2.5,,mg,INJECTION,QW,SUBCUTANEOUS,2.0,BASELINE,TREATMENT,2024-03-03,2024-03-03,1,1
I8F-JE-GPGO-SURPASS,EC,I8F-JE-GPGO-SURPASS-JPN_SENDAI01-0009,2,TIRZEPATIDE,PERFORMED,Y,Y,,,2.5,,mg,INJECTION,QW,SUBCUTANEOUS,2.0,,TREATMENT,2024-03-10,2024-03-10,8,8
I8F-JE-GPGO-SURPASS,EC,I8F-JE-GPGO-SURPASS-JPN_SENDAI01-0009,3,TIRZEPATIDE,PERFORMED,Y,Y,,,2.5,,mg,INJECTION,QW,SUBCUTANEOUS,3.0,,TREATMENT,2024-03-17,2024-03-17,15,15
I8F-JE-GPGO-SURPASS,EC,I8F-JE-GPGO-SURPASS-JPN_SENDAI01-0009,4,TIRZEPATIDE,PERFORMED,Y,Y,,,2.5,,mg,INJECTION,QW,SUBCUTANEOUS,4.0,,TREATMENT,2024-03-24,2024-03-24,22,22
I8F-JE-GPGO-SURPASS,EC,I8F-JE-GPGO-SURPASS-JPN_SENDAI01-0009,5,TIRZEPATIDE,PERFORMED,Y,Y,,,5.0,,mg,INJECTION,QW,SUBCUTANEOUS,3.0,WEEK 4,TREATMENT,2024-03-31,2024-03-31,29,29
I8F-JE-GPGO-SURPASS,EC,I8F-JE-GPGO-SURPASS-JPN_SENDAI01-0009,6,TIRZEPATIDE,PERFORMED,Y,Y,,,5.0,,mg,INJECTION,QW,SUBCUTANEOUS,6.0,,TREATMENT,2024-04-07,2024-04-07,36,36
I8F-JE-GPGO-SURPASS,EC,I8F-JE-GPGO-SURPASS-JPN_SENDAI01-0009,7,TIRZEPATIDE,PERFORMED,Y,Y,,,5.0,,mg,INJECTION,QW,SUBCUTANEOUS,7.0,,TREATMENT,2024-04-14,2024-04-14,43,43
I8F-JE-GPGO-SURPASS,EC,I8F-JE-GPGO-SURPASS-JPN_SENDAI01-0009,8,TIRZEPATIDE,PERFORMED,Y,Y,,,5.0,,mg,INJECTION,QW,SUBCUTANEOUS,8.0,,TREATMENT,2024-04-21,2024-04-21,50,50
I8F-JE-GPGO-SURPASS,EC,I8F-JE-GPGO-SURPASS-JPN_SENDAI01-0009,9,TIRZEPATIDE,PERFORMED,Y,Y,,,7.5,,mg,INJECTION,QW,SUBCUTANEOUS,4.0,WEEK 8,TREATMENT,2024-04-28,2024-04-28,57,57
I8F-JE-GPGO-SURPASS,EC,I8F-JE-GPGO-SURPASS-JPN_SENDAI01-0009,10,TIRZEPATIDE,PERFORMED,Y,Y,,,7.5,,mg,INJECTION,QW,SUBCUTANEOUS,10.0,,TREATMENT,2024-05-05,2024-05-05,64,64
I8F-JE-GPGO-SURPASS,EC,I8F-JE-GPGO-SURPASS-JPN_SENDAI01-0009,11,TIRZEPATIDE,PERFORMED,Y,Y,,,7.5,,mg,INJECTION,QW,SUBCUTANEOUS,11.0,,TREATMENT,2024-05-12,2024-05-12,71,71
I8F-JE-GPGO-SURPASS,EC,I8F-JE-GPGO-SURPASS-JPN_SENDAI01-0009,12,TIRZEPATIDE,PERFORMED,Y,Y,,,7.5,,mg,INJECTION,QW,SUBCUTANEOUS,12.0,,TREATMENT,2024-05-19,2024-05-19,78,78
I8F-JE-GPGO-SURPASS,EC,I8F-JE-GPGO-SURPASS-JPN_SENDAI01-0009,13,TIRZEPATIDE,PERFORMED,Y,Y,,,10.0,,mg,INJECTION,QW,SUBCUTANEOUS,5.0,WEEK 12,TREATMENT,2024-05-26,2024-05-26,85,85
I8F-JE-GPGO-SURPASS,EC,I8F-JE-GPGO-SURPASS-JPN_SENDAI01-0009,14,TIRZEPATIDE,PERFORMED,Y,Y,,,10.0,,mg,INJECTION,QW,SUBCUTANEOUS,14.0,,TREATMENT,2024-06-02,2024-06-02,92,92
I8F-JE-GPGO-SURPASS,EC,I8F-JE-GPGO-SURPASS-JPN_SENDAI01-0009,15,TIRZEPATIDE,PERFORMED,Y,Y,,,10.0,,mg,INJECTION,QW,SUBCUTANEOUS,15.0,,TREATMENT,2024-06-09,2024-06-09,99,99
I8F-JE-GPGO-SURPASS,EC,I8F-JE-GPGO-SURPASS-JPN_SENDAI01-0009,16,TIRZEPATIDE,PERFORMED,Y,Y,,,10.0,,mg,INJECTION,QW,SUBCUTANEOUS,16.0,,TREATMENT,2024-06-16,2024-06-16,106,106
I8F-JE-GPGO-SURPASS,EC,I8F-JE-GPGO-SURPASS-JPN_SENDAI01-0009,17,TIRZEPATIDE,PERFORMED,Y,Y,,,12.5,,mg,INJECTION,QW,SUBCUTANEOUS,6.0,WEEK 16,TREATMENT,2024-06-23,2024-06-23,113,113
I8F-JE-GPGO-SURPASS,EC,I8F-JE-GPGO-SURPASS-JPN_SENDAI01-0009,18,TIRZEPATIDE,PERFORMED,Y,Y,,,12.5,,mg,INJECTION,QW,SUBCUTANEOUS,18.0,,TREATMENT,2024-06-30,2024-06-30,120,120
I8F-JE-GPGO-SURPASS,EC,I8F-JE-GPGO-SURPASS-JPN_SENDAI01-0009,19,TIRZEPATIDE,PERFORMED,Y,Y,,,12.5,,mg,INJECTION,QW,SUBCUTANEOUS,19.0,,TREATMENT,2024-07-07,2024-07-07,127,127
I8F-JE-GPGO-SURPASS,EC,I8F-JE-GPGO-SURPASS-JPN_SENDAI01-0009,20,TIRZEPATIDE,PERFORMED,Y,Y,,,12.5,,mg,INJECTION,QW,SUBCUTANEOUS,20.0,,TREATMENT,2024-07-14,2024-07-14,134,134
I8F-JE-GPGO-SURPASS,EC,I8F-JE-GPGO-SURPASS-JPN_SENDAI01-0009,21,TIRZEPATIDE,PERFORMED,Y,Y,,,15.0,,mg,INJECTION,QW,SUBCUTANEOUS,7.0,WEEK 20,TREATMENT,2024-07-21,2024-07-21,141,141
I8F-JE-GPGO-SURPASS,EC,I8F-JE-GPGO-SURPASS-JPN_SENDAI01-0009,22,TIRZEPATIDE,PERFORMED,Y,Y,,,15.0,,mg,INJECTION,QW,SUBCUTANEOUS,22.0,,TREATMENT,2024-07-28,2024-07-28,148,148
I8F-JE-GPGO-SURPASS,EC,I8F-JE-GPGO-SURPASS-JPN_SENDAI01-0009,23,TIRZEPATIDE,PERFORMED,Y,Y,,,15.0,,mg,INJECTION,QW,SUBCUTANEOUS,23.0,,TREATMENT,2024-08-04,2024-08-04,155,155
I8F-JE-GPGO-SURPASS,EC,I8F-JE-GPGO-SURPASS-JPN_SENDAI01-0009,24,TIRZEPATIDE,PERFORMED,Y,Y,,,15.0,,mg,INJECTION,QW,SUBCUTANEOUS,24.0,,TREATMENT,2024-08-11,2024-08-11,162,162
I8F-JE-GPGO-SURPASS,EC,I8F-JE-GPGO-SURPASS-JPN_SENDAI01-0009,25,TIRZEPATIDE,PERFORMED,Y,Y,,,15.0,,mg,INJECTION,QW,SUBCUTANEOUS,8.0,WEEK 24,TREATMENT,2024-08-18,2024-08-18,169,169
I8F-JE-GPGO-SURPASS,EC,I8F-JE-GPGO-SURPASS-JPN_SENDAI01-0009,26,TIRZEPATIDE,PERFORMED,Y,Y,,,15.0,,mg,INJECTION,QW,SUBCUTANEOUS,26.0,,TREATMENT,2024-08-25,2024-08-25,176,176
I8F-JE-GPGO-SURPASS,EC,I8F-JE-GPGO-SURPASS-JPN_SENDAI01-0009,27,TIRZEPATIDE,PERFORMED,Y,Y,,,15.0,,mg,INJECTION,QW,SUBCUTANEOUS,27.0,,TREATMENT,2024-09-01,2024-09-01,183,183
I8F-JE-GPGO-SURPASS,EC,I8F-JE-GPGO-SURPASS-JPN_SENDAI01-0009,28,TIRZEPATIDE,SCHEDULED,Y,,NOT DONE,SUBJECT NON-COMPLIANCE,,,mg,INJECTION,QW,SUBCUTANEOUS,28.0,,TREATMENT,2024-09-08,2024-09-08,190,190
I8F-JE-GPGO-SURPASS,EC,I8F-JE-GPGO-SURPASS-JPN_SENDAI01-0009,29,TIRZEPATIDE,PERFORMED,Y,Y,,,15.0,,mg,INJECTION,QW,SUBCUTANEOUS,29.0,,TREATMENT,2024-09-15,2024-09-15,197,197
I8F-JE-GPGO-SURPASS,EC,I8F-JE-GPGO-SURPASS-JPN_SENDAI01-0009,30,TIRZEPATIDE,PERFORMED,Y,Y,,,15.0,,mg,INJECTION,QW,SUBCUTANEOUS,30.0,,TREATMENT,2024-09-22,2024-09-22,204,204
I8F-JE-GPGO-SURPASS,EC,I8F-JE-GPGO-SURPASS-JPN_SENDAI01-0009,31,TIRZEPATIDE,PERFORMED,Y,Y,,,15.0,,mg,INJECTION,QW,SUBCUTANEOUS,31.0,,TREATMENT,2024-09-29,2024-09-29,211,211
I8F-JE-GPGO-SURPASS,EC,I8F-JE-GPGO-SURPASS-JPN_SENDAI01-0009,32,TIRZEPATIDE,PERFORMED,Y,Y,,,15.0,,mg,INJECTION,QW,SUBCUTANEOUS,32.0,,TREATMENT,2024-10-06,2024-10-06,218,218
I8F-JE-GPGO-SURPASS,EC,I8F-JE-GPGO-SURPASS-JPN_SENDAI01-0009,33,TIRZEPATIDE,PERFORMED,Y,Y,,,15.0,,mg,INJECTION,QW,SUBCUTANEOUS,9.0,WEEK 32,TREATMENT,2024-10-13,2024-10-13,225,225
I8F-JE-GPGO-SURPASS,EC,I8F-JE-GPGO-SURPASS-JPN_SENDAI01-0009,34,TIRZEPATIDE,PERFORMED,Y,Y,,,15.0,,mg,INJECTION,QW,SUBCUTANEOUS,34.0,,TREATMENT,2024-10-20,2024-10-20,232,232
I8F-JE-GPGO-SURPASS,EC,I8F-JE-GPGO-SURPASS-JPN_SENDAI01-0009,35,TIRZEPATIDE,PERFORMED,Y,Y,,,15.0,,mg,INJECTION,QW,SUBCUTANEOUS,35.0,,TREATMENT,2024-10-27,2024-10-27,239,239
I8F-JE-GPGO-SURPASS,EC,I8F-JE-GPGO-SURPASS-JPN_SENDAI01-0009,36,TIRZEPATIDE,PERFORMED,Y,Y,,,15.0,,mg,INJECTION,QW,SUBCUTANEOUS,36.0,,TREATMENT,2024-11-03,2024-11-03,246,246
I8F-JE-GPGO-SURPASS,EC,I8F-JE-GPGO-SURPASS-JPN_SENDAI01-0009,37,TIRZEPATIDE,SCHEDULED,Y,,NOT DONE,SUBJECT NON-COMPLIANCE,,,mg,INJECTION,QW,SUBCUTANEOUS,37.0,,TREATMENT,2024-11-10,2024-11-10,253,253
I8F-JE-GPGO-SURPASS,EC,I8F-JE-GPGO-SURPASS-JPN_SENDAI01-0009,38,TIRZEPATIDE,PERFORMED,Y,Y,,,15.0,,mg,INJECTION,QW,SUBCUTANEOUS,38.0,,TREATMENT,2024-11-17,2024-11-17,260,260
I8F-JE-GPGO-SURPASS,EC,I8F-JE-GPGO-SURPASS-JPN_SENDAI01-0009,39,TIRZEPATIDE,PERFORMED,Y,Y,,,15.0,,mg,INJECTION,QW,SUBCUTANEOUS,39.0,,TREATMENT,2024-11-24,2024-11-24,267,267
I8F-JE-GPGO-SURPASS,EC,I8F-JE-GPGO-SURPASS-JPN_SENDAI01-0009,40,TIRZEPATIDE,PERFORMED,Y,Y,,,15.0,,mg,INJECTION,QW,SUBCUTANEOUS,40.0,,TREATMENT,2024-12-01,2024-12-01,274,274
I8F-JE-GPGO-SURPASS,EC,I8F-JE-GPGO-SURPASS-JPN_SENDAI01-0009,41,TIRZEPATIDE,PERFORMED,Y,Y,,,15.0,,mg,INJECTION,QW,SUBCUTANEOUS,10.0,WEEK 40,TREATMENT,2024-12-08,2024-12-08,281,281
I8F-JE-GPGO-SURPASS,EC,I8F-JE-GPGO-SURPASS-JPN_SENDAI01-0009,42,TIRZEPATIDE,PERFORMED,Y,Y,,,15.0,,mg,INJECTION,QW,SUBCUTANEOUS,42.0,,TREATMENT,2024-12-15,2024-12-15,288,288
I8F-JE-GPGO-SURPASS,EC,I8F-JE-GPGO-SURPASS-JPN_SENDAI01-0009,43,TIRZEPATIDE,PERFORMED,Y,Y,,,15.0,,mg,INJECTION,QW,SUBCUTANEOUS,43.0,,TREATMENT,2024-12-22,2024-12-22,295,295
I8F-JE-GPGO-SURPASS,EC,I8F-JE-GPGO-SURPASS-JPN_SENDAI01-0009,44,TIRZEPATIDE,SCHEDULED,Y,,NOT DONE,SUBJECT NON-COMPLIANCE,,,mg,INJECTION,QW,SUBCUTANEOUS,44.0,,TREATMENT,2024-12-29,2024-12-29,302,302
I8F-JE-GPGO-SURPASS,EC,I8F-JE-GPGO-SURPASS-JPN_SENDAI01-0009,45,TIRZEPATIDE,PERFORMED,Y,Y,,,15.0,,mg,INJECTION,QW,SUBCUTANEOUS,45.0,,TREATMENT,2025-01-05,2025-01-05,309,309
I8F-JE-GPGO-SURPASS,EC,I8F-JE-GPGO-SURPASS-JPN_SENDAI01-0009,46,TIRZEPATIDE,PERFORMED,Y,Y,,,15.0,,mg,INJECTION,QW,SUBCUTANEOUS,46.0,,TREATMENT,2025-01-12,2025-01-12,316,316
I8F-JE-GPGO-SURPASS,EC,I8F-JE-GPGO-SURPASS-JPN_SENDAI01-0009,47,TIRZEPATIDE,PERFORMED,Y,Y,,,15.0,,mg,INJECTION,QW,SUBCUTANEOUS,47.0,,TREATMENT,2025-01-19,2025-01-19,323,323
I8F-JE-GPGO-SURPASS,EC,I8F-JE-GPGO-SURPASS-JPN_SENDAI01-0009,48,TIRZEPATIDE,PERFORMED,Y,Y,,,15.0,,mg,INJECTION,QW,SUBCUTANEOUS,48.0,,TREATMENT,2025-01-26,2025-01-26,330,330
I8F-JE-GPGO-SURPASS,EC,I8F-JE-GPGO-SURPASS-JPN_SENDAI01-0009,49,TIRZEPATIDE,PERFORMED,Y,Y,,,15.0,,mg,INJECTION,QW,SUBCUTANEOUS,49.0,,TREATMENT,2025-02-02,2025-02-02,337,337
I8F-JE-GPGO-SURPASS,EC,I8F-JE-GPGO-SURPASS-JPN_SENDAI01-0009,50,TIRZEPATIDE,SCHEDULED,Y,,NOT DONE,SUBJECT NON-COMPLIANCE,,,mg,INJECTION,QW,SUBCUTANEOUS,50.0,,TREATMENT,2025-02-09,2025-02-09,344,344
I8F-JE-GPGO-SURPASS,EC,I8F-JE-GPGO-SURPASS-JPN_SENDAI01-0009,51,TIRZEPATIDE,PERFORMED,Y,Y,,,15.0,,mg,INJECTION,QW,SUBCUTANEOUS,51.0,,TREATMENT,2025-02-16,2025-02-16,351,351
I8F-JE-GPGO-SURPASS,EC,I8F-JE-GPGO-SURPASS-JPN_SENDAI01-0009,52,TIRZEPATIDE,SCHEDULED,Y,,NOT DONE,SUBJECT NON-COMPLIANCE,,,mg,INJECTION,QW,SUBCUTANEOUS,52.0,,TREATMENT,2025-02-23,2025-02-23,358,358
I8F-JE-GPGO-SURPASS,EC,I8F-JE-GPGO-SURPASS-JPN_SENDAI01-0012,1,TIRZEPATIDE,PERFORMED,Y,Y,,,2.5,,mg,INJECTION,QW,SUBCUTANEOUS,2.0,BASELINE,TREATMENT,2024-04-30,2024-04-30,1,1
I8F-JE-GPGO-SURPASS,EC,I8F-JE-GPGO-SURPASS-JPN_SENDAI01-0012,2,TIRZEPATIDE,PERFORMED,Y,Y,,,2.5,,mg,INJECTION,QW,SUBCUTANEOUS,2.0,,TREATMENT,2024-05-07,2024-05-07,8,8
I8F-JE-GPGO-SURPASS,EC,I8F-JE-GPGO-SURPASS-JPN_SENDAI01-0012,3,TIRZEPATIDE,PERFORMED,Y,Y,,,2.5,,mg,INJECTION,QW,SUBCUTANEOUS,3.0,,TREATMENT,2024-05-14,2024-05-14,15,15
I8F-JE-GPGO-SURPASS,EC,I8F-JE-GPGO-SURPASS-JPN_SENDAI01-0012,4,TIRZEPATIDE,SCHEDULED,Y,,NOT DONE,SUBJECT NON-COMPLIANCE,,,mg,INJECTION,QW,SUBCUTANEOUS,4.0,,TREATMENT,2024-05-21,2024-05-21,22,22
I8F-JE-GPGO-SURPASS,EC,I8F-JE-GPGO-SURPASS-JPN_SENDAI01-0012,5,TIRZEPATIDE,PERFORMED,Y,Y,,,5.0,,mg,INJECTION,QW,SUBCUTANEOUS,3.0,WEEK 4,TREATMENT,2024-05-28,2024-05-28,29,29
I8F-JE-GPGO-SURPASS,EC,I8F-JE-GPGO-SURPASS-JPN_SENDAI01-0012,6,TIRZEPATIDE,PERFORMED,Y,Y,,,5.0,,mg,INJECTION,QW,SUBCUTANEOUS,6.0,,TREATMENT,2024-06-04,2024-06-04,36,36
I8F-JE-GPGO-SURPASS,EC,I8F-JE-GPGO-SURPASS-JPN_SENDAI01-0012,7,TIRZEPATIDE,PERFORMED,Y,Y,,,5.0,,mg,INJECTION,QW,SUBCUTANEOUS,7.0,,TREATMENT,2024-06-11,2024-06-11,43,43
I8F-JE-GPGO-SURPASS,EC,I8F-JE-GPGO-SURPASS-JPN_SENDAI01-0012,8,TIRZEPATIDE,PERFORMED,Y,Y,,,5.0,,mg,INJECTION,QW,SUBCUTANEOUS,8.0,,TREATMENT,2024-06-18,2024-06-18,50,50
I8F-JE-GPGO-SURPASS,EC,I8F-JE-GPGO-SURPASS-JPN_SENDAI01-0012,9,TIRZEPATIDE,PERFORMED,Y,Y,,,7.5,,mg,INJECTION,QW,SUBCUTANEOUS,4.0,WEEK 8,TREATMENT,2024-06-25,2024-06-25,57,57
I8F-JE-GPGO-SURPASS,EC,I8F-JE-GPGO-SURPASS-JPN_SENDAI01-0012,10,TIRZEPATIDE,PERFORMED,Y,Y,,,7.5,,mg,INJECTION,QW,SUBCUTANEOUS,10.0,,TREATMENT,2024-07-02,2024-07-02,64,64
I8F-JE-GPGO-SURPASS,EC,I8F-JE-GPGO-SURPASS-JPN_SENDAI01-0012,11,TIRZEPATIDE,PERFORMED,Y,Y,,,7.5,,mg,INJECTION,QW,SUBCUTANEOUS,11.0,,TREATMENT,2024-07-09,2024-07-09,71,71
I8F-JE-GPGO-SURPASS,EC,I8F-JE-GPGO-SURPASS-JPN_SENDAI01-0012,12,TIRZEPATIDE,PERFORMED,Y,Y,,,7.5,,mg,INJECTION,QW,SUBCUTANEOUS,12.0,,TREATMENT,2024-07-16,2024-07-16,78,78
I8F-JE-GPGO-SURPASS,EC,I8F-JE-GPGO-SURPASS-JPN_SENDAI01-0012,13,TIRZEPATIDE,PERFORMED,Y,Y,,,10.0,,mg,INJECTION,QW,SUBCUTANEOUS,5.0,WEEK 12,TREATMENT,2024-07-23,2024-07-23,85,85
I8F-JE-GPGO-SURPASS,EC,I8F-JE-GPGO-SURPASS-JPN_SENDAI01-0012,14,TIRZEPATIDE,PERFORMED,Y,Y,,,10.0,,mg,INJECTION,QW,SUBCUTANEOUS,14.0,,TREATMENT,2024-07-30,2024-07-30,92,92
I8F-JE-GPGO-SURPASS,EC,I8F-JE-GPGO-SURPASS-JPN_SENDAI01-0012,15,TIRZEPATIDE,PERFORMED,Y,Y,,,10.0,,mg,INJECTION,QW,SUBCUTANEOUS,15.0,,TREATMENT,2024-08-06,2024-08-06,99,99
I8F-JE-GPGO-SURPASS,EC,I8F-JE-GPGO-SURPASS-JPN_SENDAI01-0012,16,TIRZEPATIDE,PERFORMED,Y,Y,,,10.0,,mg,INJECTION,QW,SUBCUTANEOUS,16.0,,TREATMENT,2024-08-13,2024-08-13,106,106
I8F-JE-GPGO-SURPASS,EC,I8F-JE-GPGO-SURPASS-JPN_SENDAI01-0012,17,TIRZEPATIDE,PERFORMED,Y,Y,,,10.0,,mg,INJECTION,QW,SUBCUTANEOUS,6.0,WEEK 16,TREATMENT,2024-08-20,2024-08-20,113,113
I8F-JE-GPGO-SURPASS,EC,I8F-JE-GPGO-SURPASS-JPN_SENDAI01-0012,18,TIRZEPATIDE,SCHEDULED,Y,,NOT DONE,SUBJECT NON-COMPLIANCE,,,mg,INJECTION,QW,SUBCUTANEOUS,18.0,,TREATMENT,2024-08-27,2024-08-27,120,120
I8F-JE-GPGO-SURPASS,EC,I8F-JE-GPGO-SURPASS-JPN_SENDAI01-0012,19,TIRZEPATIDE,PERFORMED,Y,Y,,,10.0,,mg,INJECTION,QW,SUBCUTANEOUS,19.0,,TREATMENT,2024-09-03,2024-09-03,127,127
I8F-JE-GPGO-SURPASS,EC,I8F-JE-GPGO-SURPASS-JPN_SENDAI01-0012,20,TIRZEPATIDE,PERFORMED,Y,Y,,,10.0,,mg,INJECTION,QW,SUBCUTANEOUS,20.0,,TREATMENT,2024-09-10,2024-09-10,134,134
I8F-JE-GPGO-SURPASS,EC,I8F-JE-GPGO-SURPASS-JPN_SENDAI01-0012,21,TIRZEPATIDE,PERFORMED,Y,Y,,,10.0,,mg,INJECTION,QW,SUBCUTANEOUS,7.0,WEEK 20,TREATMENT,2024-09-17,2024-09-17,141,141
I8F-JE-GPGO-SURPASS,EC,I8F-JE-GPGO-SURPASS-JPN_SENDAI01-0012,22,TIRZEPATIDE,PERFORMED,Y,Y,,,10.0,,mg,INJECTION,QW,SUBCUTANEOUS,22.0,,TREATMENT,2024-09-24,2024-09-24,148,148
I8F-JE-GPGO-SURPASS,EC,I8F-JE-GPGO-SURPASS-JPN_TOKYO01-0008,1,TIRZEPATIDE,SCHEDULED,Y,,NOT DONE,SUBJECT NON-COMPLIANCE,,,mg,INJECTION,QW,SUBCUTANEOUS,2.0,BASELINE,TREATMENT,2024-04-11,2024-04-11,1,1
I8F-JE-GPGO-SURPASS,EC,I8F-JE-GPGO-SURPASS-JPN_TOKYO01-0008,2,TIRZEPATIDE,PERFORMED,Y,Y,,,2.5,,mg,INJECTION,QW,SUBCUTANEOUS,2.0,,TREATMENT,2024-04-18,2024-04-18,8,8
I8F-JE-GPGO-SURPASS,EC,I8F-JE-GPGO-SURPASS-JPN_TOKYO01-0008,3,TIRZEPATIDE,PERFORMED,Y,Y,,,2.5,,mg,INJECTION,QW,SUBCUTANEOUS,3.0,,TREATMENT,2024-04-25,2024-04-25,15,15
I8F-JE-GPGO-SURPASS,EC,I8F-JE-GPGO-SURPASS-JPN_TOKYO01-0008,4,TIRZEPATIDE,PERFORMED,Y,Y,,,2.5,,mg,INJECTION,QW,SUBCUTANEOUS,4.0,,TREATMENT,2024-05-02,2024-05-02,22,22
I8F-JE-GPGO-SURPASS,EC,I8F-JE-GPGO-SURPASS-JPN_TOKYO01-0008,5,TIRZEPATIDE,PERFORMED,Y,Y,,,5.0,,mg,INJECTION,QW,SUBCUTANEOUS,3.0,WEEK 4,TREATMENT,2024-05-09,2024-05-09,29,29
I8F-JE-GPGO-SURPASS,EC,I8F-JE-GPGO-SURPASS-JPN_TOKYO01-0008,6,TIRZEPATIDE,PERFORMED,Y,Y,,,5.0,,mg,INJECTION,QW,SUBCUTANEOUS,6.0,,TREATMENT,2024-05-16,2024-05-16,36,36
I8F-JE-GPGO-SURPASS,EC,I8F-JE-GPGO-SURPASS-JPN_TOKYO01-0008,7,TIRZEPATIDE,PERFORMED,Y,Y,,,5.0,,mg,INJECTION,QW,SUBCUTANEOUS,7.0,,TREATMENT,2024-05-23,2024-05-23,43,43
I8F-JE-GPGO-SURPASS,EC,I8F-JE-GPGO-SURPASS-JPN_TOKYO01-0008,8,TIRZEPATIDE,PERFORMED,Y,Y,,,5.0,,mg,INJECTION,QW,SUBCUTANEOUS,8.0,,TREATMENT,2024-05-30,2024-05-30,50,50
I8F-JE-GPGO-SURPASS,EC,I8F-JE-GPGO-SURPASS-JPN_TOKYO01-0008,9,TIRZEPATIDE,PERFORMED,Y,Y,,,7.5,,mg,INJECTION,QW,SUBCUTANEOUS,4.0,WEEK 8,TREATMENT,2024-06-06,2024-06-06,57,57
I8F-JE-GPGO-SURPASS,EC,I8F-JE-GPGO-SURPASS-JPN_TOKYO01-0008,10,TIRZEPATIDE,PERFORMED,Y,Y,,,7.5,,mg,INJECTION,QW,SUBCUTANEOUS,10.0,,TREATMENT,2024-06-13,2024-06-13,64,64
I8F-JE-GPGO-SURPASS,EC,I8F-JE-GPGO-SURPASS-JPN_TOKYO01-0008,11,TIRZEPATIDE,PERFORMED,Y,Y,,,7.5,,mg,INJECTION,QW,SUBCUTANEOUS,11.0,,TREATMENT,2024-06-20,2024-06-20,71,71
I8F-JE-GPGO-SURPASS,EC,I8F-JE-GPGO-SURPASS-JPN_TOKYO01-0008,12,TIRZEPATIDE,PERFORMED,Y,Y,,,7.5,,mg,INJECTION,QW,SUBCUTANEOUS,12.0,,TREATMENT,2024-06-27,2024-06-27,78,78
I8F-JE-GPGO-SURPASS,EC,I8F-JE-GPGO-SURPASS-JPN_TOKYO01-0008,13,TIRZEPATIDE,PERFORMED,Y,Y,,,10.0,,mg,INJECTION,QW,SUBCUTANEOUS,5.0,WEEK 12,TREATMENT,2024-07-04,2024-07-04,85,85
I8F-JE-GPGO-SURPASS,EC,I8F-JE-GPGO-SURPASS-JPN_TOKYO01-0008,14,TIRZEPATIDE,PERFORMED,Y,Y,,,10.0,,mg,INJECTION,QW,SUBCUTANEOUS,14.0,,TREATMENT,2024-07-11,2024-07-11,92,92
I8F-JE-GPGO-SURPASS,EC,I8F-JE-GPGO-SURPASS-JPN_TOKYO01-0008,15,TIRZEPATIDE,PERFORMED,Y,Y,,,10.0,,mg,INJECTION,QW,SUBCUTANEOUS,15.0,,TREATMENT,2024-07-18,2024-07-18,99,99
I8F-JE-GPGO-SURPASS,EC,I8F-JE-GPGO-SURPASS-JPN_TOKYO01-0008,16,TIRZEPATIDE,PERFORMED,Y,Y,,,10.0,,mg,INJECTION,QW,SUBCUTANEOUS,16.0,,TREATMENT,2024-07-25,2024-07-25,106,106
I8F-JE-GPGO-SURPASS,EC,I8F-JE-GPGO-SURPASS-JPN_TOKYO01-0008,17,TIRZEPATIDE,PERFORMED,Y,Y,,,12.5,,mg,INJECTION,QW,SUBCUTANEOUS,6.0,WEEK 16,TREATMENT,2024-08-01,2024-08-01,113,113
I8F-JE-GPGO-SURPASS,EC,I8F-JE-GPGO-SURPASS-JPN_TOKYO01-0008,18,TIRZEPATIDE,PERFORMED,Y,Y,,,12.5,,mg,INJECTION,QW,SUBCUTANEOUS,18.0,,TREATMENT,2024-08-08,2024-08-08,120,120
I8F-JE-GPGO-SURPASS,EC,I8F-JE-GPGO-SURPASS-JPN_TOKYO01-0008,19,TIRZEPATIDE,SCHEDULED,Y,,NOT DONE,SUBJECT NON-COMPLIANCE,,,mg,INJECTION,QW,SUBCUTANEOUS,19.0,,TREATMENT,2024-08-15,2024-08-15,127,127
I8F-JE-GPGO-SURPASS,EC,I8F-JE-GPGO-SURPASS-JPN_TOKYO01-0008,20,TIRZEPATIDE,PERFORMED,Y,Y,,,12.5,,mg,INJECTION,QW,SUBCUTANEOUS,20.0,,TREATMENT,2024-08-22,2024-08-22,134,134
I8F-JE-GPGO-SURPASS,EC,I8F-JE-GPGO-SURPASS-JPN_TOKYO01-0008,21,TIRZEPATIDE,PERFORMED,Y,Y,,,15.0,,mg,INJECTION,QW,SUBCUTANEOUS,7.0,WEEK 20,TREATMENT,2024-08-29,2024-08-29,141,141
I8F-JE-GPGO-SURPASS,EC,I8F-JE-GPGO-SURPASS-JPN_TOKYO01-0016,1,DULAGLUTIDE,PERFORMED,Y,Y,,,0.75,,mg,INJECTION,QW,SUBCUTANEOUS,2.0,BASELINE,TREATMENT,2024-04-10,2024-04-10,1,1
I8F-JE-GPGO-SURPASS,EC,I8F-JE-GPGO-SURPASS-JPN_TOKYO01-0016,2,DULAGLUTIDE,PERFORMED,Y,Y,,,0.75,,mg,INJECTION,QW,SUBCUTANEOUS,2.0,,TREATMENT,2024-04-17,2024-04-17,8,8
I8F-JE-GPGO-SURPASS,EC,I8F-JE-GPGO-SURPASS-JPN_TOKYO01-0016,3,DULAGLUTIDE,PERFORMED,Y,Y,,,0.75,,mg,INJECTION,QW,SUBCUTANEOUS,3.0,,TREATMENT,2024-04-24,2024-04-24,15,15
I8F-JE-GPGO-SURPASS,EC,I8F-JE-GPGO-SURPASS-JPN_TOKYO01-0016,4,DULAGLUTIDE,PERFORMED,Y,Y,,,0.75,,mg,INJECTION,QW,SUBCUTANEOUS,4.0,,TREATMENT,2024-05-01,2024-05-01,22,22
I8F-JE-GPGO-SURPASS,EC,I8F-JE-GPGO-SURPASS-JPN_TOKYO01-0016,5,DULAGLUTIDE,PERFORMED,Y,Y,,,0.75,,mg,INJECTION,QW,SUBCUTANEOUS,3.0,WEEK 4,TREATMENT,2024-05-08,2024-05-08,29,29
I8F-JE-GPGO-SURPASS,EC,I8F-JE-GPGO-SURPASS-JPN_TOKYO01-0016,6,DULAGLUTIDE,PERFORMED,Y,Y,,,0.75,,mg,INJECTION,QW,SUBCUTANEOUS,6.0,,TREATMENT,2024-05-15,2024-05-15,36,36
I8F-JE-GPGO-SURPASS,EC,I8F-JE-GPGO-SURPASS-JPN_TOKYO01-0016,7,DULAGLUTIDE,PERFORMED,Y,Y,,,0.75,,mg,INJECTION,QW,SUBCUTANEOUS,7.0,,TREATMENT,2024-05-22,2024-05-22,43,43
I8F-JE-GPGO-SURPASS,EC,I8F-JE-GPGO-SURPASS-JPN_TOKYO01-0016,8,DULAGLUTIDE,SCHEDULED,Y,,NOT DONE,SUBJECT NON-COMPLIANCE,,,mg,INJECTION,QW,SUBCUTANEOUS,8.0,,TREATMENT,2024-05-29,2024-05-29,50,50
I8F-JE-GPGO-SURPASS,EC,I8F-JE-GPGO-SURPASS-JPN_TOKYO01-0016,9,DULAGLUTIDE,PERFORMED,Y,Y,,,0.75,,mg,INJECTION,QW,SUBCUTANEOUS,4.0,WEEK 8,TREATMENT,2024-06-05,2024-06-05,57,57
I8F-JE-GPGO-SURPASS,EC,I8F-JE-GPGO-SURPASS-JPN_TOKYO01-0016,10,DULAGLUTIDE,PERFORMED,Y,Y,,,0.75,,mg,INJECTION,QW,SUBCUTANEOUS,10.0,,TREATMENT,2024-06-12,2024-06-12,64,64
I8F-JE-GPGO-SURPASS,EC,I8F-JE-GPGO-SURPASS-JPN_TOKYO01-0016,11,DULAGLUTIDE,PERFORMED,Y,Y,,,0.75,,mg,INJECTION,QW,SUBCUTANEOUS,11.0,,TREATMENT,2024-06-19,2024-06-19,71,71
I8F-JE-GPGO-SURPASS,EC,I8F-JE-GPGO-SURPASS-JPN_TOKYO01-0016,12,DULAGLUTIDE,PERFORMED,Y,Y,,,0.75,,mg,INJECTION,QW,SUBCUTANEOUS,12.0,,TREATMENT,2024-06-26,2024-06-26,78,78
I8F-JE-GPGO-SURPASS,EC,I8F-JE-GPGO-SURPASS-JPN_TOKYO01-0016,13,DULAGLUTIDE,PERFORMED,Y,Y,,,0.75,,mg,INJECTION,QW,SUBCUTANEOUS,5.0,WEEK 12,TREATMENT,2024-07-03,2024-07-03,85,85
I8F-JE-GPGO-SURPASS,EC,I8F-JE-GPGO-SURPASS-JPN_TOKYO01-0016,14,DULAGLUTIDE,PERFORMED,Y,Y,,,0.75,,mg,INJECTION,QW,SUBCUTANEOUS,14.0,,TREATMENT,2024-07-10,2024-07-10,92,92
I8F-JE-GPGO-SURPASS,EC,I8F-JE-GPGO-SURPASS-JPN_TOKYO01-0016,15,DULAGLUTIDE,PERFORMED,Y,Y,,,0.75,,mg,INJECTION,QW,SUBCUTANEOUS,15.0,,TREATMENT,2024-07-17,2024-07-17,99,99
I8F-JE-GPGO-SURPASS,EC,I8F-JE-GPGO-SURPASS-JPN_TOKYO01-0016,16,DULAGLUTIDE,PERFORMED,Y,Y,,,0.75,,mg,INJECTION,QW,SUBCUTANEOUS,16.0,,TREATMENT,2024-07-24,2024-07-24,106,106
I8F-JE-GPGO-SURPASS,EC,I8F-JE-GPGO-SURPASS-JPN_TOKYO01-0016,17,DULAGLUTIDE,PERFORMED,Y,Y,,,0.75,,mg,INJECTION,QW,SUBCUTANEOUS,6.0,WEEK 16,TREATMENT,2024-07-31,2024-07-31,113,113
I8F-JE-GPGO-SURPASS,EC,I8F-JE-GPGO-SURPASS-JPN_TOKYO01-0016,18,DULAGLUTIDE,PERFORMED,Y,Y,,,0.75,,mg,INJECTION,QW,SUBCUTANEOUS,18.0,,TREATMENT,2024-08-07,2024-08-07,120,120
I8F-JE-GPGO-SURPASS,EC,I8F-JE-GPGO-SURPASS-JPN_TOKYO01-0016,19,DULAGLUTIDE,PERFORMED,Y,Y,,,0.75,,mg,INJECTION,QW,SUBCUTANEOUS,19.0,,TREATMENT,2024-08-14,2024-08-14,127,127
I8F-JE-GPGO-SURPASS,EC,I8F-JE-GPGO-SURPASS-JPN_TOKYO01-0016,20,DULAGLUTIDE,PERFORMED,Y,Y,,,0.75,,mg,INJECTION,QW,SUBCUTANEOUS,20.0,,TREATMENT,2024-08-21,2024-08-21,134,134
I8F-JE-GPGO-SURPASS,EC,I8F-JE-GPGO-SURPASS-JPN_TOKYO01-0016,21,DULAGLUTIDE,PERFORMED,Y,Y,,,0.75,,mg,INJECTION,QW,SUBCUTANEOUS,7.0,WEEK 20,TREATMENT,2024-08-28,2024-08-28,141,141
I8F-JE-GPGO-SURPASS,EC,I8F-JE-GPGO-SURPASS-JPN_TOKYO01-0016,22,DULAGLUTIDE,PERFORMED,Y,Y,,,0.75,,mg,INJECTION,QW,SUBCUTANEOUS,22.0,,TREATMENT,2024-09-04,2024-09-04,148,148
I8F-JE-GPGO-SURPASS,EC,I8F-JE-GPGO-SURPASS-JPN_TOKYO01-0016,23,DULAGLUTIDE,PERFORMED,Y,Y,,,0.75,,mg,INJECTION,QW,SUBCUTANEOUS,23.0,,TREATMENT,2024-09-11,2024-09-11,155,155
I8F-JE-GPGO-SURPASS,EC,I8F-JE-GPGO-SURPASS-JPN_TOKYO01-0016,24,DULAGLUTIDE,PERFORMED,Y,Y,,,0.75,,mg,INJECTION,QW,SUBCUTANEOUS,24.0,,TREATMENT,2024-09-18,2024-09-18,162,162
I8F-JE-GPGO-SURPASS,EC,I8F-JE-GPGO-SURPASS-JPN_TOKYO01-0016,25,DULAGLUTIDE,PERFORMED,Y,Y,,,0.75,,mg,INJECTION,QW,SUBCUTANEOUS,8.0,WEEK 24,TREATMENT,2024-09-25,2024-09-25,169,169
I8F-JE-GPGO-SURPASS,EC,I8F-JE-GPGO-SURPASS-JPN_TOKYO01-0016,26,DULAGLUTIDE,PERFORMED,Y,Y,,,0.75,,mg,INJECTION,QW,SUBCUTANEOUS,26.0,,TREATMENT,2024-10-02,2024-10-02,176,176
I8F-JE-GPGO-SURPASS,EC,I8F-JE-GPGO-SURPASS-JPN_TOKYO01-0016,27,DULAGLUTIDE,PERFORMED,Y,Y,,,0.75,,mg,INJECTION,QW,SUBCUTANEOUS,27.0,,TREATMENT,2024-10-09,2024-10-09,183,183
I8F-JE-GPGO-SURPASS,EC,I8F-JE-GPGO-SURPASS-JPN_TOKYO01-0016,28,DULAGLUTIDE,PERFORMED,Y,Y,,,0.75,,mg,INJECTION,QW,SUBCUTANEOUS,28.0,,TREATMENT,2024-10-16,2024-10-16,190,190
I8F-JE-GPGO-SURPASS,EC,I8F-JE-GPGO-SURPASS-JPN_TOKYO01-0016,29,DULAGLUTIDE,PERFORMED,Y,Y,,,0.75,,mg,INJECTION,QW,SUBCUTANEOUS,29.0,,TREATMENT,2024-10-23,2024-10-23,197,197
I8F-JE-GPGO-SURPASS,EC,I8F-JE-GPGO-SURPASS-JPN_TOKYO01-0016,30,DULAGLUTIDE,PERFORMED,Y,Y,,,0.75,,mg,INJECTION,QW,SUBCUTANEOUS,30.0,,TREATMENT,2024-10-30,2024-10-30,204,204
I8F-JE-GPGO-SURPASS,EC,I8F-JE-GPGO-SURPASS-JPN_TOKYO01-0016,31,DULAGLUTIDE,PERFORMED,Y,Y,,,0.75,,mg,INJECTION,QW,SUBCUTANEOUS,31.0,,TREATMENT,2024-11-06,2024-11-06,211,211
I8F-JE-GPGO-SURPASS,EC,I8F-JE-GPGO-SURPASS-JPN_TOKYO01-0016,32,DULAGLUTIDE,PERFORMED,Y,Y,,,0.75,,mg,INJECTION,QW,SUBCUTANEOUS,32.0,,TREATMENT,2024-11-13,2024-11-13,218,218
I8F-JE-GPGO-SURPASS,EC,I8F-JE-GPGO-SURPASS-JPN_TOKYO01-0016,33,DULAGLUTIDE,PERFORMED,Y,Y,,,0.75,,mg,INJECTION,QW,SUBCUTANEOUS,9.0,WEEK 32,TREATMENT,2024-11-20,2024-11-20,225,225
I8F-JE-GPGO-SURPASS,EC,I8F-JE-GPGO-SURPASS-JPN_TOKYO01-0016,34,DULAGLUTIDE,SCHEDULED,Y,,NOT DONE,SUBJECT NON-COMPLIANCE,,,mg,INJECTION,QW,SUBCUTANEOUS,34.0,,TREATMENT,2024-11-27,2024-11-27,232,232
I8F-JE-GPGO-SURPASS,EC,I8F-JE-GPGO-SURPASS-JPN_TOKYO01-0016,35,DULAGLUTIDE,PERFORMED,Y,Y,,,0.75,,mg,INJECTION,QW,SUBCUTANEOUS,35.0,,TREATMENT,2024-12-04,2024-12-04,239,239
I8F-JE-GPGO-SURPASS,EC,I8F-JE-GPGO-SURPASS-JPN_TOKYO01-0016,36,DULAGLUTIDE,PERFORMED,Y,Y,,,0.75,,mg,INJECTION,QW,SUBCUTANEOUS,36.0,,TREATMENT,2024-12-11,2024-12-11,246,246
I8F-JE-GPGO-SURPASS,EC,I8F-JE-GPGO-SURPASS-JPN_TOKYO01-0016,37,DULAGLUTIDE,PERFORMED,Y,Y,,,0.75,,mg,INJECTION,QW,SUBCUTANEOUS,37.0,,TREATMENT,2024-12-18,2024-12-18,253,253
I8F-JE-GPGO-SURPASS,EC,I8F-JE-GPGO-SURPASS-JPN_TOKYO01-0016,38,DULAGLUTIDE,PERFORMED,Y,Y,,,0.75,,mg,INJECTION,QW,SUBCUTANEOUS,38.0,,TREATMENT,2024-12-25,2024-12-25,260,260
I8F-JE-GPGO-SURPASS,EC,I8F-JE-GPGO-SURPASS-JPN_TOKYO01-0016,39,DULAGLUTIDE,PERFORMED,Y,Y,,,0.75,,mg,INJECTION,QW,SUBCUTANEOUS,39.0,,TREATMENT,2025-01-01,2025-01-01,267,267
I8F-JE-GPGO-SURPASS,EC,I8F-JE-GPGO-SURPASS-JPN_TOKYO01-0016,40,DULAGLUTIDE,PERFORMED,Y,Y,,,0.75,,mg,INJECTION,QW,SUBCUTANEOUS,40.0,,TREATMENT,2025-01-08,2025-01-08,274,274
I8F-JE-GPGO-SURPASS,EC,I8F-JE-GPGO-SURPASS-JPN_TOKYO01-0016,41,DULAGLUTIDE,PERFORMED,Y,Y,,,0.75,,mg,INJECTION,QW,SUBCUTANEOUS,10.0,WEEK 40,TREATMENT,2025-01-15,2025-01-15,281,281
I8F-JE-GPGO-SURPASS,EC,I8F-JE-GPGO-SURPASS-JPN_TOKYO01-0016,42,DULAGLUTIDE,PERFORMED,Y,Y,,,0.75,,mg,INJECTION,QW,SUBCUTANEOUS,42.0,,TREATMENT,2025-01-22,2025-01-22,288,288
I8F-JE-GPGO-SURPASS,EC,I8F-JE-GPGO-SURPASS-JPN_TOKYO01-0016,43,DULAGLUTIDE,PERFORMED,Y,Y,,,0.75,,mg,INJECTION,QW,SUBCUTANEOUS,43.0,,TREATMENT,2025-01-29,2025-01-29,295,295
I8F-JE-GPGO-SURPASS,EC,I8F-JE-GPGO-SURPASS-JPN_TOKYO01-0016,44,DULAGLUTIDE,PERFORMED,Y,Y,,,0.75,,mg,INJECTION,QW,SUBCUTANEOUS,44.0,,TREATMENT,2025-02-05,2025-02-05,302,302
I8F-JE-GPGO-SURPASS,EC,I8F-JE-GPGO-SURPASS-JPN_TOKYO01-0016,45,DULAGLUTIDE,SCHEDULED,Y,,NOT DONE,SUBJECT NON-COMPLIANCE,,,mg,INJECTION,QW,SUBCUTANEOUS,45.0,,TREATMENT,2025-02-12,2025-02-12,309,309
I8F-JE-GPGO-SURPASS,EC,I8F-JE-GPGO-SURPASS-JPN_TOKYO01-0016,46,DULAGLUTIDE,PERFORMED,Y,Y,,,0.75,,mg,INJECTION,QW,SUBCUTANEOUS,46.0,,TREATMENT,2025-02-19,2025-02-19,316,316
I8F-JE-GPGO-SURPASS,EC,I8F-JE-GPGO-SURPASS-JPN_TOKYO01-0016,47,DULAGLUTIDE,PERFORMED,Y,Y,,,0.75,,mg,INJECTION,QW,SUBCUTANEOUS,47.0,,TREATMENT,2025-02-26,2025-02-26,323,323
I8F-JE-GPGO-SURPASS,EC,I8F-JE-GPGO-SURPASS-JPN_TOKYO01-0016,48,DULAGLUTIDE,PERFORMED,Y,Y,,,0.75,,mg,INJECTION,QW,SUBCUTANEOUS,48.0,,TREATMENT,2025-03-05,2025-03-05,330,330
I8F-JE-GPGO-SURPASS,EC,I8F-JE-GPGO-SURPASS-JPN_TOKYO01-0016,49,DULAGLUTIDE,SCHEDULED,Y,,NOT DONE,SUBJECT NON-COMPLIANCE,,,mg,INJECTION,QW,SUBCUTANEOUS,49.0,,TREATMENT,2025-03-12,2025-03-12,337,337
I8F-JE-GPGO-SURPASS,EC,I8F-JE-GPGO-SURPASS-JPN_TOKYO01-0016,50,DULAGLUTIDE,PERFORMED,Y,Y,,,0.75,,mg,INJECTION,QW,SUBCUTANEOUS,50.0,,TREATMENT,2025-03-19,2025-03-19,344,344
I8F-JE-GPGO-SURPASS,EC,I8F-JE-GPGO-SURPASS-JPN_TOKYO01-0016,51,DULAGLUTIDE,PERFORMED,Y,Y,,,0.75,,mg,INJECTION,QW,SUBCUTANEOUS,51.0,,TREATMENT,2025-03-26,2025-03-26,351,351
I8F-JE-GPGO-SURPASS,EC,I8F-JE-GPGO-SURPASS-JPN_TOKYO01-0016,52,DULAGLUTIDE,PERFORMED,Y,Y,,,0.75,,mg,INJECTION,QW,SUBCUTANEOUS,52.0,,TREATMENT,2025-04-02,2025-04-02,358,358
