STUDYID,DOMAIN,USUBJID,IESEQ,IETESTCD,IETEST,IECAT,IEORRES,IESTRESC,VISITNUM,VISIT,EPOCH,IEDTC,IEDY
I8F-JE-GPGO-SURPASS,IE,I8F-JE-GPGO-SURPASS-JPN_FUKUOKA01-0014,1,EXCL03,Subject has severe hepatic impairment (ALT/AST > 5x ULN),EXCLUSION,Y,Y,1.0,SCREENING,SCREENING,2024-02-17,
