STUDYID,DOMAIN,USUBJID,AESEQ,AELNKID,AETERM,AELLT,AELLTCD,AEDECOD,AEPTCD,AEHLT,AEHLTCD,AEHLGT,AEHLGTCD,AEBODSYS,AEBDSYCD,AESOC,AESOCCD,AESEV,AESER,AEACN,AEREL,AEOUT,AESCONG,AESDISAB,AESDTH,AESHOSP,AESLIFE,AESMIE,AECONTRT,EPOCH,AESTDTC,AEENDTC,AESTDY,AEENDY,AEENRF
P261-402-USL261,AE,P261-402-USL261-USA_SITE01-0007,1,AE1,HEADACHE,Headache,,Headache,10019211,Headaches NEC,10019233,Headaches,10019231,Nervous system disorders,10029205,Nervous system disorders,10029205,MODERATE,N,DOSE NOT CHANGED,NOT RELATED,RECOVERING/RESOLVING,N,N,N,N,N,N,Y,TREATMENT,2024-04-21,2024-04-24,4,7,
P261-402-USL261,AE,P261-402-USL261-USA_SITE01-0007,2,AE2,LACRIMATION INCREASED,Lacrimation increased,,Lacrimation increased,10023644,Ocular disorders NEC,10061519,Ocular disorders NEC,10061519,Eye disorders,10015919,Eye disorders,10015919,MODERATE,N,DOSE NOT CHANGED,UNLIKELY RELATED,RECOVERED/RESOLVED,N,N,N,N,N,N,N,TREATMENT,2024-07-02,2024-07-19,76,93,
P261-402-USL261,AE,P261-402-USL261-USA_SITE01-0007,3,AE3,NASAL DISCOMFORT,Nasal discomfort,,Nasal discomfort,10028735,Nasal disorders NEC,10028749,Respiratory tract signs and symptoms,10038734,"Respiratory, thoracic and mediastinal disorders",10038738,"Respiratory, thoracic and mediastinal disorders",10038738,MODERATE,N,DOSE NOT CHANGED,UNLIKELY RELATED,RECOVERING/RESOLVING,N,N,N,N,N,N,Y,TREATMENT,2024-07-31,2024-08-12,105,117,
P261-402-USL261,AE,P261-402-USL261-USA_SITE01-0007,4,AE4,LACRIMATION INCREASED,Lacrimation increased,,Lacrimation increased,10023644,Ocular disorders NEC,10061519,Ocular disorders NEC,10061519,Eye disorders,10015919,Eye disorders,10015919,MILD,N,DOSE NOT CHANGED,NOT RELATED,RECOVERING/RESOLVING,N,N,N,N,N,N,Y,TREATMENT,2024-10-04,2024-10-05,170,171,
P261-402-USL261,AE,P261-402-USL261-USA_SITE01-0007,5,AE5,SOMNOLENCE,Somnolence,,Somnolence,10041349,Disturbances in consciousness NEC,10013396,Neurological signs and symptoms NEC,10049372,Nervous system disorders,10029205,Nervous system disorders,10029205,MODERATE,N,DOSE NOT CHANGED,NOT RELATED,RECOVERED/RESOLVED,N,N,N,N,N,N,N,TREATMENT,2024-10-12,2024-10-20,178,186,
P261-402-USL261,AE,P261-402-USL261-USA_SITE01-0007,6,AE6,FATIGUE,Fatigue,,Fatigue,10016256,Asthenic conditions,10003550,General system disorders NEC,10060892,General disorders and administration site conditions,10018065,General disorders and administration site conditions,10018065,MODERATE,N,DOSE NOT CHANGED,NOT RELATED,RECOVERED/RESOLVED,N,N,N,N,N,N,N,TREATMENT,2024-10-13,2024-11-03,179,200,
P261-402-USL261,AE,P261-402-USL261-USA_SITE01-0007,7,AE7,SOMNOLENCE,Somnolence,,Somnolence,10041349,Disturbances in consciousness NEC,10013396,Neurological signs and symptoms NEC,10049372,Nervous system disorders,10029205,Nervous system disorders,10029205,MILD,N,DOSE NOT CHANGED,NOT RELATED,RECOVERED/RESOLVED,N,N,N,N,N,N,N,TREATMENT,2024-10-26,2024-11-03,192,200,
P261-402-USL261,AE,P261-402-USL261-USA_SITE01-0007,8,AE8,DIZZINESS,Dizziness,,Dizziness,10013573,Dizziness and vertigo symptoms,10049370,Neurological signs and symptoms NEC,10049372,Nervous system disorders,10029205,Nervous system disorders,10029205,SEVERE,Y,DOSE NOT CHANGED,UNLIKELY RELATED,RECOVERED/RESOLVED,N,N,N,Y,N,N,Y,TREATMENT,2024-12-03,2024-12-21,230,248,
P261-402-USL261,AE,P261-402-USL261-USA_SITE01-0007,9,AE9,RHINORRHOEA,Rhinorrhoea,,Rhinorrhoea,10039101,Nasal disorders NEC,10028749,Respiratory tract signs and symptoms,10038734,"Respiratory, thoracic and mediastinal disorders",10038738,"Respiratory, thoracic and mediastinal disorders",10038738,MODERATE,N,DOSE NOT CHANGED,UNLIKELY RELATED,RECOVERED/RESOLVED,N,N,N,N,N,N,Y,TREATMENT,2024-12-05,2024-12-09,232,236,
P261-402-USL261,AE,P261-402-USL261-USA_SITE01-0007,10,AE10,SOMNOLENCE,Somnolence,,Somnolence,10041349,Disturbances in consciousness NEC,10013396,Neurological signs and symptoms NEC,10049372,Nervous system disorders,10029205,Nervous system disorders,10029205,SEVERE,Y,DOSE NOT CHANGED,NOT RELATED,RECOVERED/RESOLVED,N,N,N,N,N,Y,N,TREATMENT,2025-03-26,2025-05-14,343,392,
P261-402-USL261,AE,P261-402-USL261-USA_SITE01-0007,11,AE11,DIZZINESS,Dizziness,,Dizziness,10013573,Dizziness and vertigo symptoms,10049370,Neurological signs and symptoms NEC,10049372,Nervous system disorders,10029205,Nervous system disorders,10029205,MODERATE,N,DOSE NOT CHANGED,NOT RELATED,RECOVERED/RESOLVED,N,N,N,N,N,N,N,TREATMENT,2025-06-01,2025-06-18,410,427,
P261-402-USL261,AE,P261-402-USL261-USA_SITE01-0007,12,AE12,SOMNOLENCE,Somnolence,,Somnolence,10041349,Disturbances in consciousness NEC,10013396,Neurological signs and symptoms NEC,10049372,Nervous system disorders,10029205,Nervous system disorders,10029205,MODERATE,N,DRUG INTERRUPTED,POSSIBLY RELATED,RECOVERED/RESOLVED,N,N,N,N,N,N,N,TREATMENT,2025-06-03,2025-06-08,412,417,
P261-402-USL261,AE,P261-402-USL261-USA_SITE01-0007,13,AE13,HEADACHE,Headache,,Headache,10019211,Headaches NEC,10019233,Headaches,10019231,Nervous system disorders,10029205,Nervous system disorders,10029205,MILD,N,DOSE NOT CHANGED,NOT RELATED,UNKNOWN,N,N,N,N,N,N,N,TREATMENT,2025-06-09,2025-06-11,418,420,
P261-402-USL261,AE,P261-402-USL261-USA_SITE01-0007,14,AE14,HEADACHE,Headache,,Headache,10019211,Headaches NEC,10019233,Headaches,10019231,Nervous system disorders,10029205,Nervous system disorders,10029205,MODERATE,N,DOSE NOT CHANGED,NOT RELATED,RECOVERED/RESOLVED,N,N,N,N,N,N,Y,TREATMENT,2025-06-18,2025-06-20,427,429,
P261-402-USL261,AE,P261-402-USL261-USA_SITE01-0007,15,AE15,SOMNOLENCE,Somnolence,,Somnolence,10041349,Disturbances in consciousness NEC,10013396,Neurological signs and symptoms NEC,10049372,Nervous system disorders,10029205,Nervous system disorders,10029205,MODERATE,N,DOSE NOT CHANGED,UNLIKELY RELATED,RECOVERING/RESOLVING,N,N,N,N,N,N,N,TREATMENT,2025-06-20,2025-06-27,429,436,
P261-402-USL261,AE,P261-402-USL261-USA_SITE01-0007,16,AE16,NASAL DISCOMFORT,Nasal discomfort,,Nasal discomfort,10028735,Nasal disorders NEC,10028749,Respiratory tract signs and symptoms,10038734,"Respiratory, thoracic and mediastinal disorders",10038738,"Respiratory, thoracic and mediastinal disorders",10038738,MODERATE,N,DOSE NOT CHANGED,NOT RELATED,RECOVERING/RESOLVING,N,N,N,N,N,N,N,TREATMENT,2025-07-02,2025-07-06,441,445,
P261-402-USL261,AE,P261-402-USL261-USA_SITE01-0007,17,AE17,LACRIMATION INCREASED,Lacrimation increased,,Lacrimation increased,10023644,Ocular disorders NEC,10061519,Ocular disorders NEC,10061519,Eye disorders,10015919,Eye disorders,10015919,MILD,N,DOSE NOT CHANGED,NOT RELATED,RECOVERING/RESOLVING,N,N,N,N,N,N,Y,TREATMENT,2025-07-16,2025-07-25,455,464,
P261-402-USL261,AE,P261-402-USL261-USA_SITE01-0007,18,AE18,RHINORRHOEA,Rhinorrhoea,,Rhinorrhoea,10039101,Nasal disorders NEC,10028749,Respiratory tract signs and symptoms,10038734,"Respiratory, thoracic and mediastinal disorders",10038738,"Respiratory, thoracic and mediastinal disorders",10038738,SEVERE,Y,DOSE NOT CHANGED,NOT RELATED,RECOVERING/RESOLVING,N,N,N,Y,N,N,Y,TREATMENT,2025-08-15,2025-09-02,485,503,
P261-402-USL261,AE,P261-402-USL261-USA_SITE01-0007,19,AE19,SOMNOLENCE,Somnolence,,Somnolence,10041349,Disturbances in consciousness NEC,10013396,Neurological signs and symptoms NEC,10049372,Nervous system disorders,10029205,Nervous system disorders,10029205,MODERATE,N,DOSE NOT CHANGED,NOT RELATED,RECOVERED/RESOLVED,N,N,N,N,N,N,N,TREATMENT,2025-08-15,2025-09-09,485,510,
P261-402-USL261,AE,P261-402-USL261-USA_SITE01-0007,20,AE20,SOMNOLENCE,Somnolence,,Somnolence,10041349,Disturbances in consciousness NEC,10013396,Neurological signs and symptoms NEC,10049372,Nervous system disorders,10029205,Nervous system disorders,10029205,MODERATE,N,DOSE NOT CHANGED,NOT RELATED,RECOVERED/RESOLVED,N,N,N,N,N,N,N,TREATMENT,2025-09-06,2025-10-05,507,536,
P261-402-USL261,AE,P261-402-USL261-USA_SITE01-0007,21,AE21,RHINORRHOEA,Rhinorrhoea,,Rhinorrhoea,10039101,Nasal disorders NEC,10028749,Respiratory tract signs and symptoms,10038734,"Respiratory, thoracic and mediastinal disorders",10038738,"Respiratory, thoracic and mediastinal disorders",10038738,MILD,N,DOSE NOT CHANGED,POSSIBLY RELATED,RECOVERED/RESOLVED,N,N,N,N,N,N,Y,TREATMENT,2025-09-11,2025-09-17,512,518,
P261-402-USL261,AE,P261-402-USL261-USA_SITE01-0007,22,AE22,NASAL DISCOMFORT,Nasal discomfort,,Nasal discomfort,10028735,Nasal disorders NEC,10028749,Respiratory tract signs and symptoms,10038734,"Respiratory, thoracic and mediastinal disorders",10038738,"Respiratory, thoracic and mediastinal disorders",10038738,MILD,N,DOSE NOT CHANGED,UNLIKELY RELATED,RECOVERED/RESOLVED,N,N,N,N,N,N,N,TREATMENT,2025-11-20,2025-11-22,582,584,
P261-402-USL261,AE,P261-402-USL261-USA_SITE01-0007,23,AE23,NASAL DISCOMFORT,Nasal discomfort,,Nasal discomfort,10028735,Nasal disorders NEC,10028749,Respiratory tract signs and symptoms,10038734,"Respiratory, thoracic and mediastinal disorders",10038738,"Respiratory, thoracic and mediastinal disorders",10038738,MODERATE,N,DOSE NOT CHANGED,NOT RELATED,RECOVERED/RESOLVED,N,N,N,N,N,N,Y,TREATMENT,2025-12-04,2025-12-08,596,600,
P261-402-USL261,AE,P261-402-USL261-USA_SITE01-0007,24,AE24,SOMNOLENCE,Somnolence,,Somnolence,10041349,Disturbances in consciousness NEC,10013396,Neurological signs and symptoms NEC,10049372,Nervous system disorders,10029205,Nervous system disorders,10029205,MILD,N,DOSE NOT CHANGED,NOT RELATED,RECOVERED/RESOLVED,N,N,N,N,N,N,N,TREATMENT,2025-12-06,2025-12-14,598,606,
P261-402-USL261,AE,P261-402-USL261-USA_SITE01-0007,25,AE25,DIZZINESS,Dizziness,,Dizziness,10013573,Dizziness and vertigo symptoms,10049370,Neurological signs and symptoms NEC,10049372,Nervous system disorders,10029205,Nervous system disorders,10029205,MODERATE,N,DOSE NOT CHANGED,NOT RELATED,RECOVERED/RESOLVED WITH SEQUELAE,N,N,N,N,N,N,Y,TREATMENT,2025-12-11,2025-12-22,603,614,
P261-402-USL261,AE,P261-402-USL261-USA_SITE01-0007,26,AE26,FATIGUE,Fatigue,,Fatigue,10016256,Asthenic conditions,10003550,General system disorders NEC,10060892,General disorders and administration site conditions,10018065,General disorders and administration site conditions,10018065,MILD,N,DOSE NOT CHANGED,UNLIKELY RELATED,RECOVERED/RESOLVED,N,N,N,N,N,N,N,TREATMENT,2025-12-19,2025-12-22,611,614,
P261-402-USL261,AE,P261-402-USL261-USA_SITE01-0007,27,AE27,CONVULSION,Convulsion,,Convulsion,10010904,Seizures and seizure disorders NEC,10039911,Seizures (incl subtypes),10039906,Nervous system disorders,10029205,Nervous system disorders,10029205,MILD,N,DOSE NOT CHANGED,NOT RELATED,RECOVERED/RESOLVED,N,N,N,N,N,N,N,TREATMENT,2025-12-27,2026-01-03,619,626,
P261-402-USL261,AE,P261-402-USL261-USA_SITE01-0007,28,AE28,FATIGUE,Fatigue,,Fatigue,10016256,Asthenic conditions,10003550,General system disorders NEC,10060892,General disorders and administration site conditions,10018065,General disorders and administration site conditions,10018065,SEVERE,Y,DOSE NOT CHANGED,NOT RELATED,RECOVERING/RESOLVING,N,N,N,N,N,Y,N,TREATMENT,2026-01-14,2026-02-14,637,668,
P261-402-USL261,AE,P261-402-USL261-USA_SITE01-0007,29,AE29,SOMNOLENCE,Somnolence,,Somnolence,10041349,Disturbances in consciousness NEC,10013396,Neurological signs and symptoms NEC,10049372,Nervous system disorders,10029205,Nervous system disorders,10029205,MILD,N,DOSE NOT CHANGED,NOT RELATED,RECOVERING/RESOLVING,N,N,N,N,N,N,N,TREATMENT,2026-05-01,2026-05-05,744,748,
P261-402-USL261,AE,P261-402-USL261-USA_SITE01-0007,30,AE30,HEADACHE,Headache,,Headache,10019211,Headaches NEC,10019233,Headaches,10019231,Nervous system disorders,10029205,Nervous system disorders,10029205,MODERATE,N,DOSE NOT CHANGED,NOT RELATED,RECOVERED/RESOLVED,N,N,N,N,N,N,Y,TREATMENT,2026-05-30,2026-06-05,773,779,
P261-402-USL261,AE,P261-402-USL261-USA_SITE01-0007,31,AE31,SOMNOLENCE,Somnolence,,Somnolence,10041349,Disturbances in consciousness NEC,10013396,Neurological signs and symptoms NEC,10049372,Nervous system disorders,10029205,Nervous system disorders,10029205,MODERATE,N,DOSE NOT CHANGED,UNLIKELY RELATED,RECOVERED/RESOLVED,N,N,N,N,N,N,N,TREATMENT,2026-06-02,2026-06-14,776,788,
P261-402-USL261,AE,P261-402-USL261-USA_SITE01-0007,32,AE32,NASAL DISCOMFORT,Nasal discomfort,,Nasal discomfort,10028735,Nasal disorders NEC,10028749,Respiratory tract signs and symptoms,10038734,"Respiratory, thoracic and mediastinal disorders",10038738,"Respiratory, thoracic and mediastinal disorders",10038738,MODERATE,N,DOSE NOT CHANGED,NOT RELATED,RECOVERED/RESOLVED,N,N,N,N,N,N,N,TREATMENT,2026-09-15,2026-09-18,881,884,
P261-402-USL261,AE,P261-402-USL261-USA_SITE01-0007,33,AE33,SOMNOLENCE,Somnolence,,Somnolence,10041349,Disturbances in consciousness NEC,10013396,Neurological signs and symptoms NEC,10049372,Nervous system disorders,10029205,Nervous system disorders,10029205,SEVERE,Y,DOSE NOT CHANGED,NOT RELATED,RECOVERING/RESOLVING,N,N,N,Y,N,N,N,TREATMENT,2026-10-13,2026-10-13,909,909,
P261-402-USL261,AE,P261-402-USL261-USA_SITE02-0015,1,AE1,FATIGUE,Fatigue,,Fatigue,10016256,Asthenic conditions,10003550,General system disorders NEC,10060892,General disorders and administration site conditions,10018065,General disorders and administration site conditions,10018065,MODERATE,N,DOSE NOT CHANGED,NOT RELATED,RECOVERED/RESOLVED,N,N,N,N,N,N,N,TREATMENT,2024-03-02,2024-03-30,4,32,
P261-402-USL261,AE,P261-402-USL261-USA_SITE02-0015,2,AE2,DIZZINESS,Dizziness,,Dizziness,10013573,Dizziness and vertigo symptoms,10049370,Neurological signs and symptoms NEC,10049372,Nervous system disorders,10029205,Nervous system disorders,10029205,MODERATE,N,DOSE NOT CHANGED,NOT RELATED,RECOVERED/RESOLVED,N,N,N,N,N,N,N,TREATMENT,2024-03-07,2024-03-30,9,32,
P261-402-USL261,AE,P261-402-USL261-USA_SITE02-0015,3,AE3,DYSGEUSIA,Dysgeusia,,Dysgeusia,10013911,Neurological signs and symptoms NEC,10049372,Neurological signs and symptoms NEC,10049372,Nervous system disorders,10029205,Nervous system disorders,10029205,SEVERE,Y,DOSE NOT CHANGED,NOT RELATED,RECOVERED/RESOLVED,N,N,N,N,N,Y,Y,TREATMENT,2024-06-14,2024-06-26,108,120,
P261-402-USL261,AE,P261-402-USL261-USA_SITE02-0015,4,AE4,NAUSEA,Nausea,,Nausea,10028813,Nausea and vomiting symptoms,10028817,Gastrointestinal signs and symptoms,10017999,Gastrointestinal disorders,10017947,Gastrointestinal disorders,10017947,MODERATE,N,DOSE NOT CHANGED,NOT RELATED,RECOVERED/RESOLVED,N,N,N,N,N,N,N,TREATMENT,2024-06-16,2024-06-17,110,111,
P261-402-USL261,AE,P261-402-USL261-USA_SITE02-0015,5,AE5,SOMNOLENCE,Somnolence,,Somnolence,10041349,Disturbances in consciousness NEC,10013396,Neurological signs and symptoms NEC,10049372,Nervous system disorders,10029205,Nervous system disorders,10029205,MILD,N,DOSE NOT CHANGED,RELATED,RECOVERED/RESOLVED,N,N,N,N,N,N,N,TREATMENT,2024-06-25,2024-06-29,119,123,
P261-402-USL261,AE,P261-402-USL261-USA_SITE02-0015,6,AE6,DIZZINESS,Dizziness,,Dizziness,10013573,Dizziness and vertigo symptoms,10049370,Neurological signs and symptoms NEC,10049372,Nervous system disorders,10029205,Nervous system disorders,10029205,SEVERE,Y,DOSE NOT CHANGED,NOT RELATED,RECOVERED/RESOLVED,N,N,N,Y,N,N,Y,TREATMENT,2024-07-20,2024-07-20,144,144,
P261-402-USL261,AE,P261-402-USL261-USA_SITE02-0020,1,AE1,LACRIMATION INCREASED,Lacrimation increased,,Lacrimation increased,10023644,Ocular disorders NEC,10061519,Ocular disorders NEC,10061519,Eye disorders,10015919,Eye disorders,10015919,MODERATE,N,DOSE NOT CHANGED,POSSIBLY RELATED,RECOVERED/RESOLVED,N,N,N,N,N,N,Y,TREATMENT,2024-04-27,2024-05-01,15,19,
P261-402-USL261,AE,P261-402-USL261-USA_SITE02-0020,2,AE2,SOMNOLENCE,Somnolence,,Somnolence,10041349,Disturbances in consciousness NEC,10013396,Neurological signs and symptoms NEC,10049372,Nervous system disorders,10029205,Nervous system disorders,10029205,MILD,N,DOSE NOT CHANGED,NOT RELATED,RECOVERED/RESOLVED,N,N,N,N,N,N,N,TREATMENT,2024-05-22,2024-05-31,40,49,
P261-402-USL261,AE,P261-402-USL261-USA_SITE02-0020,3,AE3,CONVULSION,Convulsion,,Convulsion,10010904,Seizures and seizure disorders NEC,10039911,Seizures (incl subtypes),10039906,Nervous system disorders,10029205,Nervous system disorders,10029205,MILD,N,DOSE NOT CHANGED,RELATED,RECOVERED/RESOLVED,N,N,N,N,N,N,Y,TREATMENT,2024-05-27,2024-06-06,45,55,
P261-402-USL261,AE,P261-402-USL261-USA_SITE02-0020,4,AE4,DYSGEUSIA,Dysgeusia,,Dysgeusia,10013911,Neurological signs and symptoms NEC,10049372,Neurological signs and symptoms NEC,10049372,Nervous system disorders,10029205,Nervous system disorders,10029205,MILD,N,DOSE NOT CHANGED,NOT RELATED,RECOVERED/RESOLVED,N,N,N,N,N,N,Y,TREATMENT,2024-06-05,2024-06-08,54,57,
P261-402-USL261,AE,P261-402-USL261-USA_SITE02-0020,5,AE5,RHINORRHOEA,Rhinorrhoea,,Rhinorrhoea,10039101,Nasal disorders NEC,10028749,Respiratory tract signs and symptoms,10038734,"Respiratory, thoracic and mediastinal disorders",10038738,"Respiratory, thoracic and mediastinal disorders",10038738,MILD,N,DOSE NOT CHANGED,NOT RELATED,RECOVERING/RESOLVING,N,N,N,N,N,N,N,TREATMENT,2024-06-11,2024-06-13,60,62,
P261-402-USL261,AE,P261-402-USL261-USA_SITE03-0006,1,AE1,SOMNOLENCE,Somnolence,,Somnolence,10041349,Disturbances in consciousness NEC,10013396,Neurological signs and symptoms NEC,10049372,Nervous system disorders,10029205,Nervous system disorders,10029205,MODERATE,N,DOSE NOT CHANGED,UNLIKELY RELATED,RECOVERED/RESOLVED,N,N,N,N,N,N,N,TREATMENT,2024-06-27,2024-07-24,73,100,
P261-402-USL261,AE,P261-402-USL261-USA_SITE03-0006,2,AE2,NASAL DISCOMFORT,Nasal discomfort,,Nasal discomfort,10028735,Nasal disorders NEC,10028749,Respiratory tract signs and symptoms,10038734,"Respiratory, thoracic and mediastinal disorders",10038738,"Respiratory, thoracic and mediastinal disorders",10038738,MILD,N,DOSE NOT CHANGED,NOT RELATED,RECOVERED/RESOLVED,N,N,N,N,N,N,Y,TREATMENT,2024-11-28,2024-12-05,227,234,
P261-402-USL261,AE,P261-402-USL261-USA_SITE03-0006,3,AE3,RHINORRHOEA,Rhinorrhoea,,Rhinorrhoea,10039101,Nasal disorders NEC,10028749,Respiratory tract signs and symptoms,10038734,"Respiratory, thoracic and mediastinal disorders",10038738,"Respiratory, thoracic and mediastinal disorders",10038738,MODERATE,N,DOSE NOT CHANGED,NOT RELATED,RECOVERED/RESOLVED,N,N,N,N,N,N,N,TREATMENT,2025-02-27,2025-03-17,318,336,
P261-402-USL261,AE,P261-402-USL261-USA_SITE03-0006,4,AE4,DIZZINESS,Dizziness,,Dizziness,10013573,Dizziness and vertigo symptoms,10049370,Neurological signs and symptoms NEC,10049372,Nervous system disorders,10029205,Nervous system disorders,10029205,MODERATE,N,DOSE NOT CHANGED,NOT RELATED,RECOVERED/RESOLVED,N,N,N,N,N,N,Y,TREATMENT,2025-06-16,2025-07-10,427,451,
P261-402-USL261,AE,P261-402-USL261-USA_SITE03-0006,5,AE5,SOMNOLENCE,Somnolence,,Somnolence,10041349,Disturbances in consciousness NEC,10013396,Neurological signs and symptoms NEC,10049372,Nervous system disorders,10029205,Nervous system disorders,10029205,MILD,N,DOSE NOT CHANGED,NOT RELATED,RECOVERED/RESOLVED,N,N,N,N,N,N,N,TREATMENT,2025-06-19,2025-06-27,430,438,
P261-402-USL261,AE,P261-402-USL261-USA_SITE03-0006,6,AE6,NASAL DISCOMFORT,Nasal discomfort,,Nasal discomfort,10028735,Nasal disorders NEC,10028749,Respiratory tract signs and symptoms,10038734,"Respiratory, thoracic and mediastinal disorders",10038738,"Respiratory, thoracic and mediastinal disorders",10038738,MODERATE,N,DOSE NOT CHANGED,NOT RELATED,RECOVERING/RESOLVING,N,N,N,N,N,N,Y,TREATMENT,2025-09-29,2025-10-03,532,536,
P261-402-USL261,AE,P261-402-USL261-USA_SITE03-0006,7,AE7,SOMNOLENCE,Somnolence,,Somnolence,10041349,Disturbances in consciousness NEC,10013396,Neurological signs and symptoms NEC,10049372,Nervous system disorders,10029205,Nervous system disorders,10029205,MILD,N,DOSE NOT CHANGED,NOT RELATED,RECOVERING/RESOLVING,N,N,N,N,N,N,N,TREATMENT,2025-10-16,2025-10-29,549,562,
P261-402-USL261,AE,P261-402-USL261-USA_SITE03-0006,8,AE8,SOMNOLENCE,Somnolence,,Somnolence,10041349,Disturbances in consciousness NEC,10013396,Neurological signs and symptoms NEC,10049372,Nervous system disorders,10029205,Nervous system disorders,10029205,SEVERE,Y,DOSE NOT CHANGED,NOT RELATED,RECOVERED/RESOLVED,N,N,N,N,N,Y,N,TREATMENT,2025-12-06,2025-12-25,600,619,
P261-402-USL261,AE,P261-402-USL261-USA_SITE03-0006,9,AE9,RHINORRHOEA,Rhinorrhoea,,Rhinorrhoea,10039101,Nasal disorders NEC,10028749,Respiratory tract signs and symptoms,10038734,"Respiratory, thoracic and mediastinal disorders",10038738,"Respiratory, thoracic and mediastinal disorders",10038738,MILD,N,DOSE NOT CHANGED,UNLIKELY RELATED,RECOVERED/RESOLVED,N,N,N,N,N,N,Y,TREATMENT,2025-12-23,2026-01-04,617,629,
P261-402-USL261,AE,P261-402-USL261-USA_SITE03-0006,10,AE10,RHINORRHOEA,Rhinorrhoea,,Rhinorrhoea,10039101,Nasal disorders NEC,10028749,Respiratory tract signs and symptoms,10038734,"Respiratory, thoracic and mediastinal disorders",10038738,"Respiratory, thoracic and mediastinal disorders",10038738,MODERATE,N,DOSE NOT CHANGED,UNLIKELY RELATED,RECOVERED/RESOLVED,N,N,N,N,N,N,N,TREATMENT,2026-01-24,2026-01-28,649,653,
P261-402-USL261,AE,P261-402-USL261-USA_SITE03-0006,11,AE11,LACRIMATION INCREASED,Lacrimation increased,,Lacrimation increased,10023644,Ocular disorders NEC,10061519,Ocular disorders NEC,10061519,Eye disorders,10015919,Eye disorders,10015919,MODERATE,N,DOSE NOT CHANGED,NOT RELATED,RECOVERED/RESOLVED,N,N,N,N,N,N,Y,TREATMENT,2026-02-22,2026-03-14,678,698,
P261-402-USL261,AE,P261-402-USL261-USA_SITE03-0006,12,AE12,SOMNOLENCE,Somnolence,,Somnolence,10041349,Disturbances in consciousness NEC,10013396,Neurological signs and symptoms NEC,10049372,Nervous system disorders,10029205,Nervous system disorders,10029205,MODERATE,N,DOSE NOT CHANGED,NOT RELATED,RECOVERED/RESOLVED,N,N,N,N,N,N,N,TREATMENT,2026-06-27,2026-07-15,803,821,
P261-402-USL261,AE,P261-402-USL261-USA_SITE03-0006,13,AE13,SOMNOLENCE,Somnolence,,Somnolence,10041349,Disturbances in consciousness NEC,10013396,Neurological signs and symptoms NEC,10049372,Nervous system disorders,10029205,Nervous system disorders,10029205,MODERATE,N,DOSE NOT CHANGED,NOT RELATED,RECOVERED/RESOLVED,N,N,N,N,N,N,N,TREATMENT,2026-08-15,2026-08-16,852,853,
P261-402-USL261,AE,P261-402-USL261-USA_SITE03-0006,14,AE14,DIZZINESS,Dizziness,,Dizziness,10013573,Dizziness and vertigo symptoms,10049370,Neurological signs and symptoms NEC,10049372,Nervous system disorders,10029205,Nervous system disorders,10029205,MILD,N,DOSE NOT CHANGED,UNLIKELY RELATED,RECOVERING/RESOLVING,N,N,N,N,N,N,N,TREATMENT,2026-09-02,2026-09-15,870,883,
P261-402-USL261,AE,P261-402-USL261-USA_SITE03-0006,15,AE15,DYSGEUSIA,Dysgeusia,,Dysgeusia,10013911,Neurological signs and symptoms NEC,10049372,Neurological signs and symptoms NEC,10049372,Nervous system disorders,10029205,Nervous system disorders,10029205,MODERATE,N,DOSE NOT CHANGED,UNLIKELY RELATED,RECOVERED/RESOLVED,N,N,N,N,N,N,N,TREATMENT,2026-09-02,2026-09-19,870,887,
P261-402-USL261,AE,P261-402-USL261-USA_SITE03-0006,16,AE16,NAUSEA,Nausea,,Nausea,10028813,Nausea and vomiting symptoms,10028817,Gastrointestinal signs and symptoms,10017999,Gastrointestinal disorders,10017947,Gastrointestinal disorders,10017947,MILD,N,DOSE NOT CHANGED,NOT RELATED,RECOVERED/RESOLVED,N,N,N,N,N,N,Y,TREATMENT,2026-09-23,2026-09-25,891,893,
P261-402-USL261,AE,P261-402-USL261-USA_SITE03-0006,17,AE17,RHINORRHOEA,Rhinorrhoea,,Rhinorrhoea,10039101,Nasal disorders NEC,10028749,Respiratory tract signs and symptoms,10038734,"Respiratory, thoracic and mediastinal disorders",10038738,"Respiratory, thoracic and mediastinal disorders",10038738,MILD,N,DOSE NOT CHANGED,NOT RELATED,NOT RECOVERED/NOT RESOLVED,N,N,N,N,N,N,N,TREATMENT,2027-01-15,,1005,,DURING/AFTER
P261-402-USL261,AE,P261-402-USL261-USA_SITE03-0006,18,AE18,RHINORRHOEA,Rhinorrhoea,,Rhinorrhoea,10039101,Nasal disorders NEC,10028749,Respiratory tract signs and symptoms,10038734,"Respiratory, thoracic and mediastinal disorders",10038738,"Respiratory, thoracic and mediastinal disorders",10038738,MODERATE,N,DOSE NOT CHANGED,UNLIKELY RELATED,RECOVERED/RESOLVED,N,N,N,N,N,N,Y,TREATMENT,2027-01-22,2027-02-05,1012,1026,
P261-402-USL261,AE,P261-402-USL261-USA_SITE03-0006,19,AE19,NASAL DISCOMFORT,Nasal discomfort,,Nasal discomfort,10028735,Nasal disorders NEC,10028749,Respiratory tract signs and symptoms,10038734,"Respiratory, thoracic and mediastinal disorders",10038738,"Respiratory, thoracic and mediastinal disorders",10038738,MILD,N,DOSE NOT CHANGED,NOT RELATED,RECOVERED/RESOLVED,N,N,N,N,N,N,N,TREATMENT,2027-03-26,2027-03-28,1075,1077,
P261-402-USL261,AE,P261-402-USL261-USA_SITE03-0006,20,AE20,LACRIMATION INCREASED,Lacrimation increased,,Lacrimation increased,10023644,Ocular disorders NEC,10061519,Ocular disorders NEC,10061519,Eye disorders,10015919,Eye disorders,10015919,MILD,N,DOSE NOT CHANGED,NOT RELATED,RECOVERED/RESOLVED,N,N,N,N,N,N,N,TREATMENT,2027-09-13,2027-09-17,1246,1250,
P261-402-USL261,AE,P261-402-USL261-USA_SITE03-0006,21,AE21,NASAL DISCOMFORT,Nasal discomfort,,Nasal discomfort,10028735,Nasal disorders NEC,10028749,Respiratory tract signs and symptoms,10038734,"Respiratory, thoracic and mediastinal disorders",10038738,"Respiratory, thoracic and mediastinal disorders",10038738,MILD,N,DOSE NOT CHANGED,NOT RELATED,RECOVERED/RESOLVED,N,N,N,N,N,N,Y,TREATMENT,2027-10-03,2027-10-11,1266,1274,
P261-402-USL261,AE,P261-402-USL261-USA_SITE03-0006,22,AE22,HEADACHE,Headache,,Headache,10019211,Headaches NEC,10019233,Headaches,10019231,Nervous system disorders,10029205,Nervous system disorders,10029205,MODERATE,N,DOSE NOT CHANGED,NOT RELATED,NOT RECOVERED/NOT RESOLVED,N,N,N,N,N,N,Y,TREATMENT,2027-12-10,,1334,,DURING/AFTER
P261-402-USL261,AE,P261-402-USL261-USA_SITE03-0006,23,AE23,NASAL DISCOMFORT,Nasal discomfort,,Nasal discomfort,10028735,Nasal disorders NEC,10028749,Respiratory tract signs and symptoms,10038734,"Respiratory, thoracic and mediastinal disorders",10038738,"Respiratory, thoracic and mediastinal disorders",10038738,MODERATE,N,DOSE NOT CHANGED,NOT RELATED,RECOVERING/RESOLVING,N,N,N,N,N,N,N,TREATMENT,2028-01-01,2028-01-07,1356,1362,
P261-402-USL261,AE,P261-402-USL261-USA_SITE03-0018,1,AE1,CONVULSION,Convulsion,,Convulsion,10010904,Seizures and seizure disorders NEC,10039911,Seizures (incl subtypes),10039906,Nervous system disorders,10029205,Nervous system disorders,10029205,SEVERE,Y,DOSE NOT CHANGED,NOT RELATED,RECOVERED/RESOLVED,N,N,N,Y,N,N,Y,TREATMENT,2024-05-04,2024-05-15,1,12,
P261-402-USL261,AE,P261-402-USL261-USA_SITE05-0011,1,AE1,LACRIMATION INCREASED,Lacrimation increased,,Lacrimation increased,10023644,Ocular disorders NEC,10061519,Ocular disorders NEC,10061519,Eye disorders,10015919,Eye disorders,10015919,MODERATE,N,DOSE REDUCED,RELATED,RECOVERED/RESOLVED,N,N,N,N,N,N,Y,TREATMENT,2024-04-11,2024-04-14,5,8,
P261-402-USL261,AE,P261-402-USL261-USA_SITE05-0011,2,AE2,LACRIMATION INCREASED,Lacrimation increased,,Lacrimation increased,10023644,Ocular disorders NEC,10061519,Ocular disorders NEC,10061519,Eye disorders,10015919,Eye disorders,10015919,MODERATE,N,DOSE NOT CHANGED,POSSIBLY RELATED,RECOVERED/RESOLVED,N,N,N,N,N,N,Y,TREATMENT,2024-04-20,2024-04-24,14,18,
P261-402-USL261,AE,P261-402-USL261-USA_SITE05-0011,3,AE3,CONVULSION,Convulsion,,Convulsion,10010904,Seizures and seizure disorders NEC,10039911,Seizures (incl subtypes),10039906,Nervous system disorders,10029205,Nervous system disorders,10029205,SEVERE,Y,DRUG WITHDRAWN,POSSIBLY RELATED,NOT RECOVERED/NOT RESOLVED,N,N,N,Y,N,N,Y,TREATMENT,2024-04-28,,22,,DURING/AFTER
P261-402-USL261,AE,P261-402-USL261-USA_SITE06-0005,1,AE1,CONVULSION,Convulsion,,Convulsion,10010904,Seizures and seizure disorders NEC,10039911,Seizures (incl subtypes),10039906,Nervous system disorders,10029205,Nervous system disorders,10029205,SEVERE,Y,DOSE NOT CHANGED,NOT RELATED,RECOVERED/RESOLVED,N,N,N,Y,N,N,Y,TREATMENT,2024-04-08,2024-05-12,2,36,
P261-402-USL261,AE,P261-402-USL261-USA_SITE06-0005,2,AE2,LACRIMATION INCREASED,Lacrimation increased,,Lacrimation increased,10023644,Ocular disorders NEC,10061519,Ocular disorders NEC,10061519,Eye disorders,10015919,Eye disorders,10015919,MILD,N,DOSE NOT CHANGED,NOT RELATED,RECOVERED/RESOLVED,N,N,N,N,N,N,N,TREATMENT,2024-04-09,2024-04-20,3,14,
P261-402-USL261,AE,P261-402-USL261-USA_SITE06-0005,3,AE3,HEADACHE,Headache,,Headache,10019211,Headaches NEC,10019233,Headaches,10019231,Nervous system disorders,10029205,Nervous system disorders,10029205,SEVERE,Y,DOSE NOT CHANGED,NOT RELATED,RECOVERED/RESOLVED,N,N,N,Y,N,N,Y,TREATMENT,2024-04-29,2024-05-09,23,33,
P261-402-USL261,AE,P261-402-USL261-USA_SITE06-0005,4,AE4,LACRIMATION INCREASED,Lacrimation increased,,Lacrimation increased,10023644,Ocular disorders NEC,10061519,Ocular disorders NEC,10061519,Eye disorders,10015919,Eye disorders,10015919,MILD,N,DOSE NOT CHANGED,NOT RELATED,RECOVERED/RESOLVED,N,N,N,N,N,N,N,TREATMENT,2024-04-29,2024-05-09,23,33,
P261-402-USL261,AE,P261-402-USL261-USA_SITE06-0005,5,AE5,NAUSEA,Nausea,,Nausea,10028813,Nausea and vomiting symptoms,10028817,Gastrointestinal signs and symptoms,10017999,Gastrointestinal disorders,10017947,Gastrointestinal disorders,10017947,MILD,N,DOSE NOT CHANGED,NOT RELATED,RECOVERED/RESOLVED,N,N,N,N,N,N,Y,TREATMENT,2024-05-03,2024-05-05,27,29,
P261-402-USL261,AE,P261-402-USL261-USA_SITE06-0005,6,AE6,HEADACHE,Headache,,Headache,10019211,Headaches NEC,10019233,Headaches,10019231,Nervous system disorders,10029205,Nervous system disorders,10029205,MILD,N,DOSE NOT CHANGED,POSSIBLY RELATED,RECOVERED/RESOLVED,N,N,N,N,N,N,Y,TREATMENT,2024-06-23,2024-06-24,78,79,
P261-402-USL261,AE,P261-402-USL261-USA_SITE06-0005,7,AE7,NASAL DISCOMFORT,Nasal discomfort,,Nasal discomfort,10028735,Nasal disorders NEC,10028749,Respiratory tract signs and symptoms,10038734,"Respiratory, thoracic and mediastinal disorders",10038738,"Respiratory, thoracic and mediastinal disorders",10038738,SEVERE,Y,DOSE NOT CHANGED,UNLIKELY RELATED,RECOVERED/RESOLVED,N,N,N,Y,N,N,Y,TREATMENT,2024-07-27,2024-09-12,112,159,
P261-402-USL261,AE,P261-402-USL261-USA_SITE06-0005,8,AE8,HEADACHE,Headache,,Headache,10019211,Headaches NEC,10019233,Headaches,10019231,Nervous system disorders,10029205,Nervous system disorders,10029205,SEVERE,Y,DOSE NOT CHANGED,NOT RELATED,RECOVERED/RESOLVED,N,N,N,N,N,Y,Y,TREATMENT,2024-08-18,2024-09-03,134,150,
P261-402-USL261,AE,P261-402-USL261-USA_SITE06-0005,9,AE9,SOMNOLENCE,Somnolence,,Somnolence,10041349,Disturbances in consciousness NEC,10013396,Neurological signs and symptoms NEC,10049372,Nervous system disorders,10029205,Nervous system disorders,10029205,MILD,N,DOSE NOT CHANGED,POSSIBLY RELATED,RECOVERING/RESOLVING,N,N,N,N,N,N,N,TREATMENT,2024-10-09,2024-10-10,186,187,
P261-402-USL261,AE,P261-402-USL261-USA_SITE06-0005,10,AE10,SOMNOLENCE,Somnolence,,Somnolence,10041349,Disturbances in consciousness NEC,10013396,Neurological signs and symptoms NEC,10049372,Nervous system disorders,10029205,Nervous system disorders,10029205,MODERATE,N,DOSE NOT CHANGED,POSSIBLY RELATED,RECOVERED/RESOLVED,N,N,N,N,N,N,N,TREATMENT,2024-10-16,2024-10-29,193,206,
P261-402-USL261,AE,P261-402-USL261-USA_SITE06-0005,11,AE11,RHINORRHOEA,Rhinorrhoea,,Rhinorrhoea,10039101,Nasal disorders NEC,10028749,Respiratory tract signs and symptoms,10038734,"Respiratory, thoracic and mediastinal disorders",10038738,"Respiratory, thoracic and mediastinal disorders",10038738,MODERATE,N,DOSE NOT CHANGED,NOT RELATED,RECOVERED/RESOLVED,N,N,N,N,N,N,Y,TREATMENT,2024-10-20,2024-10-29,197,206,
P261-402-USL261,AE,P261-402-USL261-USA_SITE06-0005,12,AE12,DYSGEUSIA,Dysgeusia,,Dysgeusia,10013911,Neurological signs and symptoms NEC,10049372,Neurological signs and symptoms NEC,10049372,Nervous system disorders,10029205,Nervous system disorders,10029205,MODERATE,N,DOSE NOT CHANGED,NOT RELATED,RECOVERED/RESOLVED,N,N,N,N,N,N,N,TREATMENT,2024-10-31,2024-11-02,208,210,
P261-402-USL261,AE,P261-402-USL261-USA_SITE06-0005,13,AE13,HEADACHE,Headache,,Headache,10019211,Headaches NEC,10019233,Headaches,10019231,Nervous system disorders,10029205,Nervous system disorders,10029205,SEVERE,Y,DOSE NOT CHANGED,NOT RELATED,RECOVERED/RESOLVED,N,N,N,Y,N,N,Y,TREATMENT,2024-12-04,2024-12-08,242,246,
P261-402-USL261,AE,P261-402-USL261-USA_SITE06-0005,14,AE14,NAUSEA,Nausea,,Nausea,10028813,Nausea and vomiting symptoms,10028817,Gastrointestinal signs and symptoms,10017999,Gastrointestinal disorders,10017947,Gastrointestinal disorders,10017947,MILD,N,DOSE NOT CHANGED,POSSIBLY RELATED,RECOVERED/RESOLVED,N,N,N,N,N,N,N,TREATMENT,2024-12-23,2024-12-26,261,264,
P261-402-USL261,AE,P261-402-USL261-USA_SITE06-0005,15,AE15,RHINORRHOEA,Rhinorrhoea,,Rhinorrhoea,10039101,Nasal disorders NEC,10028749,Respiratory tract signs and symptoms,10038734,"Respiratory, thoracic and mediastinal disorders",10038738,"Respiratory, thoracic and mediastinal disorders",10038738,SEVERE,Y,DOSE NOT CHANGED,NOT RELATED,RECOVERED/RESOLVED,N,N,N,Y,N,N,Y,TREATMENT,2024-12-31,2025-02-17,269,317,
P261-402-USL261,AE,P261-402-USL261-USA_SITE06-0005,16,AE16,HEADACHE,Headache,,Headache,10019211,Headaches NEC,10019233,Headaches,10019231,Nervous system disorders,10029205,Nervous system disorders,10029205,MILD,N,DOSE NOT CHANGED,UNLIKELY RELATED,NOT RECOVERED/NOT RESOLVED,N,N,N,N,N,N,Y,TREATMENT,2025-01-20,,289,,DURING/AFTER
P261-402-USL261,AE,P261-402-USL261-USA_SITE06-0005,17,AE17,FATIGUE,Fatigue,,Fatigue,10016256,Asthenic conditions,10003550,General system disorders NEC,10060892,General disorders and administration site conditions,10018065,General disorders and administration site conditions,10018065,MODERATE,N,DOSE NOT CHANGED,NOT RELATED,RECOVERING/RESOLVING,N,N,N,N,N,N,N,TREATMENT,2025-01-29,2025-03-03,298,331,
P261-402-USL261,AE,P261-402-USL261-USA_SITE06-0005,18,AE18,LACRIMATION INCREASED,Lacrimation increased,,Lacrimation increased,10023644,Ocular disorders NEC,10061519,Ocular disorders NEC,10061519,Eye disorders,10015919,Eye disorders,10015919,SEVERE,Y,DOSE NOT CHANGED,NOT RELATED,RECOVERED/RESOLVED,N,N,N,Y,N,N,N,TREATMENT,2025-02-01,2025-02-02,301,302,
P261-402-USL261,AE,P261-402-USL261-USA_SITE06-0005,19,AE19,CONVULSION,Convulsion,,Convulsion,10010904,Seizures and seizure disorders NEC,10039911,Seizures (incl subtypes),10039906,Nervous system disorders,10029205,Nervous system disorders,10029205,MILD,N,DOSE NOT CHANGED,NOT RELATED,RECOVERED/RESOLVED,N,N,N,N,N,N,N,TREATMENT,2025-02-04,2025-02-18,304,318,
P261-402-USL261,AE,P261-402-USL261-USA_SITE06-0005,20,AE20,HEADACHE,Headache,,Headache,10019211,Headaches NEC,10019233,Headaches,10019231,Nervous system disorders,10029205,Nervous system disorders,10029205,SEVERE,Y,DOSE NOT CHANGED,NOT RELATED,RECOVERING/RESOLVING,N,N,N,N,N,Y,Y,TREATMENT,2025-03-06,2025-03-06,334,334,
P261-402-USL261,AE,P261-402-USL261-USA_SITE06-0017,1,AE1,FATIGUE,Fatigue,,Fatigue,10016256,Asthenic conditions,10003550,General system disorders NEC,10060892,General disorders and administration site conditions,10018065,General disorders and administration site conditions,10018065,MILD,N,DOSE NOT CHANGED,UNLIKELY RELATED,RECOVERED/RESOLVED,N,N,N,N,N,N,N,TREATMENT,2024-03-06,2024-03-21,11,26,
P261-402-USL261,AE,P261-402-USL261-USA_SITE06-0017,2,AE2,SOMNOLENCE,Somnolence,,Somnolence,10041349,Disturbances in consciousness NEC,10013396,Neurological signs and symptoms NEC,10049372,Nervous system disorders,10029205,Nervous system disorders,10029205,MODERATE,N,DOSE NOT CHANGED,NOT RELATED,RECOVERED/RESOLVED,N,N,N,N,N,N,N,TREATMENT,2024-04-15,2024-04-22,51,58,
P261-402-USL261,AE,P261-402-USL261-USA_SITE06-0017,3,AE3,SOMNOLENCE,Somnolence,,Somnolence,10041349,Disturbances in consciousness NEC,10013396,Neurological signs and symptoms NEC,10049372,Nervous system disorders,10029205,Nervous system disorders,10029205,MODERATE,N,DOSE REDUCED,POSSIBLY RELATED,RECOVERED/RESOLVED,N,N,N,N,N,N,N,TREATMENT,2024-05-14,2024-05-24,80,90,
P261-402-USL261,AE,P261-402-USL261-USA_SITE06-0017,4,AE4,RHINORRHOEA,Rhinorrhoea,,Rhinorrhoea,10039101,Nasal disorders NEC,10028749,Respiratory tract signs and symptoms,10038734,"Respiratory, thoracic and mediastinal disorders",10038738,"Respiratory, thoracic and mediastinal disorders",10038738,MILD,N,DOSE NOT CHANGED,UNLIKELY RELATED,NOT RECOVERED/NOT RESOLVED,N,N,N,N,N,N,N,TREATMENT,2024-05-21,,87,,DURING/AFTER
P261-402-USL261,AE,P261-402-USL261-USA_SITE06-0017,5,AE5,FATIGUE,Fatigue,,Fatigue,10016256,Asthenic conditions,10003550,General system disorders NEC,10060892,General disorders and administration site conditions,10018065,General disorders and administration site conditions,10018065,SEVERE,Y,DOSE NOT CHANGED,NOT RELATED,RECOVERED/RESOLVED,N,N,N,Y,N,N,N,TREATMENT,2024-06-20,2024-07-05,117,132,
P261-402-USL261,AE,P261-402-USL261-USA_SITE06-0017,6,AE6,RHINORRHOEA,Rhinorrhoea,,Rhinorrhoea,10039101,Nasal disorders NEC,10028749,Respiratory tract signs and symptoms,10038734,"Respiratory, thoracic and mediastinal disorders",10038738,"Respiratory, thoracic and mediastinal disorders",10038738,MODERATE,N,DOSE NOT CHANGED,NOT RELATED,RECOVERED/RESOLVED,N,N,N,N,N,N,N,TREATMENT,2024-08-25,2024-09-19,183,208,
P261-402-USL261,AE,P261-402-USL261-USA_SITE06-0017,7,AE7,NAUSEA,Nausea,,Nausea,10028813,Nausea and vomiting symptoms,10028817,Gastrointestinal signs and symptoms,10017999,Gastrointestinal disorders,10017947,Gastrointestinal disorders,10017947,MILD,N,DOSE NOT CHANGED,UNLIKELY RELATED,NOT RECOVERED/NOT RESOLVED,N,N,N,N,N,N,N,TREATMENT,2024-09-06,,195,,DURING/AFTER
P261-402-USL261,AE,P261-402-USL261-USA_SITE06-0017,8,AE8,NASAL DISCOMFORT,Nasal discomfort,,Nasal discomfort,10028735,Nasal disorders NEC,10028749,Respiratory tract signs and symptoms,10038734,"Respiratory, thoracic and mediastinal disorders",10038738,"Respiratory, thoracic and mediastinal disorders",10038738,MILD,N,DOSE NOT CHANGED,PROBABLY RELATED,RECOVERED/RESOLVED,N,N,N,N,N,N,N,TREATMENT,2024-09-30,2024-10-13,219,232,
P261-402-USL261,AE,P261-402-USL261-USA_SITE06-0017,9,AE9,SOMNOLENCE,Somnolence,,Somnolence,10041349,Disturbances in consciousness NEC,10013396,Neurological signs and symptoms NEC,10049372,Nervous system disorders,10029205,Nervous system disorders,10029205,MILD,N,DOSE NOT CHANGED,NOT RELATED,RECOVERING/RESOLVING,N,N,N,N,N,N,N,TREATMENT,2024-10-09,2024-10-20,228,239,
P261-402-USL261,AE,P261-402-USL261-USA_SITE09-0008,1,AE1,HEADACHE,Headache,,Headache,10019211,Headaches NEC,10019233,Headaches,10019231,Nervous system disorders,10029205,Nervous system disorders,10029205,MILD,N,DOSE NOT CHANGED,NOT RELATED,RECOVERED/RESOLVED,N,N,N,N,N,N,Y,TREATMENT,2024-07-09,2024-07-10,100,101,
P261-402-USL261,AE,P261-402-USL261-USA_SITE09-0008,2,AE2,LACRIMATION INCREASED,Lacrimation increased,,Lacrimation increased,10023644,Ocular disorders NEC,10061519,Ocular disorders NEC,10061519,Eye disorders,10015919,Eye disorders,10015919,MODERATE,N,DOSE NOT CHANGED,UNLIKELY RELATED,RECOVERED/RESOLVED,N,N,N,N,N,N,N,TREATMENT,2024-08-14,2024-09-03,136,156,
P261-402-USL261,AE,P261-402-USL261-USA_SITE09-0008,3,AE3,DYSGEUSIA,Dysgeusia,,Dysgeusia,10013911,Neurological signs and symptoms NEC,10049372,Neurological signs and symptoms NEC,10049372,Nervous system disorders,10029205,Nervous system disorders,10029205,MILD,N,DOSE NOT CHANGED,NOT RELATED,RECOVERED/RESOLVED,N,N,N,N,N,N,Y,TREATMENT,2024-11-02,2024-11-08,216,222,
P261-402-USL261,AE,P261-402-USL261-USA_SITE09-0008,4,AE4,HEADACHE,Headache,,Headache,10019211,Headaches NEC,10019233,Headaches,10019231,Nervous system disorders,10029205,Nervous system disorders,10029205,MILD,N,DOSE NOT CHANGED,NOT RELATED,RECOVERED/RESOLVED,N,N,N,N,N,N,N,TREATMENT,2024-11-11,2024-11-13,225,227,
P261-402-USL261,AE,P261-402-USL261-USA_SITE09-0008,5,AE5,DIZZINESS,Dizziness,,Dizziness,10013573,Dizziness and vertigo symptoms,10049370,Neurological signs and symptoms NEC,10049372,Nervous system disorders,10029205,Nervous system disorders,10029205,MILD,N,DOSE NOT CHANGED,NOT RELATED,RECOVERING/RESOLVING,N,N,N,N,N,N,Y,TREATMENT,2024-12-15,2024-12-18,259,262,
P261-402-USL261,AE,P261-402-USL261-USA_SITE09-0008,6,AE6,HEADACHE,Headache,,Headache,10019211,Headaches NEC,10019233,Headaches,10019231,Nervous system disorders,10029205,Nervous system disorders,10029205,SEVERE,Y,DOSE NOT CHANGED,NOT RELATED,NOT RECOVERED/NOT RESOLVED,N,N,N,Y,N,N,Y,TREATMENT,2025-01-18,,293,,DURING/AFTER
P261-402-USL261,AE,P261-402-USL261-USA_SITE09-0008,7,AE7,HEADACHE,Headache,,Headache,10019211,Headaches NEC,10019233,Headaches,10019231,Nervous system disorders,10029205,Nervous system disorders,10029205,MODERATE,N,DOSE NOT CHANGED,PROBABLY RELATED,RECOVERED/RESOLVED,N,N,N,N,N,N,Y,TREATMENT,2025-02-13,2025-02-15,319,321,
P261-402-USL261,AE,P261-402-USL261-USA_SITE09-0008,8,AE8,HEADACHE,Headache,,Headache,10019211,Headaches NEC,10019233,Headaches,10019231,Nervous system disorders,10029205,Nervous system disorders,10029205,MILD,N,DOSE NOT CHANGED,NOT RELATED,RECOVERED/RESOLVED,N,N,N,N,N,N,Y,TREATMENT,2025-05-13,2025-05-14,408,409,
P261-402-USL261,AE,P261-402-USL261-USA_SITE09-0008,9,AE9,HEADACHE,Headache,,Headache,10019211,Headaches NEC,10019233,Headaches,10019231,Nervous system disorders,10029205,Nervous system disorders,10029205,SEVERE,Y,DOSE NOT CHANGED,NOT RELATED,RECOVERED/RESOLVED,N,N,N,N,N,Y,Y,TREATMENT,2025-05-24,2025-06-08,419,434,
P261-402-USL261,AE,P261-402-USL261-USA_SITE09-0008,10,AE10,SOMNOLENCE,Somnolence,,Somnolence,10041349,Disturbances in consciousness NEC,10013396,Neurological signs and symptoms NEC,10049372,Nervous system disorders,10029205,Nervous system disorders,10029205,MODERATE,N,DOSE NOT CHANGED,NOT RELATED,RECOVERED/RESOLVED,N,N,N,N,N,N,N,TREATMENT,2025-09-16,2025-10-08,534,556,
P261-402-USL261,AE,P261-402-USL261-USA_SITE09-0008,11,AE11,HEADACHE,Headache,,Headache,10019211,Headaches NEC,10019233,Headaches,10019231,Nervous system disorders,10029205,Nervous system disorders,10029205,MILD,N,DOSE NOT CHANGED,NOT RELATED,RECOVERED/RESOLVED,N,N,N,N,N,N,N,TREATMENT,2025-10-16,2025-10-19,564,567,
P261-402-USL261,AE,P261-402-USL261-USA_SITE09-0008,12,AE12,FATIGUE,Fatigue,,Fatigue,10016256,Asthenic conditions,10003550,General system disorders NEC,10060892,General disorders and administration site conditions,10018065,General disorders and administration site conditions,10018065,MILD,N,DOSE NOT CHANGED,NOT RELATED,RECOVERED/RESOLVED,N,N,N,N,N,N,N,TREATMENT,2025-10-22,2025-10-27,570,575,
P261-402-USL261,AE,P261-402-USL261-USA_SITE09-0008,13,AE13,SOMNOLENCE,Somnolence,,Somnolence,10041349,Disturbances in consciousness NEC,10013396,Neurological signs and symptoms NEC,10049372,Nervous system disorders,10029205,Nervous system disorders,10029205,MILD,N,DOSE NOT CHANGED,NOT RELATED,RECOVERED/RESOLVED,N,N,N,N,N,N,N,TREATMENT,2025-12-20,2025-12-24,629,633,
P261-402-USL261,AE,P261-402-USL261-USA_SITE09-0008,14,AE14,DYSGEUSIA,Dysgeusia,,Dysgeusia,10013911,Neurological signs and symptoms NEC,10049372,Neurological signs and symptoms NEC,10049372,Nervous system disorders,10029205,Nervous system disorders,10029205,SEVERE,Y,DOSE NOT CHANGED,NOT RELATED,RECOVERED/RESOLVED,N,N,N,N,N,Y,N,TREATMENT,2026-01-12,2026-03-05,652,704,
P261-402-USL261,AE,P261-402-USL261-USA_SITE09-0008,15,AE15,LACRIMATION INCREASED,Lacrimation increased,,Lacrimation increased,10023644,Ocular disorders NEC,10061519,Ocular disorders NEC,10061519,Eye disorders,10015919,Eye disorders,10015919,SEVERE,Y,DOSE NOT CHANGED,NOT RELATED,RECOVERED/RESOLVED,N,N,N,N,N,Y,Y,TREATMENT,2026-06-11,2026-07-18,802,839,
P261-402-USL261,AE,P261-402-USL261-USA_SITE09-0008,16,AE16,DIZZINESS,Dizziness,,Dizziness,10013573,Dizziness and vertigo symptoms,10049370,Neurological signs and symptoms NEC,10049372,Nervous system disorders,10029205,Nervous system disorders,10029205,MODERATE,N,DOSE NOT CHANGED,UNLIKELY RELATED,RECOVERED/RESOLVED WITH SEQUELAE,N,N,N,N,N,N,N,TREATMENT,2026-07-02,2026-07-03,823,824,
P261-402-USL261,AE,P261-402-USL261-USA_SITE09-0008,17,AE17,NASAL DISCOMFORT,Nasal discomfort,,Nasal discomfort,10028735,Nasal disorders NEC,10028749,Respiratory tract signs and symptoms,10038734,"Respiratory, thoracic and mediastinal disorders",10038738,"Respiratory, thoracic and mediastinal disorders",10038738,SEVERE,Y,DOSE NOT CHANGED,UNLIKELY RELATED,RECOVERED/RESOLVED,N,N,N,Y,N,N,Y,TREATMENT,2026-07-24,2026-08-28,845,880,
P261-402-USL261,AE,P261-402-USL261-USA_SITE09-0008,18,AE18,SOMNOLENCE,Somnolence,,Somnolence,10041349,Disturbances in consciousness NEC,10013396,Neurological signs and symptoms NEC,10049372,Nervous system disorders,10029205,Nervous system disorders,10029205,MODERATE,N,DOSE NOT CHANGED,NOT RELATED,RECOVERING/RESOLVING,N,N,N,N,N,N,N,TREATMENT,2026-08-30,2026-09-14,882,897,
P261-402-USL261,AE,P261-402-USL261-USA_SITE09-0008,19,AE19,LACRIMATION INCREASED,Lacrimation increased,,Lacrimation increased,10023644,Ocular disorders NEC,10061519,Ocular disorders NEC,10061519,Eye disorders,10015919,Eye disorders,10015919,MILD,N,DOSE NOT CHANGED,NOT RELATED,RECOVERED/RESOLVED,N,N,N,N,N,N,N,TREATMENT,2026-10-30,2026-11-08,943,952,
P261-402-USL261,AE,P261-402-USL261-USA_SITE09-0008,20,AE20,SOMNOLENCE,Somnolence,,Somnolence,10041349,Disturbances in consciousness NEC,10013396,Neurological signs and symptoms NEC,10049372,Nervous system disorders,10029205,Nervous system disorders,10029205,MILD,N,DOSE NOT CHANGED,POSSIBLY RELATED,RECOVERED/RESOLVED,N,N,N,N,N,N,N,TREATMENT,2026-11-13,2026-11-20,957,964,
P261-402-USL261,AE,P261-402-USL261-USA_SITE09-0008,21,AE21,HEADACHE,Headache,,Headache,10019211,Headaches NEC,10019233,Headaches,10019231,Nervous system disorders,10029205,Nervous system disorders,10029205,MODERATE,N,DOSE NOT CHANGED,NOT RELATED,RECOVERED/RESOLVED,N,N,N,N,N,N,Y,TREATMENT,2026-12-31,2027-01-01,1005,1006,
P261-402-USL261,AE,P261-402-USL261-USA_SITE09-0008,22,AE22,FATIGUE,Fatigue,,Fatigue,10016256,Asthenic conditions,10003550,General system disorders NEC,10060892,General disorders and administration site conditions,10018065,General disorders and administration site conditions,10018065,MILD,N,DOSE NOT CHANGED,NOT RELATED,RECOVERED/RESOLVED,N,N,N,N,N,N,N,TREATMENT,2027-01-02,2027-01-12,1007,1017,
P261-402-USL261,AE,P261-402-USL261-USA_SITE09-0008,23,AE23,NAUSEA,Nausea,,Nausea,10028813,Nausea and vomiting symptoms,10028817,Gastrointestinal signs and symptoms,10017999,Gastrointestinal disorders,10017947,Gastrointestinal disorders,10017947,MODERATE,N,DOSE NOT CHANGED,NOT RELATED,RECOVERED/RESOLVED,N,N,N,N,N,N,Y,TREATMENT,2027-02-08,2027-02-14,1044,1050,
P261-402-USL261,AE,P261-402-USL261-USA_SITE09-0008,24,AE24,LACRIMATION INCREASED,Lacrimation increased,,Lacrimation increased,10023644,Ocular disorders NEC,10061519,Ocular disorders NEC,10061519,Eye disorders,10015919,Eye disorders,10015919,MODERATE,N,DOSE NOT CHANGED,NOT RELATED,RECOVERED/RESOLVED,N,N,N,N,N,N,Y,TREATMENT,2027-03-19,2027-03-28,1083,1092,
P261-402-USL261,AE,P261-402-USL261-USA_SITE09-0008,25,AE25,FATIGUE,Fatigue,,Fatigue,10016256,Asthenic conditions,10003550,General system disorders NEC,10060892,General disorders and administration site conditions,10018065,General disorders and administration site conditions,10018065,MILD,N,DOSE NOT CHANGED,NOT RELATED,RECOVERING/RESOLVING,N,N,N,N,N,N,N,TREATMENT,2027-04-10,2027-04-13,1105,1108,
P261-402-USL261,AE,P261-402-USL261-USA_SITE09-0008,26,AE26,RHINORRHOEA,Rhinorrhoea,,Rhinorrhoea,10039101,Nasal disorders NEC,10028749,Respiratory tract signs and symptoms,10038734,"Respiratory, thoracic and mediastinal disorders",10038738,"Respiratory, thoracic and mediastinal disorders",10038738,MILD,N,DOSE NOT CHANGED,UNLIKELY RELATED,RECOVERING/RESOLVING,N,N,N,N,N,N,N,TREATMENT,2027-05-12,2027-05-21,1137,1146,
P261-402-USL261,AE,P261-402-USL261-USA_SITE09-0008,27,AE27,NASAL DISCOMFORT,Nasal discomfort,,Nasal discomfort,10028735,Nasal disorders NEC,10028749,Respiratory tract signs and symptoms,10038734,"Respiratory, thoracic and mediastinal disorders",10038738,"Respiratory, thoracic and mediastinal disorders",10038738,MILD,N,DOSE NOT CHANGED,UNLIKELY RELATED,RECOVERED/RESOLVED,N,N,N,N,N,N,N,TREATMENT,2027-05-18,2027-05-25,1143,1150,
P261-402-USL261,AE,P261-402-USL261-USA_SITE09-0008,28,AE28,SOMNOLENCE,Somnolence,,Somnolence,10041349,Disturbances in consciousness NEC,10013396,Neurological signs and symptoms NEC,10049372,Nervous system disorders,10029205,Nervous system disorders,10029205,SEVERE,Y,DOSE NOT CHANGED,NOT RELATED,RECOVERING/RESOLVING,N,N,N,Y,N,N,N,TREATMENT,2027-05-22,2027-06-18,1147,1174,
P261-402-USL261,AE,P261-402-USL261-USA_SITE09-0008,29,AE29,FATIGUE,Fatigue,,Fatigue,10016256,Asthenic conditions,10003550,General system disorders NEC,10060892,General disorders and administration site conditions,10018065,General disorders and administration site conditions,10018065,SEVERE,Y,DOSE NOT CHANGED,UNLIKELY RELATED,RECOVERED/RESOLVED,N,N,N,Y,N,N,N,TREATMENT,2027-05-29,2027-07-03,1154,1189,
P261-402-USL261,AE,P261-402-USL261-USA_SITE09-0008,30,AE30,RHINORRHOEA,Rhinorrhoea,,Rhinorrhoea,10039101,Nasal disorders NEC,10028749,Respiratory tract signs and symptoms,10038734,"Respiratory, thoracic and mediastinal disorders",10038738,"Respiratory, thoracic and mediastinal disorders",10038738,MILD,N,DOSE NOT CHANGED,NOT RELATED,RECOVERED/RESOLVED,N,N,N,N,N,N,N,TREATMENT,2027-06-06,2027-06-17,1162,1173,
P261-402-USL261,AE,P261-402-USL261-USA_SITE09-0008,31,AE31,FATIGUE,Fatigue,,Fatigue,10016256,Asthenic conditions,10003550,General system disorders NEC,10060892,General disorders and administration site conditions,10018065,General disorders and administration site conditions,10018065,MILD,N,DOSE NOT CHANGED,NOT RELATED,RECOVERED/RESOLVED,N,N,N,N,N,N,N,TREATMENT,2027-07-04,2027-07-11,1190,1197,
P261-402-USL261,AE,P261-402-USL261-USA_SITE09-0008,32,AE32,SOMNOLENCE,Somnolence,,Somnolence,10041349,Disturbances in consciousness NEC,10013396,Neurological signs and symptoms NEC,10049372,Nervous system disorders,10029205,Nervous system disorders,10029205,MILD,N,DOSE NOT CHANGED,NOT RELATED,RECOVERED/RESOLVED,N,N,N,N,N,N,N,TREATMENT,2027-11-13,2027-11-16,1322,1325,
P261-402-USL261,AE,P261-402-USL261-USA_SITE09-0008,33,AE33,SOMNOLENCE,Somnolence,,Somnolence,10041349,Disturbances in consciousness NEC,10013396,Neurological signs and symptoms NEC,10049372,Nervous system disorders,10029205,Nervous system disorders,10029205,MODERATE,N,DOSE NOT CHANGED,NOT RELATED,RECOVERED/RESOLVED,N,N,N,N,N,N,N,TREATMENT,2028-02-16,2028-03-08,1417,1438,
P261-402-USL261,AE,P261-402-USL261-USA_SITE12-0013,1,AE1,SOMNOLENCE,Somnolence,,Somnolence,10041349,Disturbances in consciousness NEC,10013396,Neurological signs and symptoms NEC,10049372,Nervous system disorders,10029205,Nervous system disorders,10029205,SEVERE,Y,DRUG WITHDRAWN,PROBABLY RELATED,RECOVERED/RESOLVED,N,N,N,Y,N,N,N,TREATMENT,2024-05-28,2024-05-28,46,46,
P261-402-USL261,AE,P261-402-USL261-USA_SITE13-0002,1,AE1,CONVULSION,Convulsion,,Convulsion,10010904,Seizures and seizure disorders NEC,10039911,Seizures (incl subtypes),10039906,Nervous system disorders,10029205,Nervous system disorders,10029205,MODERATE,N,DOSE NOT CHANGED,NOT RELATED,RECOVERING/RESOLVING,N,N,N,N,N,N,Y,TREATMENT,2024-05-27,2024-05-28,33,34,
P261-402-USL261,AE,P261-402-USL261-USA_SITE13-0002,2,AE2,SOMNOLENCE,Somnolence,,Somnolence,10041349,Disturbances in consciousness NEC,10013396,Neurological signs and symptoms NEC,10049372,Nervous system disorders,10029205,Nervous system disorders,10029205,SEVERE,Y,DOSE NOT CHANGED,NOT RELATED,RECOVERED/RESOLVED,N,N,N,Y,N,N,N,TREATMENT,2024-08-27,2024-09-15,125,144,
P261-402-USL261,AE,P261-402-USL261-USA_SITE13-0002,3,AE3,LACRIMATION INCREASED,Lacrimation increased,,Lacrimation increased,10023644,Ocular disorders NEC,10061519,Ocular disorders NEC,10061519,Eye disorders,10015919,Eye disorders,10015919,MILD,N,DOSE NOT CHANGED,NOT RELATED,RECOVERED/RESOLVED,N,N,N,N,N,N,N,TREATMENT,2024-09-21,2024-09-24,150,153,
P261-402-USL261,AE,P261-402-USL261-USA_SITE13-0002,4,AE4,NASAL DISCOMFORT,Nasal discomfort,,Nasal discomfort,10028735,Nasal disorders NEC,10028749,Respiratory tract signs and symptoms,10038734,"Respiratory, thoracic and mediastinal disorders",10038738,"Respiratory, thoracic and mediastinal disorders",10038738,MODERATE,N,DOSE NOT CHANGED,NOT RELATED,NOT RECOVERED/NOT RESOLVED,N,N,N,N,N,N,Y,TREATMENT,2024-10-15,,174,,DURING/AFTER
P261-402-USL261,AE,P261-402-USL261-USA_SITE13-0002,5,AE5,SOMNOLENCE,Somnolence,,Somnolence,10041349,Disturbances in consciousness NEC,10013396,Neurological signs and symptoms NEC,10049372,Nervous system disorders,10029205,Nervous system disorders,10029205,MODERATE,N,DOSE NOT CHANGED,UNLIKELY RELATED,RECOVERED/RESOLVED,N,N,N,N,N,N,N,TREATMENT,2024-10-25,2024-10-30,184,189,
P261-402-USL261,AE,P261-402-USL261-USA_SITE13-0002,6,AE6,LACRIMATION INCREASED,Lacrimation increased,,Lacrimation increased,10023644,Ocular disorders NEC,10061519,Ocular disorders NEC,10061519,Eye disorders,10015919,Eye disorders,10015919,MILD,N,DOSE NOT CHANGED,NOT RELATED,NOT RECOVERED/NOT RESOLVED,N,N,N,N,N,N,Y,TREATMENT,2024-12-01,,221,,DURING/AFTER
P261-402-USL261,AE,P261-402-USL261-USA_SITE13-0002,7,AE7,HEADACHE,Headache,,Headache,10019211,Headaches NEC,10019233,Headaches,10019231,Nervous system disorders,10029205,Nervous system disorders,10029205,MILD,N,DOSE NOT CHANGED,NOT RELATED,RECOVERED/RESOLVED,N,N,N,N,N,N,N,TREATMENT,2024-12-04,2024-12-07,224,227,
P261-402-USL261,AE,P261-402-USL261-USA_SITE13-0002,8,AE8,DYSGEUSIA,Dysgeusia,,Dysgeusia,10013911,Neurological signs and symptoms NEC,10049372,Neurological signs and symptoms NEC,10049372,Nervous system disorders,10029205,Nervous system disorders,10029205,MILD,N,DOSE NOT CHANGED,NOT RELATED,RECOVERED/RESOLVED,N,N,N,N,N,N,N,TREATMENT,2024-12-22,2024-12-23,242,243,
P261-402-USL261,AE,P261-402-USL261-USA_SITE13-0002,9,AE9,DIZZINESS,Dizziness,,Dizziness,10013573,Dizziness and vertigo symptoms,10049370,Neurological signs and symptoms NEC,10049372,Nervous system disorders,10029205,Nervous system disorders,10029205,MILD,N,DOSE NOT CHANGED,NOT RELATED,RECOVERED/RESOLVED,N,N,N,N,N,N,N,TREATMENT,2025-01-09,2025-01-13,260,264,
P261-402-USL261,AE,P261-402-USL261-USA_SITE13-0002,10,AE10,NAUSEA,Nausea,,Nausea,10028813,Nausea and vomiting symptoms,10028817,Gastrointestinal signs and symptoms,10017999,Gastrointestinal disorders,10017947,Gastrointestinal disorders,10017947,MODERATE,N,DOSE NOT CHANGED,NOT RELATED,RECOVERED/RESOLVED,N,N,N,N,N,N,N,TREATMENT,2025-02-05,2025-02-07,287,289,
P261-402-USL261,AE,P261-402-USL261-USA_SITE13-0002,11,AE11,HEADACHE,Headache,,Headache,10019211,Headaches NEC,10019233,Headaches,10019231,Nervous system disorders,10029205,Nervous system disorders,10029205,MILD,N,DOSE NOT CHANGED,UNLIKELY RELATED,RECOVERED/RESOLVED,N,N,N,N,N,N,N,TREATMENT,2025-02-10,2025-02-12,292,294,
P261-402-USL261,AE,P261-402-USL261-USA_SITE13-0002,12,AE12,SOMNOLENCE,Somnolence,,Somnolence,10041349,Disturbances in consciousness NEC,10013396,Neurological signs and symptoms NEC,10049372,Nervous system disorders,10029205,Nervous system disorders,10029205,MODERATE,N,DOSE NOT CHANGED,NOT RELATED,RECOVERED/RESOLVED,N,N,N,N,N,N,N,TREATMENT,2025-02-20,2025-03-07,302,317,
P261-402-USL261,AE,P261-402-USL261-USA_SITE13-0002,13,AE13,DYSGEUSIA,Dysgeusia,,Dysgeusia,10013911,Neurological signs and symptoms NEC,10049372,Neurological signs and symptoms NEC,10049372,Nervous system disorders,10029205,Nervous system disorders,10029205,MODERATE,N,DOSE NOT CHANGED,NOT RELATED,RECOVERED/RESOLVED,N,N,N,N,N,N,N,TREATMENT,2025-03-20,2025-03-31,330,341,
P261-402-USL261,AE,P261-402-USL261-USA_SITE13-0002,14,AE14,DYSGEUSIA,Dysgeusia,,Dysgeusia,10013911,Neurological signs and symptoms NEC,10049372,Neurological signs and symptoms NEC,10049372,Nervous system disorders,10029205,Nervous system disorders,10029205,MILD,N,DOSE NOT CHANGED,NOT RELATED,RECOVERED/RESOLVED,N,N,N,N,N,N,Y,TREATMENT,2025-05-01,2025-05-08,372,379,
P261-402-USL261,AE,P261-402-USL261-USA_SITE13-0002,15,AE15,HEADACHE,Headache,,Headache,10019211,Headaches NEC,10019233,Headaches,10019231,Nervous system disorders,10029205,Nervous system disorders,10029205,MILD,N,DOSE NOT CHANGED,NOT RELATED,RECOVERED/RESOLVED,N,N,N,N,N,N,N,TREATMENT,2025-08-02,2025-08-03,465,466,
P261-402-USL261,AE,P261-402-USL261-USA_SITE13-0002,16,AE16,HEADACHE,Headache,,Headache,10019211,Headaches NEC,10019233,Headaches,10019231,Nervous system disorders,10029205,Nervous system disorders,10029205,MILD,N,DOSE NOT CHANGED,NOT RELATED,RECOVERED/RESOLVED,N,N,N,N,N,N,N,TREATMENT,2025-08-30,2025-09-01,493,495,
P261-402-USL261,AE,P261-402-USL261-USA_SITE13-0002,17,AE17,FATIGUE,Fatigue,,Fatigue,10016256,Asthenic conditions,10003550,General system disorders NEC,10060892,General disorders and administration site conditions,10018065,General disorders and administration site conditions,10018065,MODERATE,N,DOSE NOT CHANGED,NOT RELATED,UNKNOWN,N,N,N,N,N,N,N,TREATMENT,2025-09-05,2025-09-17,499,511,
P261-402-USL261,AE,P261-402-USL261-USA_SITE13-0002,18,AE18,DYSGEUSIA,Dysgeusia,,Dysgeusia,10013911,Neurological signs and symptoms NEC,10049372,Neurological signs and symptoms NEC,10049372,Nervous system disorders,10029205,Nervous system disorders,10029205,MILD,N,DOSE NOT CHANGED,NOT RELATED,NOT RECOVERED/NOT RESOLVED,N,N,N,N,N,N,Y,TREATMENT,2025-12-15,,600,,DURING/AFTER
P261-402-USL261,AE,P261-402-USL261-USA_SITE13-0002,19,AE19,DIZZINESS,Dizziness,,Dizziness,10013573,Dizziness and vertigo symptoms,10049370,Neurological signs and symptoms NEC,10049372,Nervous system disorders,10029205,Nervous system disorders,10029205,MILD,N,DOSE NOT CHANGED,NOT RELATED,NOT RECOVERED/NOT RESOLVED,N,N,N,N,N,N,N,TREATMENT,2026-03-12,,687,,DURING/AFTER
P261-402-USL261,AE,P261-402-USL261-USA_SITE13-0002,20,AE20,DYSGEUSIA,Dysgeusia,,Dysgeusia,10013911,Neurological signs and symptoms NEC,10049372,Neurological signs and symptoms NEC,10049372,Nervous system disorders,10029205,Nervous system disorders,10029205,MODERATE,N,DOSE NOT CHANGED,NOT RELATED,RECOVERED/RESOLVED,N,N,N,N,N,N,Y,TREATMENT,2026-06-20,2026-06-24,787,791,
P261-402-USL261,AE,P261-402-USL261-USA_SITE13-0002,21,AE21,SOMNOLENCE,Somnolence,,Somnolence,10041349,Disturbances in consciousness NEC,10013396,Neurological signs and symptoms NEC,10049372,Nervous system disorders,10029205,Nervous system disorders,10029205,SEVERE,Y,DOSE NOT CHANGED,NOT RELATED,RECOVERING/RESOLVING,N,N,N,Y,N,N,N,TREATMENT,2026-09-15,2026-11-11,874,931,
P261-402-USL261,AE,P261-402-USL261-USA_SITE13-0002,22,AE22,SOMNOLENCE,Somnolence,,Somnolence,10041349,Disturbances in consciousness NEC,10013396,Neurological signs and symptoms NEC,10049372,Nervous system disorders,10029205,Nervous system disorders,10029205,MILD,N,DOSE NOT CHANGED,NOT RELATED,NOT RECOVERED/NOT RESOLVED,N,N,N,N,N,N,N,TREATMENT,2026-09-24,,883,,DURING/AFTER
P261-402-USL261,AE,P261-402-USL261-USA_SITE13-0002,23,AE23,SOMNOLENCE,Somnolence,,Somnolence,10041349,Disturbances in consciousness NEC,10013396,Neurological signs and symptoms NEC,10049372,Nervous system disorders,10029205,Nervous system disorders,10029205,MILD,N,DOSE NOT CHANGED,NOT RELATED,RECOVERING/RESOLVING,N,N,N,N,N,N,N,TREATMENT,2026-11-07,2026-11-19,927,939,
P261-402-USL261,AE,P261-402-USL261-USA_SITE13-0002,24,AE24,LACRIMATION INCREASED,Lacrimation increased,,Lacrimation increased,10023644,Ocular disorders NEC,10061519,Ocular disorders NEC,10061519,Eye disorders,10015919,Eye disorders,10015919,MILD,N,DOSE NOT CHANGED,NOT RELATED,RECOVERED/RESOLVED,N,N,N,N,N,N,N,TREATMENT,2026-12-02,2026-12-10,952,960,
P261-402-USL261,AE,P261-402-USL261-USA_SITE13-0002,25,AE25,RHINORRHOEA,Rhinorrhoea,,Rhinorrhoea,10039101,Nasal disorders NEC,10028749,Respiratory tract signs and symptoms,10038734,"Respiratory, thoracic and mediastinal disorders",10038738,"Respiratory, thoracic and mediastinal disorders",10038738,MODERATE,N,DOSE NOT CHANGED,NOT RELATED,RECOVERING/RESOLVING,N,N,N,N,N,N,Y,TREATMENT,2027-03-05,2027-03-20,1045,1060,
P261-402-USL261,AE,P261-402-USL261-USA_SITE13-0002,26,AE26,SOMNOLENCE,Somnolence,,Somnolence,10041349,Disturbances in consciousness NEC,10013396,Neurological signs and symptoms NEC,10049372,Nervous system disorders,10029205,Nervous system disorders,10029205,MILD,N,DOSE NOT CHANGED,UNLIKELY RELATED,RECOVERED/RESOLVED,N,N,N,N,N,N,N,TREATMENT,2027-06-08,2027-06-13,1140,1145,
P261-402-USL261,AE,P261-402-USL261-USA_SITE13-0002,27,AE27,NASAL DISCOMFORT,Nasal discomfort,,Nasal discomfort,10028735,Nasal disorders NEC,10028749,Respiratory tract signs and symptoms,10038734,"Respiratory, thoracic and mediastinal disorders",10038738,"Respiratory, thoracic and mediastinal disorders",10038738,MILD,N,DOSE NOT CHANGED,NOT RELATED,RECOVERED/RESOLVED,N,N,N,N,N,N,Y,TREATMENT,2027-12-14,2027-12-24,1329,1339,
P261-402-USL261,AE,P261-402-USL261-USA_SITE13-0002,28,AE28,RHINORRHOEA,Rhinorrhoea,,Rhinorrhoea,10039101,Nasal disorders NEC,10028749,Respiratory tract signs and symptoms,10038734,"Respiratory, thoracic and mediastinal disorders",10038738,"Respiratory, thoracic and mediastinal disorders",10038738,MILD,N,DOSE NOT CHANGED,NOT RELATED,RECOVERING/RESOLVING,N,N,N,N,N,N,N,TREATMENT,2028-01-09,2028-01-22,1355,1368,
P261-402-USL261,AE,P261-402-USL261-USA_SITE13-0002,29,AE29,LACRIMATION INCREASED,Lacrimation increased,,Lacrimation increased,10023644,Ocular disorders NEC,10061519,Ocular disorders NEC,10061519,Eye disorders,10015919,Eye disorders,10015919,MILD,N,DOSE NOT CHANGED,NOT RELATED,NOT RECOVERED/NOT RESOLVED,N,N,N,N,N,N,Y,TREATMENT,2028-02-09,,1386,,DURING/AFTER
P261-402-USL261,AE,P261-402-USL261-USA_SITE13-0002,30,AE30,SOMNOLENCE,Somnolence,,Somnolence,10041349,Disturbances in consciousness NEC,10013396,Neurological signs and symptoms NEC,10049372,Nervous system disorders,10029205,Nervous system disorders,10029205,MODERATE,N,DOSE NOT CHANGED,NOT RELATED,RECOVERED/RESOLVED,N,N,N,N,N,N,N,TREATMENT,2028-03-10,2028-03-15,1416,1421,
P261-402-USL261,AE,P261-402-USL261-USA_SITE14-0001,1,AE1,SOMNOLENCE,Somnolence,,Somnolence,10041349,Disturbances in consciousness NEC,10013396,Neurological signs and symptoms NEC,10049372,Nervous system disorders,10029205,Nervous system disorders,10029205,MILD,N,DOSE NOT CHANGED,NOT RELATED,RECOVERED/RESOLVED,N,N,N,N,N,N,N,TREATMENT,2024-03-30,2024-04-01,3,5,
P261-402-USL261,AE,P261-402-USL261-USA_SITE14-0010,1,AE1,LACRIMATION INCREASED,Lacrimation increased,,Lacrimation increased,10023644,Ocular disorders NEC,10061519,Ocular disorders NEC,10061519,Eye disorders,10015919,Eye disorders,10015919,MILD,N,DOSE NOT CHANGED,NOT RELATED,RECOVERED/RESOLVED,N,N,N,N,N,N,N,TREATMENT,2024-05-05,2024-05-17,23,35,
P261-402-USL261,AE,P261-402-USL261-USA_SITE14-0010,2,AE2,RHINORRHOEA,Rhinorrhoea,,Rhinorrhoea,10039101,Nasal disorders NEC,10028749,Respiratory tract signs and symptoms,10038734,"Respiratory, thoracic and mediastinal disorders",10038738,"Respiratory, thoracic and mediastinal disorders",10038738,MODERATE,N,DOSE NOT CHANGED,UNLIKELY RELATED,RECOVERED/RESOLVED,N,N,N,N,N,N,Y,TREATMENT,2024-05-17,2024-05-25,35,43,
P261-402-USL261,AE,P261-402-USL261-USA_SITE14-0010,3,AE3,LACRIMATION INCREASED,Lacrimation increased,,Lacrimation increased,10023644,Ocular disorders NEC,10061519,Ocular disorders NEC,10061519,Eye disorders,10015919,Eye disorders,10015919,MILD,N,DOSE NOT CHANGED,NOT RELATED,RECOVERED/RESOLVED,N,N,N,N,N,N,N,TREATMENT,2024-06-26,2024-07-04,75,83,
P261-402-USL261,AE,P261-402-USL261-USA_SITE14-0010,4,AE4,FATIGUE,Fatigue,,Fatigue,10016256,Asthenic conditions,10003550,General system disorders NEC,10060892,General disorders and administration site conditions,10018065,General disorders and administration site conditions,10018065,MILD,N,DOSE NOT CHANGED,NOT RELATED,RECOVERED/RESOLVED,N,N,N,N,N,N,N,TREATMENT,2024-10-14,2024-10-26,185,197,
P261-402-USL261,AE,P261-402-USL261-USA_SITE14-0010,5,AE5,NASAL DISCOMFORT,Nasal discomfort,,Nasal discomfort,10028735,Nasal disorders NEC,10028749,Respiratory tract signs and symptoms,10038734,"Respiratory, thoracic and mediastinal disorders",10038738,"Respiratory, thoracic and mediastinal disorders",10038738,MILD,N,DOSE NOT CHANGED,NOT RELATED,RECOVERED/RESOLVED,N,N,N,N,N,N,N,TREATMENT,2024-10-17,2024-10-28,188,199,
P261-402-USL261,AE,P261-402-USL261-USA_SITE14-0010,6,AE6,NAUSEA,Nausea,,Nausea,10028813,Nausea and vomiting symptoms,10028817,Gastrointestinal signs and symptoms,10017999,Gastrointestinal disorders,10017947,Gastrointestinal disorders,10017947,MODERATE,N,DOSE NOT CHANGED,UNLIKELY RELATED,RECOVERED/RESOLVED,N,N,N,N,N,N,N,TREATMENT,2024-10-28,2024-11-04,199,206,
P261-402-USL261,AE,P261-402-USL261-USA_SITE14-0010,7,AE7,NASAL DISCOMFORT,Nasal discomfort,,Nasal discomfort,10028735,Nasal disorders NEC,10028749,Respiratory tract signs and symptoms,10038734,"Respiratory, thoracic and mediastinal disorders",10038738,"Respiratory, thoracic and mediastinal disorders",10038738,MILD,N,DOSE NOT CHANGED,UNLIKELY RELATED,RECOVERED/RESOLVED,N,N,N,N,N,N,Y,TREATMENT,2024-11-24,2024-11-25,226,227,
P261-402-USL261,AE,P261-402-USL261-USA_SITE14-0010,8,AE8,LACRIMATION INCREASED,Lacrimation increased,,Lacrimation increased,10023644,Ocular disorders NEC,10061519,Ocular disorders NEC,10061519,Eye disorders,10015919,Eye disorders,10015919,MILD,N,DOSE NOT CHANGED,NOT RELATED,RECOVERED/RESOLVED,N,N,N,N,N,N,N,TREATMENT,2024-11-26,2024-11-27,228,229,
P261-402-USL261,AE,P261-402-USL261-USA_SITE14-0010,9,AE9,HEADACHE,Headache,,Headache,10019211,Headaches NEC,10019233,Headaches,10019231,Nervous system disorders,10029205,Nervous system disorders,10029205,MILD,N,DOSE NOT CHANGED,NOT RELATED,RECOVERED/RESOLVED,N,N,N,N,N,N,Y,TREATMENT,2024-12-27,2024-12-30,259,262,
P261-402-USL261,AE,P261-402-USL261-USA_SITE14-0010,10,AE10,CONVULSION,Convulsion,,Convulsion,10010904,Seizures and seizure disorders NEC,10039911,Seizures (incl subtypes),10039906,Nervous system disorders,10029205,Nervous system disorders,10029205,MILD,N,DOSE NOT CHANGED,NOT RELATED,RECOVERED/RESOLVED,N,N,N,N,N,N,Y,TREATMENT,2025-01-12,2025-01-16,275,279,
P261-402-USL261,AE,P261-402-USL261-USA_SITE14-0010,11,AE11,NAUSEA,Nausea,,Nausea,10028813,Nausea and vomiting symptoms,10028817,Gastrointestinal signs and symptoms,10017999,Gastrointestinal disorders,10017947,Gastrointestinal disorders,10017947,MODERATE,N,DOSE NOT CHANGED,UNLIKELY RELATED,RECOVERED/RESOLVED,N,N,N,N,N,N,N,TREATMENT,2025-02-10,2025-02-12,304,306,
P261-402-USL261,AE,P261-402-USL261-USA_SITE14-0010,12,AE12,NASAL DISCOMFORT,Nasal discomfort,,Nasal discomfort,10028735,Nasal disorders NEC,10028749,Respiratory tract signs and symptoms,10038734,"Respiratory, thoracic and mediastinal disorders",10038738,"Respiratory, thoracic and mediastinal disorders",10038738,MODERATE,N,DOSE NOT CHANGED,NOT RELATED,RECOVERING/RESOLVING,N,N,N,N,N,N,Y,TREATMENT,2025-03-09,2025-03-12,331,334,
P261-402-USL261,AE,P261-402-USL261-USA_SITE14-0010,13,AE13,LACRIMATION INCREASED,Lacrimation increased,,Lacrimation increased,10023644,Ocular disorders NEC,10061519,Ocular disorders NEC,10061519,Eye disorders,10015919,Eye disorders,10015919,MILD,N,DOSE NOT CHANGED,NOT RELATED,RECOVERED/RESOLVED,N,N,N,N,N,N,N,TREATMENT,2025-05-15,2025-05-26,398,409,
P261-402-USL261,AE,P261-402-USL261-USA_SITE14-0010,14,AE14,HEADACHE,Headache,,Headache,10019211,Headaches NEC,10019233,Headaches,10019231,Nervous system disorders,10029205,Nervous system disorders,10029205,MILD,N,DOSE NOT CHANGED,NOT RELATED,RECOVERED/RESOLVED,N,N,N,N,N,N,N,TREATMENT,2025-05-23,2025-05-24,406,407,
P261-402-USL261,AE,P261-402-USL261-USA_SITE14-0010,15,AE15,DYSGEUSIA,Dysgeusia,,Dysgeusia,10013911,Neurological signs and symptoms NEC,10049372,Neurological signs and symptoms NEC,10049372,Nervous system disorders,10029205,Nervous system disorders,10029205,SEVERE,Y,DOSE NOT CHANGED,NOT RELATED,RECOVERED/RESOLVED,N,N,N,N,N,Y,Y,TREATMENT,2025-07-29,2025-07-29,473,473,
P261-402-USL261,AE,P261-402-USL261-USA_SITE15-0003,1,AE1,FATIGUE,Fatigue,,Fatigue,10016256,Asthenic conditions,10003550,General system disorders NEC,10060892,General disorders and administration site conditions,10018065,General disorders and administration site conditions,10018065,MODERATE,N,DOSE NOT CHANGED,NOT RELATED,RECOVERED/RESOLVED,N,N,N,N,N,N,N,TREATMENT,2024-04-17,2024-05-16,39,68,
P261-402-USL261,AE,P261-402-USL261-USA_SITE15-0003,2,AE2,SOMNOLENCE,Somnolence,,Somnolence,10041349,Disturbances in consciousness NEC,10013396,Neurological signs and symptoms NEC,10049372,Nervous system disorders,10029205,Nervous system disorders,10029205,MILD,N,DOSE NOT CHANGED,NOT RELATED,RECOVERED/RESOLVED,N,N,N,N,N,N,N,TREATMENT,2024-04-24,2024-04-29,46,51,
P261-402-USL261,AE,P261-402-USL261-USA_SITE15-0003,3,AE3,SOMNOLENCE,Somnolence,,Somnolence,10041349,Disturbances in consciousness NEC,10013396,Neurological signs and symptoms NEC,10049372,Nervous system disorders,10029205,Nervous system disorders,10029205,MODERATE,N,DOSE NOT CHANGED,NOT RELATED,RECOVERED/RESOLVED,N,N,N,N,N,N,N,TREATMENT,2024-06-06,2024-06-27,89,110,
P261-402-USL261,AE,P261-402-USL261-USA_SITE15-0003,4,AE4,HEADACHE,Headache,,Headache,10019211,Headaches NEC,10019233,Headaches,10019231,Nervous system disorders,10029205,Nervous system disorders,10029205,SEVERE,Y,DOSE NOT CHANGED,NOT RELATED,RECOVERED/RESOLVED,N,N,N,N,N,Y,Y,TREATMENT,2024-07-25,2024-08-03,138,147,
P261-402-USL261,AE,P261-402-USL261-USA_SITE15-0003,5,AE5,FATIGUE,Fatigue,,Fatigue,10016256,Asthenic conditions,10003550,General system disorders NEC,10060892,General disorders and administration site conditions,10018065,General disorders and administration site conditions,10018065,MILD,N,DOSE NOT CHANGED,NOT RELATED,NOT RECOVERED/NOT RESOLVED,N,N,N,N,N,N,N,TREATMENT,2024-07-29,,142,,DURING/AFTER
P261-402-USL261,AE,P261-402-USL261-USA_SITE15-0003,6,AE6,RHINORRHOEA,Rhinorrhoea,,Rhinorrhoea,10039101,Nasal disorders NEC,10028749,Respiratory tract signs and symptoms,10038734,"Respiratory, thoracic and mediastinal disorders",10038738,"Respiratory, thoracic and mediastinal disorders",10038738,MILD,N,DOSE NOT CHANGED,NOT RELATED,RECOVERED/RESOLVED,N,N,N,N,N,N,Y,TREATMENT,2024-08-08,2024-08-16,152,160,
P261-402-USL261,AE,P261-402-USL261-USA_SITE15-0003,7,AE7,SOMNOLENCE,Somnolence,,Somnolence,10041349,Disturbances in consciousness NEC,10013396,Neurological signs and symptoms NEC,10049372,Nervous system disorders,10029205,Nervous system disorders,10029205,MILD,N,DOSE NOT CHANGED,NOT RELATED,RECOVERING/RESOLVING,N,N,N,N,N,N,N,TREATMENT,2024-08-13,2024-08-17,157,161,
P261-402-USL261,AE,P261-402-USL261-USA_SITE15-0003,8,AE8,NASAL DISCOMFORT,Nasal discomfort,,Nasal discomfort,10028735,Nasal disorders NEC,10028749,Respiratory tract signs and symptoms,10038734,"Respiratory, thoracic and mediastinal disorders",10038738,"Respiratory, thoracic and mediastinal disorders",10038738,MODERATE,N,DOSE NOT CHANGED,NOT RELATED,RECOVERED/RESOLVED,N,N,N,N,N,N,Y,TREATMENT,2024-09-01,2024-09-21,176,196,
P261-402-USL261,AE,P261-402-USL261-USA_SITE15-0003,9,AE9,LACRIMATION INCREASED,Lacrimation increased,,Lacrimation increased,10023644,Ocular disorders NEC,10061519,Ocular disorders NEC,10061519,Eye disorders,10015919,Eye disorders,10015919,MILD,N,DOSE NOT CHANGED,NOT RELATED,NOT RECOVERED/NOT RESOLVED,N,N,N,N,N,N,Y,TREATMENT,2024-11-07,,243,,DURING/AFTER
P261-402-USL261,AE,P261-402-USL261-USA_SITE15-0003,10,AE10,NASAL DISCOMFORT,Nasal discomfort,,Nasal discomfort,10028735,Nasal disorders NEC,10028749,Respiratory tract signs and symptoms,10038734,"Respiratory, thoracic and mediastinal disorders",10038738,"Respiratory, thoracic and mediastinal disorders",10038738,MODERATE,N,DOSE NOT CHANGED,NOT RELATED,RECOVERED/RESOLVED,N,N,N,N,N,N,Y,TREATMENT,2024-12-04,2025-01-01,270,298,
P261-402-USL261,AE,P261-402-USL261-USA_SITE15-0003,11,AE11,NAUSEA,Nausea,,Nausea,10028813,Nausea and vomiting symptoms,10028817,Gastrointestinal signs and symptoms,10017999,Gastrointestinal disorders,10017947,Gastrointestinal disorders,10017947,MODERATE,N,DOSE NOT CHANGED,NOT RELATED,RECOVERED/RESOLVED,N,N,N,N,N,N,N,TREATMENT,2024-12-22,2024-12-29,288,295,
P261-402-USL261,AE,P261-402-USL261-USA_SITE15-0003,12,AE12,NASAL DISCOMFORT,Nasal discomfort,,Nasal discomfort,10028735,Nasal disorders NEC,10028749,Respiratory tract signs and symptoms,10038734,"Respiratory, thoracic and mediastinal disorders",10038738,"Respiratory, thoracic and mediastinal disorders",10038738,MILD,N,DOSE NOT CHANGED,UNLIKELY RELATED,RECOVERED/RESOLVED,N,N,N,N,N,N,N,TREATMENT,2025-01-02,2025-01-05,299,302,
P261-402-USL261,AE,P261-402-USL261-USA_SITE15-0003,13,AE13,HEADACHE,Headache,,Headache,10019211,Headaches NEC,10019233,Headaches,10019231,Nervous system disorders,10029205,Nervous system disorders,10029205,MILD,N,DOSE NOT CHANGED,NOT RELATED,RECOVERING/RESOLVING,N,N,N,N,N,N,Y,TREATMENT,2025-01-16,2025-01-19,313,316,
P261-402-USL261,AE,P261-402-USL261-USA_SITE15-0003,14,AE14,NASAL DISCOMFORT,Nasal discomfort,,Nasal discomfort,10028735,Nasal disorders NEC,10028749,Respiratory tract signs and symptoms,10038734,"Respiratory, thoracic and mediastinal disorders",10038738,"Respiratory, thoracic and mediastinal disorders",10038738,SEVERE,Y,DOSE NOT CHANGED,NOT RELATED,RECOVERED/RESOLVED,N,N,N,Y,N,N,Y,TREATMENT,2025-03-26,2025-04-06,382,393,
P261-402-USL261,AE,P261-402-USL261-USA_SITE15-0003,15,AE15,HEADACHE,Headache,,Headache,10019211,Headaches NEC,10019233,Headaches,10019231,Nervous system disorders,10029205,Nervous system disorders,10029205,MILD,N,DOSE NOT CHANGED,NOT RELATED,RECOVERING/RESOLVING,N,N,N,N,N,N,N,TREATMENT,2025-04-05,2025-04-07,392,394,
P261-402-USL261,AE,P261-402-USL261-USA_SITE15-0003,16,AE16,NASAL DISCOMFORT,Nasal discomfort,,Nasal discomfort,10028735,Nasal disorders NEC,10028749,Respiratory tract signs and symptoms,10038734,"Respiratory, thoracic and mediastinal disorders",10038738,"Respiratory, thoracic and mediastinal disorders",10038738,SEVERE,Y,DOSE NOT CHANGED,NOT RELATED,RECOVERED/RESOLVED,N,N,N,Y,N,N,N,TREATMENT,2025-04-08,2025-04-14,395,401,
P261-402-USL261,AE,P261-402-USL261-USA_SITE15-0003,17,AE17,SOMNOLENCE,Somnolence,,Somnolence,10041349,Disturbances in consciousness NEC,10013396,Neurological signs and symptoms NEC,10049372,Nervous system disorders,10029205,Nervous system disorders,10029205,SEVERE,Y,DOSE NOT CHANGED,NOT RELATED,RECOVERED/RESOLVED,N,N,N,Y,N,N,N,TREATMENT,2025-04-17,2025-05-04,404,421,
P261-402-USL261,AE,P261-402-USL261-USA_SITE15-0003,18,AE18,FATIGUE,Fatigue,,Fatigue,10016256,Asthenic conditions,10003550,General system disorders NEC,10060892,General disorders and administration site conditions,10018065,General disorders and administration site conditions,10018065,MODERATE,N,DOSE NOT CHANGED,NOT RELATED,RECOVERING/RESOLVING,N,N,N,N,N,N,N,TREATMENT,2025-05-01,2025-05-22,418,439,
P261-402-USL261,AE,P261-402-USL261-USA_SITE15-0003,19,AE19,RHINORRHOEA,Rhinorrhoea,,Rhinorrhoea,10039101,Nasal disorders NEC,10028749,Respiratory tract signs and symptoms,10038734,"Respiratory, thoracic and mediastinal disorders",10038738,"Respiratory, thoracic and mediastinal disorders",10038738,MILD,N,DOSE NOT CHANGED,UNLIKELY RELATED,RECOVERED/RESOLVED,N,N,N,N,N,N,N,TREATMENT,2025-06-02,2025-06-09,450,457,
P261-402-USL261,AE,P261-402-USL261-USA_SITE15-0003,20,AE20,SOMNOLENCE,Somnolence,,Somnolence,10041349,Disturbances in consciousness NEC,10013396,Neurological signs and symptoms NEC,10049372,Nervous system disorders,10029205,Nervous system disorders,10029205,MILD,N,DOSE NOT CHANGED,UNLIKELY RELATED,RECOVERED/RESOLVED,N,N,N,N,N,N,N,TREATMENT,2025-07-05,2025-07-12,483,490,
P261-402-USL261,AE,P261-402-USL261-USA_SITE15-0003,21,AE21,HEADACHE,Headache,,Headache,10019211,Headaches NEC,10019233,Headaches,10019231,Nervous system disorders,10029205,Nervous system disorders,10029205,MODERATE,N,DOSE NOT CHANGED,UNLIKELY RELATED,RECOVERED/RESOLVED,N,N,N,N,N,N,N,TREATMENT,2025-09-07,2025-09-09,547,549,
P261-402-USL261,AE,P261-402-USL261-USA_SITE15-0003,22,AE22,HEADACHE,Headache,,Headache,10019211,Headaches NEC,10019233,Headaches,10019231,Nervous system disorders,10029205,Nervous system disorders,10029205,MODERATE,N,DOSE NOT CHANGED,UNLIKELY RELATED,RECOVERED/RESOLVED,N,N,N,N,N,N,Y,TREATMENT,2025-09-21,2025-09-25,561,565,
P261-402-USL261,AE,P261-402-USL261-USA_SITE15-0003,23,AE23,HEADACHE,Headache,,Headache,10019211,Headaches NEC,10019233,Headaches,10019231,Nervous system disorders,10029205,Nervous system disorders,10029205,MILD,N,DOSE NOT CHANGED,NOT RELATED,RECOVERED/RESOLVED,N,N,N,N,N,N,N,TREATMENT,2025-10-27,2025-10-30,597,600,
P261-402-USL261,AE,P261-402-USL261-USA_SITE15-0003,24,AE24,RHINORRHOEA,Rhinorrhoea,,Rhinorrhoea,10039101,Nasal disorders NEC,10028749,Respiratory tract signs and symptoms,10038734,"Respiratory, thoracic and mediastinal disorders",10038738,"Respiratory, thoracic and mediastinal disorders",10038738,SEVERE,Y,DOSE NOT CHANGED,NOT RELATED,RECOVERED/RESOLVED,N,N,N,Y,N,N,Y,TREATMENT,2026-01-20,2026-03-03,682,724,
P261-402-USL261,AE,P261-402-USL261-USA_SITE15-0003,25,AE25,HEADACHE,Headache,,Headache,10019211,Headaches NEC,10019233,Headaches,10019231,Nervous system disorders,10029205,Nervous system disorders,10029205,MILD,N,DOSE NOT CHANGED,NOT RELATED,NOT RECOVERED/NOT RESOLVED,N,N,N,N,N,N,N,TREATMENT,2026-02-06,,699,,DURING/AFTER
P261-402-USL261,AE,P261-402-USL261-USA_SITE15-0003,26,AE26,SOMNOLENCE,Somnolence,,Somnolence,10041349,Disturbances in consciousness NEC,10013396,Neurological signs and symptoms NEC,10049372,Nervous system disorders,10029205,Nervous system disorders,10029205,MILD,N,DOSE NOT CHANGED,UNLIKELY RELATED,RECOVERED/RESOLVED,N,N,N,N,N,N,N,TREATMENT,2026-02-11,2026-02-14,704,707,
P261-402-USL261,AE,P261-402-USL261-USA_SITE15-0003,27,AE27,NASAL DISCOMFORT,Nasal discomfort,,Nasal discomfort,10028735,Nasal disorders NEC,10028749,Respiratory tract signs and symptoms,10038734,"Respiratory, thoracic and mediastinal disorders",10038738,"Respiratory, thoracic and mediastinal disorders",10038738,MODERATE,N,DOSE NOT CHANGED,NOT RELATED,RECOVERED/RESOLVED,N,N,N,N,N,N,N,TREATMENT,2026-04-18,2026-04-21,770,773,
P261-402-USL261,AE,P261-402-USL261-USA_SITE15-0003,28,AE28,SOMNOLENCE,Somnolence,,Somnolence,10041349,Disturbances in consciousness NEC,10013396,Neurological signs and symptoms NEC,10049372,Nervous system disorders,10029205,Nervous system disorders,10029205,SEVERE,Y,DOSE NOT CHANGED,UNLIKELY RELATED,NOT RECOVERED/NOT RESOLVED,N,N,N,Y,N,N,N,TREATMENT,2026-07-04,,847,,DURING/AFTER
P261-402-USL261,AE,P261-402-USL261-USA_SITE15-0003,29,AE29,LACRIMATION INCREASED,Lacrimation increased,,Lacrimation increased,10023644,Ocular disorders NEC,10061519,Ocular disorders NEC,10061519,Eye disorders,10015919,Eye disorders,10015919,MODERATE,N,DOSE NOT CHANGED,NOT RELATED,RECOVERED/RESOLVED,N,N,N,N,N,N,N,TREATMENT,2026-08-22,2026-09-03,896,908,
P261-402-USL261,AE,P261-402-USL261-USA_SITE15-0003,30,AE30,HEADACHE,Headache,,Headache,10019211,Headaches NEC,10019233,Headaches,10019231,Nervous system disorders,10029205,Nervous system disorders,10029205,SEVERE,Y,DOSE NOT CHANGED,NOT RELATED,RECOVERED/RESOLVED,N,N,N,Y,N,N,Y,TREATMENT,2026-09-01,2026-09-09,906,914,
P261-402-USL261,AE,P261-402-USL261-USA_SITE15-0003,31,AE31,HEADACHE,Headache,,Headache,10019211,Headaches NEC,10019233,Headaches,10019231,Nervous system disorders,10029205,Nervous system disorders,10029205,SEVERE,Y,DOSE NOT CHANGED,NOT RELATED,NOT RECOVERED/NOT RESOLVED,N,N,N,Y,N,N,N,TREATMENT,2026-10-28,,963,,DURING/AFTER
P261-402-USL261,AE,P261-402-USL261-USA_SITE15-0003,32,AE32,CONVULSION,Convulsion,,Convulsion,10010904,Seizures and seizure disorders NEC,10039911,Seizures (incl subtypes),10039906,Nervous system disorders,10029205,Nervous system disorders,10029205,SEVERE,Y,DOSE NOT CHANGED,UNLIKELY RELATED,RECOVERING/RESOLVING,N,N,N,Y,N,N,Y,TREATMENT,2027-02-11,2027-03-01,1069,1087,
P261-402-USL261,AE,P261-402-USL261-USA_SITE15-0003,33,AE33,NASAL DISCOMFORT,Nasal discomfort,,Nasal discomfort,10028735,Nasal disorders NEC,10028749,Respiratory tract signs and symptoms,10038734,"Respiratory, thoracic and mediastinal disorders",10038738,"Respiratory, thoracic and mediastinal disorders",10038738,MILD,N,DOSE NOT CHANGED,NOT RELATED,RECOVERED/RESOLVED,N,N,N,N,N,N,N,TREATMENT,2027-03-08,2027-03-10,1094,1096,
P261-402-USL261,AE,P261-402-USL261-USA_SITE15-0003,34,AE34,HEADACHE,Headache,,Headache,10019211,Headaches NEC,10019233,Headaches,10019231,Nervous system disorders,10029205,Nervous system disorders,10029205,MODERATE,N,DOSE NOT CHANGED,NOT RELATED,RECOVERED/RESOLVED,N,N,N,N,N,N,Y,TREATMENT,2027-06-15,2027-06-22,1193,1200,
P261-402-USL261,AE,P261-402-USL261-USA_SITE15-0003,35,AE35,SOMNOLENCE,Somnolence,,Somnolence,10041349,Disturbances in consciousness NEC,10013396,Neurological signs and symptoms NEC,10049372,Nervous system disorders,10029205,Nervous system disorders,10029205,SEVERE,Y,DOSE NOT CHANGED,NOT RELATED,RECOVERED/RESOLVED,N,N,N,Y,N,N,N,TREATMENT,2027-08-27,2027-10-03,1266,1303,
P261-402-USL261,AE,P261-402-USL261-USA_SITE15-0003,36,AE36,HEADACHE,Headache,,Headache,10019211,Headaches NEC,10019233,Headaches,10019231,Nervous system disorders,10029205,Nervous system disorders,10029205,MILD,N,DOSE NOT CHANGED,NOT RELATED,RECOVERED/RESOLVED,N,N,N,N,N,N,N,TREATMENT,2027-09-08,2027-09-11,1278,1281,
P261-402-USL261,AE,P261-402-USL261-USA_SITE15-0003,37,AE37,NASAL DISCOMFORT,Nasal discomfort,,Nasal discomfort,10028735,Nasal disorders NEC,10028749,Respiratory tract signs and symptoms,10038734,"Respiratory, thoracic and mediastinal disorders",10038738,"Respiratory, thoracic and mediastinal disorders",10038738,SEVERE,Y,DOSE NOT CHANGED,NOT RELATED,RECOVERING/RESOLVING,N,N,N,N,N,Y,Y,TREATMENT,2027-12-13,2028-01-30,1374,1422,
P261-402-USL261,AE,P261-402-USL261-USA_SITE15-0003,38,AE38,NAUSEA,Nausea,,Nausea,10028813,Nausea and vomiting symptoms,10028817,Gastrointestinal signs and symptoms,10017999,Gastrointestinal disorders,10017947,Gastrointestinal disorders,10017947,MODERATE,N,DOSE NOT CHANGED,NOT RELATED,RECOVERED/RESOLVED,N,N,N,N,N,N,N,TREATMENT,2028-02-04,2028-02-05,1427,1428,
P261-402-USL261,AE,P261-402-USL261-USA_SITE15-0004,1,AE1,HEADACHE,Headache,,Headache,10019211,Headaches NEC,10019233,Headaches,10019231,Nervous system disorders,10029205,Nervous system disorders,10029205,MILD,N,DOSE NOT CHANGED,POSSIBLY RELATED,RECOVERED/RESOLVED,N,N,N,N,N,N,Y,TREATMENT,2024-02-22,2024-02-25,21,24,
