{"subject_id":"COVHIC001-CHALLENGE-UK_ICL_HVIVO01-0006","study_id":"COVHIC001-CHALLENGE","generated_at":"2026-07-07T05:03:08.924141+00:00","sdtmig_version":"3.4","flags":{"has_serious_ae":false,"has_fatal_ae":false,"has_protocol_deviation":true,"n_protocol_deviations":1,"n_adverse_events":0,"n_concomitant_meds":1,"max_ae_severity":null,"screen_failure":false,"discontinued_early":false,"discontinuation_reason":null,"death":false,"exposure_days":5},"timeline":[{"dtc":"2024-02-24","dy":"-35","event":"VISIT: SCREENING","domain":"SV","category":"visit"},{"dtc":"2024-03-10","dy":"-20","event":"INFORMED CONSENT OBTAINED","domain":"DS","category":"milestone"},{"dtc":"2024-03-30","dy":"1","event":"RANDOMIZED","domain":"DS","category":"milestone"},{"dtc":"2024-03-30","dy":"1","event":"FIRST DOSE: SARS-COV-2-CHALLENGE","domain":"EX","category":"exposure"},{"dtc":"2024-03-30","dy":"1","event":"VISIT: DAY 1 INOCULATION","domain":"SV","category":"visit"},{"dtc":"2024-04-02","dy":"4","event":"VISIT: DAY 4 QUARANTINE","domain":"SV","category":"visit"},{"dtc":"2024-04-04","dy":"6","event":"LAST DOSE: REMDESIVIR","domain":"EX","category":"exposure"},{"dtc":"2024-04-05","dy":"7","event":"VISIT: DAY 7 QUARANTINE","domain":"SV","category":"visit"},{"dtc":"2024-04-13","dy":"15","event":"VISIT: DAY 14 DISCHARGE","domain":"SV","category":"visit"},{"dtc":"2024-04-27","dy":"29","event":"DEVIATION: VISIT OCCURRED OUTSIDE VISIT WINDOW","domain":"DV","category":"deviation"},{"dtc":"2024-04-27","dy":"29","event":"VISIT: DAY 28 FU","domain":"SV","category":"visit"},{"dtc":"2024-06-27","dy":"90","event":"VISIT: MONTH 3 FU","domain":"SV","category":"visit"},{"dtc":"2024-08-17","dy":"141","event":"CM START: ASPIRIN","domain":"CM","category":"concomitant_med"},{"dtc":"2024-09-23","dy":"178","event":"VISIT: MONTH 6 FU","domain":"SV","category":"visit"},{"dtc":"2025-04-17","dy":"384","event":"VISIT: MONTH 12 FU","domain":"SV","category":"visit"},{"dtc":"2025-04-26","dy":"393","event":"COMPLETED","domain":"DS","category":"milestone"}],"section_1_demographics":{"usubjid":"COVHIC001-CHALLENGE-UK_ICL_HVIVO01-0006","subjid":"0006","siteid":"UK_ICL_HVIVO01","age":"26","ageu":"YEARS","sex":"M","race":"ASIAN","ethnicity":"NOT HISPANIC OR LATINO","country":"GBR","arm":"Dose 2 \u2014 100 TCID50 intranasal SARS-CoV-2 + pre-emptive remdesivir","armcd":"DOSE2","actarm":"Dose 2 \u2014 100 TCID50 intranasal SARS-CoV-2 + pre-emptive remdesivir","actarmcd":"DOSE2","randomization_date":null,"informed_consent_date":"2024-03-10","reference_start_date":"2024-03-30","reference_end_date":"2025-04-26","screen_failure":false,"death_flag":null,"death_date":null,"subject_characteristics":[{"testcd":"ALCUSE","test":"Alcohol Use","orres":"NON-DRINKER","stresc":"NON-DRINKER","visit":null,"dtc":"2024-03-10"},{"testcd":"BMI","test":"Body Mass Index","orres":"20.8","stresc":"20.8","visit":null,"dtc":"2024-03-10"},{"testcd":"DURDIS","test":"Duration of Disease","orres":"121 months","stresc":"121","visit":null,"dtc":"2024-03-10"},{"testcd":"TOBPKYR","test":"Tobacco Pack-Years","orres":"28","stresc":"28","visit":null,"dtc":"2024-03-10"},{"testcd":"TOBUSE","test":"Tobacco Use","orres":"CURRENT SMOKER","stresc":"CURRENT SMOKER","visit":null,"dtc":"2024-03-10"}]},"section_2_medical_history":{"items":[{"seq":"1","term":"ECZEMA","decod":"ECZEMA","cat":"DERMATOLOGICAL","scat":null,"presp":null,"occur":null,"status":null,"onset_dtc":"2014-03-13","end_dtc":null,"visit":null}]},"section_3_inclusion_exclusion":{"criteria":[]},"section_4_trial_participation":{"visits":[{"visitnum":"1.0","visit":"SCREENING","start_dtc":"2024-02-24","end_dtc":"2024-02-24","updes":null},{"visitnum":"2.0","visit":"DAY 1 INOCULATION","start_dtc":"2024-03-30","end_dtc":"2024-03-30","updes":null},{"visitnum":"3.0","visit":"DAY 4 QUARANTINE","start_dtc":"2024-04-02","end_dtc":"2024-04-02","updes":null},{"visitnum":"4.0","visit":"DAY 7 QUARANTINE","start_dtc":"2024-04-05","end_dtc":"2024-04-05","updes":null},{"visitnum":"5.0","visit":"DAY 14 DISCHARGE","start_dtc":"2024-04-13","end_dtc":"2024-04-13","updes":null},{"visitnum":"6.0","visit":"DAY 28 FU","start_dtc":"2024-04-27","end_dtc":"2024-04-27","updes":null},{"visitnum":"7.0","visit":"MONTH 3 FU","start_dtc":"2024-06-27","end_dtc":"2024-06-27","updes":null},{"visitnum":"8.0","visit":"MONTH 6 FU","start_dtc":"2024-09-23","end_dtc":"2024-09-23","updes":null},{"visitnum":"9.0","visit":"MONTH 12 FU","start_dtc":"2025-04-17","end_dtc":"2025-04-17","updes":null}],"epochs":[{"seq":"1","etcd":"SCRN","element":"Screening","start_dtc":"2024-03-02","end_dtc":"2024-03-30","updes":null},{"seq":"2","etcd":"INOC","element":"Inoculation + quarantine","start_dtc":"2024-03-30","end_dtc":"2024-04-13","updes":null},{"seq":"3","etcd":"FU","element":"Outpatient follow-up","start_dtc":"2024-04-13","end_dtc":"2025-04-07","updes":null}],"visit_count":9},"section_5_concomitant_medications":{"medications":[{"seq":"1","trt":"ASPIRIN","decod":"ASPIRIN","cat":"CONCOMITANT","dose":null,"doseu":null,"dosef":"QD","route":"ORAL","indication":null,"start_dtc":"2024-08-17","end_dtc":"2024-09-25","ongoing":null,"visit":null}]},"section_6_exposure":{"exposure_as_administered":[{"seq":"1","trt":"SARS-COV-2-CHALLENGE","dose":"100.0","doseu":null,"dosef":"ONCE","route":"NASAL","lot":null,"start_dtc":"2024-03-30","end_dtc":"2024-03-30","start_dy":"1","end_dy":"1","epoch":"TREATMENT","visit":null},{"seq":"2","trt":"REMDESIVIR","dose":"200.0","doseu":null,"dosef":"ONCE","route":"INTRAVENOUS","lot":null,"start_dtc":"2024-04-01","end_dtc":"2024-04-01","start_dy":"3","end_dy":"3","epoch":"TREATMENT","visit":null},{"seq":"3","trt":"REMDESIVIR","dose":"100.0","doseu":null,"dosef":"QD","route":"INTRAVENOUS","lot":null,"start_dtc":"2024-04-02","end_dtc":"2024-04-04","start_dy":"4","end_dy":"6","epoch":"TREATMENT","visit":null}],"exposure_as_collected":[{"seq":"1","trt":"SARS-COV-2-CHALLENGE","dose":"100.0","doseu":null,"dosef":"ONCE","route":"NASAL","start_dtc":"2024-03-30","end_dtc":"2024-03-30","visit":"DAY 1 INOCULATION"},{"seq":"2","trt":"REMDESIVIR","dose":"200.0","doseu":null,"dosef":"ONCE","route":"INTRAVENOUS","start_dtc":"2024-04-01","end_dtc":"2024-04-01","visit":"DAY 1 INOCULATION"},{"seq":"3","trt":"REMDESIVIR","dose":"100.0","doseu":null,"dosef":"QD","route":"INTRAVENOUS","start_dtc":"2024-04-02","end_dtc":"2024-04-02","visit":"DAY 1 INOCULATION"},{"seq":"4","trt":"REMDESIVIR","dose":"100.0","doseu":null,"dosef":"QD","route":"INTRAVENOUS","start_dtc":"2024-04-03","end_dtc":"2024-04-03","visit":"DAY 4 QUARANTINE"},{"seq":"5","trt":"REMDESIVIR","dose":"100.0","doseu":null,"dosef":"QD","route":"INTRAVENOUS","start_dtc":"2024-04-04","end_dtc":"2024-04-04","visit":"DAY 4 QUARANTINE"}]},"section_7_adverse_events":{"summary":{"total_aes":0,"serious_aes":0,"fatal_aes":0,"by_severity":{},"by_soc":{}},"events":[]},"section_8_laboratory_results":{"summary":{"total_records":49,"abnormal_count":14,"abnormal_pct":28.6},"shift_summary":[{"testcd":"ALT","baseline_value":36.76,"baseline_nrind":"NORMAL","worst_post_baseline_value":41.1,"worst_post_baseline_nrind":"NORMAL","worst_visit":"DAY 7 QUARANTINE"},{"testcd":"AST","baseline_value":19.96,"baseline_nrind":"NORMAL","worst_post_baseline_value":19.33,"worst_post_baseline_nrind":"NORMAL","worst_visit":"DAY 14 DISCHARGE"},{"testcd":"CREAT","baseline_value":53.77,"baseline_nrind":"LOW","worst_post_baseline_value":52.03,"worst_post_baseline_nrind":"LOW","worst_visit":"MONTH 12 FU"},{"testcd":"GLUC","baseline_value":5.13,"baseline_nrind":"NORMAL","worst_post_baseline_value":5.24,"worst_post_baseline_nrind":"NORMAL","worst_visit":"DAY 1 INOCULATION"},{"testcd":"HGB","baseline_value":121.39,"baseline_nrind":"LOW","worst_post_baseline_value":115.9,"worst_post_baseline_nrind":"LOW","worst_visit":"MONTH 12 FU"},{"testcd":"PLAT","baseline_value":238.91,"baseline_nrind":"NORMAL","worst_post_baseline_value":284.6,"worst_post_baseline_nrind":"NORMAL","worst_visit":"MONTH 3 FU"},{"testcd":"WBC","baseline_value":4.73,"baseline_nrind":"NORMAL","worst_post_baseline_value":5.56,"worst_post_baseline_nrind":"NORMAL","worst_visit":"MONTH 6 FU"}],"results":[{"seq":"1","testcd":"ALT","test":"Alanine Aminotransferase","cat":"CHEMISTRY","orres":"36.76","orresu":"U/L","stresc":"36.76","stresn":"36.76","stresu":"U/L","stnrlo":"7","stnrhi":"56","nrind":"NORMAL","fast":null,"dtc":"2024-02-24","dy":"-35","visit":"SCREENING","visitnum":"1.0","epoch":"SCREENING","spec":null,"method":null},{"seq":"2","testcd":"AST","test":"Aspartate Aminotransferase","cat":"CHEMISTRY","orres":"19.96","orresu":"U/L","stresc":"19.96","stresn":"19.96","stresu":"U/L","stnrlo":"10","stnrhi":"40","nrind":"NORMAL","fast":null,"dtc":"2024-02-24","dy":"-35","visit":"SCREENING","visitnum":"1.0","epoch":"SCREENING","spec":null,"method":null},{"seq":"3","testcd":"CREAT","test":"Creatinine","cat":"CHEMISTRY","orres":"53.77","orresu":"umol/L","stresc":"53.77","stresn":"53.77","stresu":"umol/L","stnrlo":"62","stnrhi":"106","nrind":"LOW","fast":null,"dtc":"2024-02-24","dy":"-35","visit":"SCREENING","visitnum":"1.0","epoch":"SCREENING","spec":null,"method":null},{"seq":"4","testcd":"GLUC","test":"Glucose","cat":"CHEMISTRY","orres":"5.13","orresu":"mmol/L","stresc":"5.13","stresn":"5.13","stresu":"mmol/L","stnrlo":"3.9","stnrhi":"5.6","nrind":"NORMAL","fast":null,"dtc":"2024-02-24","dy":"-35","visit":"SCREENING","visitnum":"1.0","epoch":"SCREENING","spec":null,"method":null},{"seq":"5","testcd":"HGB","test":"Hemoglobin","cat":"HEMATOLOGY","orres":"121.39","orresu":"g/L","stresc":"121.39","stresn":"121.39","stresu":"g/L","stnrlo":"130","stnrhi":"175","nrind":"LOW","fast":null,"dtc":"2024-02-24","dy":"-35","visit":"SCREENING","visitnum":"1.0","epoch":"SCREENING","spec":null,"method":null},{"seq":"6","testcd":"PLAT","test":"Platelets","cat":"HEMATOLOGY","orres":"238.91","orresu":"10^9/L","stresc":"238.91","stresn":"238.91","stresu":"10^9/L","stnrlo":"150","stnrhi":"400","nrind":"NORMAL","fast":null,"dtc":"2024-02-24","dy":"-35","visit":"SCREENING","visitnum":"1.0","epoch":"SCREENING","spec":null,"method":null},{"seq":"7","testcd":"WBC","test":"Leukocytes","cat":"HEMATOLOGY","orres":null,"orresu":null,"stresc":null,"stresn":null,"stresu":null,"stnrlo":null,"stnrhi":null,"nrind":null,"fast":null,"dtc":"2024-02-24","dy":"-35","visit":"SCREENING","visitnum":"1.0","epoch":"SCREENING","spec":null,"method":null},{"seq":"8","testcd":"ALT","test":"Alanine Aminotransferase","cat":"CHEMISTRY","orres":"36.83","orresu":"U/L","stresc":"36.83","stresn":"36.83","stresu":"U/L","stnrlo":"7","stnrhi":"56","nrind":"NORMAL","fast":null,"dtc":"2024-03-30","dy":"1","visit":"DAY 1 INOCULATION","visitnum":"2.0","epoch":"TREATMENT","spec":null,"method":null},{"seq":"9","testcd":"AST","test":"Aspartate Aminotransferase","cat":"CHEMISTRY","orres":"19.1","orresu":"U/L","stresc":"19.1","stresn":"19.1","stresu":"U/L","stnrlo":"10","stnrhi":"40","nrind":"NORMAL","fast":null,"dtc":"2024-03-30","dy":"1","visit":"DAY 1 INOCULATION","visitnum":"2.0","epoch":"TREATMENT","spec":null,"method":null},{"seq":"10","testcd":"CREAT","test":"Creatinine","cat":"CHEMISTRY","orres":"48.74","orresu":"umol/L","stresc":"48.74","stresn":"48.74","stresu":"umol/L","stnrlo":"62","stnrhi":"106","nrind":"LOW","fast":null,"dtc":"2024-03-30","dy":"1","visit":"DAY 1 INOCULATION","visitnum":"2.0","epoch":"TREATMENT","spec":null,"method":null},{"seq":"11","testcd":"GLUC","test":"Glucose","cat":"CHEMISTRY","orres":"5.24","orresu":"mmol/L","stresc":"5.24","stresn":"5.24","stresu":"mmol/L","stnrlo":"3.9","stnrhi":"5.6","nrind":"NORMAL","fast":null,"dtc":"2024-03-30","dy":"1","visit":"DAY 1 INOCULATION","visitnum":"2.0","epoch":"TREATMENT","spec":null,"method":null},{"seq":"12","testcd":"HGB","test":"Hemoglobin","cat":"HEMATOLOGY","orres":"120.65","orresu":"g/L","stresc":"120.65","stresn":"120.65","stresu":"g/L","stnrlo":"130","stnrhi":"175","nrind":"LOW","fast":null,"dtc":"2024-03-30","dy":"1","visit":"DAY 1 INOCULATION","visitnum":"2.0","epoch":"TREATMENT","spec":null,"method":null},{"seq":"13","testcd":"PLAT","test":"Platelets","cat":"HEMATOLOGY","orres":"238.2","orresu":"10^9/L","stresc":"238.2","stresn":"238.2","stresu":"10^9/L","stnrlo":"150","stnrhi":"400","nrind":"NORMAL","fast":null,"dtc":"2024-03-30","dy":"1","visit":"DAY 1 INOCULATION","visitnum":"2.0","epoch":"TREATMENT","spec":null,"method":null},{"seq":"14","testcd":"WBC","test":"Leukocytes","cat":"HEMATOLOGY","orres":"4.73","orresu":"10^9/L","stresc":"4.73","stresn":"4.73","stresu":"10^9/L","stnrlo":"4.0","stnrhi":"11.0","nrind":"NORMAL","fast":null,"dtc":"2024-03-30","dy":"1","visit":"DAY 1 INOCULATION","visitnum":"2.0","epoch":"TREATMENT","spec":null,"method":null},{"seq":"15","testcd":"ALT","test":"Alanine Aminotransferase","cat":"CHEMISTRY","orres":"41.1","orresu":"U/L","stresc":"41.1","stresn":"41.1","stresu":"U/L","stnrlo":"7","stnrhi":"56","nrind":"NORMAL","fast":null,"dtc":"2024-04-05","dy":"7","visit":"DAY 7 QUARANTINE","visitnum":"4.0","epoch":"QUARANTINE","spec":null,"method":null},{"seq":"16","testcd":"AST","test":"Aspartate Aminotransferase","cat":"CHEMISTRY","orres":"19.22","orresu":"U/L","stresc":"19.22","stresn":"19.22","stresu":"U/L","stnrlo":"10","stnrhi":"40","nrind":"NORMAL","fast":null,"dtc":"2024-04-05","dy":"7","visit":"DAY 7 QUARANTINE","visitnum":"4.0","epoch":"QUARANTINE","spec":null,"method":null},{"seq":"17","testcd":"CREAT","test":"Creatinine","cat":"CHEMISTRY","orres":"46.76","orresu":"umol/L","stresc":"46.76","stresn":"46.76","stresu":"umol/L","stnrlo":"62","stnrhi":"106","nrind":"LOW","fast":null,"dtc":"2024-04-05","dy":"7","visit":"DAY 7 QUARANTINE","visitnum":"4.0","epoch":"QUARANTINE","spec":null,"method":null},{"seq":"18","testcd":"GLUC","test":"Glucose","cat":"CHEMISTRY","orres":null,"orresu":null,"stresc":null,"stresn":null,"stresu":null,"stnrlo":null,"stnrhi":null,"nrind":null,"fast":null,"dtc":"2024-04-05","dy":"7","visit":"DAY 7 QUARANTINE","visitnum":"4.0","epoch":"QUARANTINE","spec":null,"method":null},{"seq":"19","testcd":"HGB","test":"Hemoglobin","cat":"HEMATOLOGY","orres":"120.58","orresu":"g/L","stresc":"120.58","stresn":"120.58","stresu":"g/L","stnrlo":"130","stnrhi":"175","nrind":"LOW","fast":null,"dtc":"2024-04-05","dy":"7","visit":"DAY 7 QUARANTINE","visitnum":"4.0","epoch":"QUARANTINE","spec":null,"method":null},{"seq":"20","testcd":"PLAT","test":"Platelets","cat":"HEMATOLOGY","orres":"241.91","orresu":"10^9/L","stresc":"241.91","stresn":"241.91","stresu":"10^9/L","stnrlo":"150","stnrhi":"400","nrind":"NORMAL","fast":null,"dtc":"2024-04-05","dy":"7","visit":"DAY 7 QUARANTINE","visitnum":"4.0","epoch":"QUARANTINE","spec":null,"method":null},{"seq":"21","testcd":"WBC","test":"Leukocytes","cat":"HEMATOLOGY","orres":"5.13","orresu":"10^9/L","stresc":"5.13","stresn":"5.13","stresu":"10^9/L","stnrlo":"4.0","stnrhi":"11.0","nrind":"NORMAL","fast":null,"dtc":"2024-04-05","dy":"7","visit":"DAY 7 QUARANTINE","visitnum":"4.0","epoch":"QUARANTINE","spec":null,"method":null},{"seq":"22","testcd":"ALT","test":"Alanine Aminotransferase","cat":"CHEMISTRY","orres":"38.62","orresu":"U/L","stresc":"38.62","stresn":"38.62","stresu":"U/L","stnrlo":"7","stnrhi":"56","nrind":"NORMAL","fast":null,"dtc":"2024-04-13","dy":"15","visit":"DAY 14 DISCHARGE","visitnum":"5.0","epoch":"QUARANTINE","spec":null,"method":null},{"seq":"23","testcd":"AST","test":"Aspartate Aminotransferase","cat":"CHEMISTRY","orres":"19.33","orresu":"U/L","stresc":"19.33","stresn":"19.33","stresu":"U/L","stnrlo":"10","stnrhi":"40","nrind":"NORMAL","fast":null,"dtc":"2024-04-13","dy":"15","visit":"DAY 14 DISCHARGE","visitnum":"5.0","epoch":"QUARANTINE","spec":null,"method":null},{"seq":"24","testcd":"CREAT","test":"Creatinine","cat":"CHEMISTRY","orres":"48.14","orresu":"umol/L","stresc":"48.14","stresn":"48.14","stresu":"umol/L","stnrlo":"62","stnrhi":"106","nrind":"LOW","fast":null,"dtc":"2024-04-13","dy":"15","visit":"DAY 14 DISCHARGE","visitnum":"5.0","epoch":"QUARANTINE","spec":null,"method":null},{"seq":"25","testcd":"GLUC","test":"Glucose","cat":"CHEMISTRY","orres":"5.07","orresu":"mmol/L","stresc":"5.07","stresn":"5.07","stresu":"mmol/L","stnrlo":"3.9","stnrhi":"5.6","nrind":"NORMAL","fast":null,"dtc":"2024-04-13","dy":"15","visit":"DAY 14 DISCHARGE","visitnum":"5.0","epoch":"QUARANTINE","spec":null,"method":null},{"seq":"26","testcd":"HGB","test":"Hemoglobin","cat":"HEMATOLOGY","orres":"120.08","orresu":"g/L","stresc":"120.08","stresn":"120.08","stresu":"g/L","stnrlo":"130","stnrhi":"175","nrind":"LOW","fast":null,"dtc":"2024-04-13","dy":"15","visit":"DAY 14 DISCHARGE","visitnum":"5.0","epoch":"QUARANTINE","spec":null,"method":null},{"seq":"27","testcd":"PLAT","test":"Platelets","cat":"HEMATOLOGY","orres":"276.81","orresu":"10^9/L","stresc":"276.81","stresn":"276.81","stresu":"10^9/L","stnrlo":"150","stnrhi":"400","nrind":"NORMAL","fast":null,"dtc":"2024-04-13","dy":"15","visit":"DAY 14 DISCHARGE","visitnum":"5.0","epoch":"QUARANTINE","spec":null,"method":null},{"seq":"28","testcd":"WBC","test":"Leukocytes","cat":"HEMATOLOGY","orres":"5.14","orresu":"10^9/L","stresc":"5.14","stresn":"5.14","stresu":"10^9/L","stnrlo":"4.0","stnrhi":"11.0","nrind":"NORMAL","fast":null,"dtc":"2024-04-13","dy":"15","visit":"DAY 14 DISCHARGE","visitnum":"5.0","epoch":"QUARANTINE","spec":null,"method":null},{"seq":"29","testcd":"ALT","test":"Alanine Aminotransferase","cat":"CHEMISTRY","orres":"39.89","orresu":"U/L","stresc":"39.89","stresn":"39.89","stresu":"U/L","stnrlo":"7","stnrhi":"56","nrind":"NORMAL","fast":null,"dtc":"2024-06-27","dy":"90","visit":"MONTH 3 FU","visitnum":"7.0","epoch":"FOLLOW-UP","spec":null,"method":null},{"seq":"30","testcd":"AST","test":"Aspartate Aminotransferase","cat":"CHEMISTRY","orres":"17.96","orresu":"U/L","stresc":"17.96","stresn":"17.96","stresu":"U/L","stnrlo":"10","stnrhi":"40","nrind":"NORMAL","fast":null,"dtc":"2024-06-27","dy":"90","visit":"MONTH 3 FU","visitnum":"7.0","epoch":"FOLLOW-UP","spec":null,"method":null},{"seq":"31","testcd":"CREAT","test":"Creatinine","cat":"CHEMISTRY","orres":"50.92","orresu":"umol/L","stresc":"50.92","stresn":"50.92","stresu":"umol/L","stnrlo":"62","stnrhi":"106","nrind":"LOW","fast":null,"dtc":"2024-06-27","dy":"90","visit":"MONTH 3 FU","visitnum":"7.0","epoch":"FOLLOW-UP","spec":null,"method":null},{"seq":"32","testcd":"GLUC","test":"Glucose","cat":"CHEMISTRY","orres":"5.09","orresu":"mmol/L","stresc":"5.09","stresn":"5.09","stresu":"mmol/L","stnrlo":"3.9","stnrhi":"5.6","nrind":"NORMAL","fast":null,"dtc":"2024-06-27","dy":"90","visit":"MONTH 3 FU","visitnum":"7.0","epoch":"FOLLOW-UP","spec":null,"method":null},{"seq":"33","testcd":"HGB","test":"Hemoglobin","cat":"HEMATOLOGY","orres":"119.92","orresu":"g/L","stresc":"119.92","stresn":"119.92","stresu":"g/L","stnrlo":"130","stnrhi":"175","nrind":"LOW","fast":null,"dtc":"2024-06-27","dy":"90","visit":"MONTH 3 FU","visitnum":"7.0","epoch":"FOLLOW-UP","spec":null,"method":null},{"seq":"34","testcd":"PLAT","test":"Platelets","cat":"HEMATOLOGY","orres":"284.6","orresu":"10^9/L","stresc":"284.6","stresn":"284.6","stresu":"10^9/L","stnrlo":"150","stnrhi":"400","nrind":"NORMAL","fast":null,"dtc":"2024-06-27","dy":"90","visit":"MONTH 3 FU","visitnum":"7.0","epoch":"FOLLOW-UP","spec":null,"method":null},{"seq":"35","testcd":"WBC","test":"Leukocytes","cat":"HEMATOLOGY","orres":"5.47","orresu":"10^9/L","stresc":"5.47","stresn":"5.47","stresu":"10^9/L","stnrlo":"4.0","stnrhi":"11.0","nrind":"NORMAL","fast":null,"dtc":"2024-06-27","dy":"90","visit":"MONTH 3 FU","visitnum":"7.0","epoch":"FOLLOW-UP","spec":null,"method":null},{"seq":"36","testcd":"ALT","test":"Alanine Aminotransferase","cat":"CHEMISTRY","orres":"38.22","orresu":"U/L","stresc":"38.22","stresn":"38.22","stresu":"U/L","stnrlo":"7","stnrhi":"56","nrind":"NORMAL","fast":null,"dtc":"2024-09-23","dy":"178","visit":"MONTH 6 FU","visitnum":"8.0","epoch":"FOLLOW-UP","spec":null,"method":null},{"seq":"37","testcd":"AST","test":"Aspartate Aminotransferase","cat":"CHEMISTRY","orres":"16.9","orresu":"U/L","stresc":"16.9","stresn":"16.9","stresu":"U/L","stnrlo":"10","stnrhi":"40","nrind":"NORMAL","fast":null,"dtc":"2024-09-23","dy":"178","visit":"MONTH 6 FU","visitnum":"8.0","epoch":"FOLLOW-UP","spec":null,"method":null},{"seq":"38","testcd":"CREAT","test":"Creatinine","cat":"CHEMISTRY","orres":"51.34","orresu":"umol/L","stresc":"51.34","stresn":"51.34","stresu":"umol/L","stnrlo":"62","stnrhi":"106","nrind":"LOW","fast":null,"dtc":"2024-09-23","dy":"178","visit":"MONTH 6 FU","visitnum":"8.0","epoch":"FOLLOW-UP","spec":null,"method":null},{"seq":"39","testcd":"GLUC","test":"Glucose","cat":"CHEMISTRY","orres":"5.18","orresu":"mmol/L","stresc":"5.18","stresn":"5.18","stresu":"mmol/L","stnrlo":"3.9","stnrhi":"5.6","nrind":"NORMAL","fast":null,"dtc":"2024-09-23","dy":"178","visit":"MONTH 6 FU","visitnum":"8.0","epoch":"FOLLOW-UP","spec":null,"method":null},{"seq":"40","testcd":"HGB","test":"Hemoglobin","cat":"HEMATOLOGY","orres":"118.22","orresu":"g/L","stresc":"118.22","stresn":"118.22","stresu":"g/L","stnrlo":"130","stnrhi":"175","nrind":"LOW","fast":null,"dtc":"2024-09-23","dy":"178","visit":"MONTH 6 FU","visitnum":"8.0","epoch":"FOLLOW-UP","spec":null,"method":null},{"seq":"41","testcd":"PLAT","test":"Platelets","cat":"HEMATOLOGY","orres":"279.3","orresu":"10^9/L","stresc":"279.3","stresn":"279.3","stresu":"10^9/L","stnrlo":"150","stnrhi":"400","nrind":"NORMAL","fast":null,"dtc":"2024-09-23","dy":"178","visit":"MONTH 6 FU","visitnum":"8.0","epoch":"FOLLOW-UP","spec":null,"method":null},{"seq":"42","testcd":"WBC","test":"Leukocytes","cat":"HEMATOLOGY","orres":"5.56","orresu":"10^9/L","stresc":"5.56","stresn":"5.56","stresu":"10^9/L","stnrlo":"4.0","stnrhi":"11.0","nrind":"NORMAL","fast":null,"dtc":"2024-09-23","dy":"178","visit":"MONTH 6 FU","visitnum":"8.0","epoch":"FOLLOW-UP","spec":null,"method":null},{"seq":"43","testcd":"ALT","test":"Alanine Aminotransferase","cat":"CHEMISTRY","orres":"40.84","orresu":"U/L","stresc":"40.84","stresn":"40.84","stresu":"U/L","stnrlo":"7","stnrhi":"56","nrind":"NORMAL","fast":null,"dtc":"2025-04-17","dy":"384","visit":"MONTH 12 FU","visitnum":"9.0","epoch":"FOLLOW-UP","spec":null,"method":null},{"seq":"44","testcd":"AST","test":"Aspartate Aminotransferase","cat":"CHEMISTRY","orres":"17.16","orresu":"U/L","stresc":"17.16","stresn":"17.16","stresu":"U/L","stnrlo":"10","stnrhi":"40","nrind":"NORMAL","fast":null,"dtc":"2025-04-17","dy":"384","visit":"MONTH 12 FU","visitnum":"9.0","epoch":"FOLLOW-UP","spec":null,"method":null},{"seq":"45","testcd":"CREAT","test":"Creatinine","cat":"CHEMISTRY","orres":"52.03","orresu":"umol/L","stresc":"52.03","stresn":"52.03","stresu":"umol/L","stnrlo":"62","stnrhi":"106","nrind":"LOW","fast":null,"dtc":"2025-04-17","dy":"384","visit":"MONTH 12 FU","visitnum":"9.0","epoch":"FOLLOW-UP","spec":null,"method":null},{"seq":"46","testcd":"GLUC","test":"Glucose","cat":"CHEMISTRY","orres":"5.14","orresu":"mmol/L","stresc":"5.14","stresn":"5.14","stresu":"mmol/L","stnrlo":"3.9","stnrhi":"5.6","nrind":"NORMAL","fast":null,"dtc":"2025-04-17","dy":"384","visit":"MONTH 12 FU","visitnum":"9.0","epoch":"FOLLOW-UP","spec":null,"method":null},{"seq":"47","testcd":"HGB","test":"Hemoglobin","cat":"HEMATOLOGY","orres":"115.9","orresu":"g/L","stresc":"115.9","stresn":"115.9","stresu":"g/L","stnrlo":"130","stnrhi":"175","nrind":"LOW","fast":null,"dtc":"2025-04-17","dy":"384","visit":"MONTH 12 FU","visitnum":"9.0","epoch":"FOLLOW-UP","spec":null,"method":null},{"seq":"48","testcd":"PLAT","test":"Platelets","cat":"HEMATOLOGY","orres":"268.79","orresu":"10^9/L","stresc":"268.79","stresn":"268.79","stresu":"10^9/L","stnrlo":"150","stnrhi":"400","nrind":"NORMAL","fast":null,"dtc":"2025-04-17","dy":"384","visit":"MONTH 12 FU","visitnum":"9.0","epoch":"FOLLOW-UP","spec":null,"method":null},{"seq":"49","testcd":"WBC","test":"Leukocytes","cat":"HEMATOLOGY","orres":"5.21","orresu":"10^9/L","stresc":"5.21","stresn":"5.21","stresu":"10^9/L","stnrlo":"4.0","stnrhi":"11.0","nrind":"NORMAL","fast":null,"dtc":"2025-04-17","dy":"384","visit":"MONTH 12 FU","visitnum":"9.0","epoch":"FOLLOW-UP","spec":null,"method":null}]},"section_9_vital_signs":{"summary":{"total_records":56},"trends":{"BMI":[{"visit":"SCREENING","visitnum":"1.0","dtc":"2024-02-24","value":"20.8","unit":"kg/m2"},{"visit":"DAY 1 INOCULATION","visitnum":"2.0","dtc":"2024-03-30","value":"21.6","unit":"kg/m2"},{"visit":"DAY 7 QUARANTINE","visitnum":"4.0","dtc":"2024-04-05","value":"20.5","unit":"kg/m2"},{"visit":"DAY 14 DISCHARGE","visitnum":"5.0","dtc":"2024-04-13","value":"21.2","unit":"kg/m2"},{"visit":"DAY 28 FU","visitnum":"6.0","dtc":"2024-04-27","value":"21.9","unit":"kg/m2"},{"visit":"MONTH 3 FU","visitnum":"7.0","dtc":"2024-06-27","value":"20.7","unit":"kg/m2"},{"visit":"MONTH 12 FU","visitnum":"9.0","dtc":"2025-04-17","value":"21.2","unit":"kg/m2"}],"DIABP":[{"visit":"SCREENING","visitnum":"1.0","dtc":"2024-02-24","value":"72.2","unit":"mmHg"},{"visit":"DAY 1 INOCULATION","visitnum":"2.0","dtc":"2024-03-30","value":"72.6","unit":"mmHg"},{"visit":"DAY 7 QUARANTINE","visitnum":"4.0","dtc":"2024-04-05","value":"70.4","unit":"mmHg"},{"visit":"DAY 14 DISCHARGE","visitnum":"5.0","dtc":"2024-04-13","value":"68.7","unit":"mmHg"},{"visit":"DAY 28 FU","visitnum":"6.0","dtc":"2024-04-27","value":"70.3","unit":"mmHg"},{"visit":"MONTH 3 FU","visitnum":"7.0","dtc":"2024-06-27","value":"67.6","unit":"mmHg"},{"visit":"MONTH 12 FU","visitnum":"9.0","dtc":"2025-04-17","value":"68.8","unit":"mmHg"}],"HEIGHT":[{"visit":"SCREENING","visitnum":"1.0","dtc":"2024-02-24","value":"157.8","unit":"cm"},{"visit":"DAY 1 INOCULATION","visitnum":"2.0","dtc":"2024-03-30","value":"157.1","unit":"cm"},{"visit":"DAY 7 QUARANTINE","visitnum":"4.0","dtc":"2024-04-05","value":"156.4","unit":"cm"},{"visit":"DAY 14 DISCHARGE","visitnum":"5.0","dtc":"2024-04-13","value":"156.6","unit":"cm"},{"visit":"DAY 28 FU","visitnum":"6.0","dtc":"2024-04-27","value":"156.3","unit":"cm"},{"visit":"MONTH 3 FU","visitnum":"7.0","dtc":"2024-06-27","value":"156.5","unit":"cm"},{"visit":"MONTH 12 FU","visitnum":"9.0","dtc":"2025-04-17","value":"156.9","unit":"cm"}],"PULSE":[{"visit":"SCREENING","visitnum":"1.0","dtc":"2024-02-24","value":"50.1","unit":"beats/min"},{"visit":"DAY 1 INOCULATION","visitnum":"2.0","dtc":"2024-03-30","value":"47.1","unit":"beats/min"},{"visit":"DAY 7 QUARANTINE","visitnum":"4.0","dtc":"2024-04-05","value":"44.8","unit":"beats/min"},{"visit":"DAY 14 DISCHARGE","visitnum":"5.0","dtc":"2024-04-13","value":"47.0","unit":"beats/min"},{"visit":"DAY 28 FU","visitnum":"6.0","dtc":"2024-04-27","value":"47.8","unit":"beats/min"},{"visit":"MONTH 3 FU","visitnum":"7.0","dtc":"2024-06-27","value":"50.3","unit":"beats/min"},{"visit":"MONTH 12 FU","visitnum":"9.0","dtc":"2025-04-17","value":"51.1","unit":"beats/min"}],"RESP":[{"visit":"SCREENING","visitnum":"1.0","dtc":"2024-02-24","value":"15.7","unit":"breaths/min"},{"visit":"DAY 1 INOCULATION","visitnum":"2.0","dtc":"2024-03-30","value":"17.8","unit":"breaths/min"},{"visit":"DAY 7 QUARANTINE","visitnum":"4.0","dtc":"2024-04-05","value":"16.7","unit":"breaths/min"},{"visit":"DAY 14 DISCHARGE","visitnum":"5.0","dtc":"2024-04-13","value":"17.0","unit":"breaths/min"},{"visit":"DAY 28 FU","visitnum":"6.0","dtc":"2024-04-27","value":"14.6","unit":"breaths/min"},{"visit":"MONTH 3 FU","visitnum":"7.0","dtc":"2024-06-27","value":"16.3","unit":"breaths/min"},{"visit":"MONTH 12 FU","visitnum":"9.0","dtc":"2025-04-17","value":"16.1","unit":"breaths/min"}],"SYSBP":[{"visit":"SCREENING","visitnum":"1.0","dtc":"2024-02-24","value":"125.5","unit":"mmHg"},{"visit":"DAY 1 INOCULATION","visitnum":"2.0","dtc":"2024-03-30","value":"123.8","unit":"mmHg"},{"visit":"DAY 7 QUARANTINE","visitnum":"4.0","dtc":"2024-04-05","value":"121.1","unit":"mmHg"},{"visit":"DAY 14 DISCHARGE","visitnum":"5.0","dtc":"2024-04-13","value":"118.8","unit":"mmHg"},{"visit":"DAY 28 FU","visitnum":"6.0","dtc":"2024-04-27","value":"121.5","unit":"mmHg"},{"visit":"MONTH 3 FU","visitnum":"7.0","dtc":"2024-06-27","value":"117.6","unit":"mmHg"},{"visit":"MONTH 12 FU","visitnum":"9.0","dtc":"2025-04-17","value":"121.4","unit":"mmHg"}],"TEMP":[{"visit":"SCREENING","visitnum":"1.0","dtc":"2024-02-24","value":"36.7","unit":"C"},{"visit":"DAY 1 INOCULATION","visitnum":"2.0","dtc":"2024-03-30","value":"36.9","unit":"C"},{"visit":"DAY 7 QUARANTINE","visitnum":"4.0","dtc":"2024-04-05","value":"36.8","unit":"C"},{"visit":"DAY 14 DISCHARGE","visitnum":"5.0","dtc":"2024-04-13","value":"36.8","unit":"C"},{"visit":"DAY 28 FU","visitnum":"6.0","dtc":"2024-04-27","value":"36.5","unit":"C"},{"visit":"MONTH 3 FU","visitnum":"7.0","dtc":"2024-06-27","value":"36.7","unit":"C"},{"visit":"MONTH 12 FU","visitnum":"9.0","dtc":"2025-04-17","value":"36.5","unit":"C"}],"WEIGHT":[{"visit":"SCREENING","visitnum":"1.0","dtc":"2024-02-24","value":"51.8","unit":"kg"},{"visit":"DAY 1 INOCULATION","visitnum":"2.0","dtc":"2024-03-30","value":"53.4","unit":"kg"},{"visit":"DAY 7 QUARANTINE","visitnum":"4.0","dtc":"2024-04-05","value":"50.1","unit":"kg"},{"visit":"DAY 14 DISCHARGE","visitnum":"5.0","dtc":"2024-04-13","value":"52.0","unit":"kg"},{"visit":"DAY 28 FU","visitnum":"6.0","dtc":"2024-04-27","value":"53.5","unit":"kg"},{"visit":"MONTH 3 FU","visitnum":"7.0","dtc":"2024-06-27","value":"50.7","unit":"kg"},{"visit":"MONTH 12 FU","visitnum":"9.0","dtc":"2025-04-17","value":"52.1","unit":"kg"}]},"results":[{"seq":"1","testcd":"BMI","test":"BMI","cat":null,"orres":null,"orresu":null,"stresc":"20.8","stresn":"20.8","stresu":"kg/m2","stnrlo":null,"stnrhi":null,"nrind":null,"pos":null,"loc":null,"dtc":"2024-02-24","dy":"-35","visit":"SCREENING","visitnum":"1.0","epoch":"SCREENING"},{"seq":"2","testcd":"DIABP","test":"Diastolic Blood Pressure","cat":null,"orres":"72.2","orresu":"mmHg","stresc":"72.2","stresn":"72.2","stresu":"mmHg","stnrlo":null,"stnrhi":null,"nrind":null,"pos":null,"loc":null,"dtc":"2024-02-24","dy":"-35","visit":"SCREENING","visitnum":"1.0","epoch":"SCREENING"},{"seq":"3","testcd":"HEIGHT","test":"Height","cat":null,"orres":"157.8","orresu":"cm","stresc":"157.8","stresn":"157.8","stresu":"cm","stnrlo":null,"stnrhi":null,"nrind":null,"pos":null,"loc":null,"dtc":"2024-02-24","dy":"-35","visit":"SCREENING","visitnum":"1.0","epoch":"SCREENING"},{"seq":"4","testcd":"PULSE","test":"Pulse Rate","cat":null,"orres":"50.1","orresu":"beats/min","stresc":"50.1","stresn":"50.1","stresu":"beats/min","stnrlo":null,"stnrhi":null,"nrind":null,"pos":null,"loc":null,"dtc":"2024-02-24","dy":"-35","visit":"SCREENING","visitnum":"1.0","epoch":"SCREENING"},{"seq":"5","testcd":"RESP","test":"Respiratory Rate","cat":null,"orres":"15.7","orresu":"breaths/min","stresc":"15.7","stresn":"15.7","stresu":"breaths/min","stnrlo":null,"stnrhi":null,"nrind":null,"pos":null,"loc":null,"dtc":"2024-02-24","dy":"-35","visit":"SCREENING","visitnum":"1.0","epoch":"SCREENING"},{"seq":"6","testcd":"SYSBP","test":"Systolic Blood Pressure","cat":null,"orres":"125.5","orresu":"mmHg","stresc":"125.5","stresn":"125.5","stresu":"mmHg","stnrlo":null,"stnrhi":null,"nrind":null,"pos":null,"loc":null,"dtc":"2024-02-24","dy":"-35","visit":"SCREENING","visitnum":"1.0","epoch":"SCREENING"},{"seq":"7","testcd":"TEMP","test":"Temperature","cat":null,"orres":"36.7","orresu":"C","stresc":"36.7","stresn":"36.7","stresu":"C","stnrlo":null,"stnrhi":null,"nrind":null,"pos":null,"loc":null,"dtc":"2024-02-24","dy":"-35","visit":"SCREENING","visitnum":"1.0","epoch":"SCREENING"},{"seq":"8","testcd":"WEIGHT","test":"Weight","cat":null,"orres":"51.8","orresu":"kg","stresc":"51.8","stresn":"51.8","stresu":"kg","stnrlo":null,"stnrhi":null,"nrind":null,"pos":null,"loc":null,"dtc":"2024-02-24","dy":"-35","visit":"SCREENING","visitnum":"1.0","epoch":"SCREENING"},{"seq":"9","testcd":"BMI","test":"BMI","cat":null,"orres":null,"orresu":null,"stresc":"21.6","stresn":"21.6","stresu":"kg/m2","stnrlo":null,"stnrhi":null,"nrind":null,"pos":null,"loc":null,"dtc":"2024-03-30","dy":"1","visit":"DAY 1 INOCULATION","visitnum":"2.0","epoch":"TREATMENT"},{"seq":"10","testcd":"DIABP","test":"Diastolic Blood Pressure","cat":null,"orres":"72.6","orresu":"mmHg","stresc":"72.6","stresn":"72.6","stresu":"mmHg","stnrlo":null,"stnrhi":null,"nrind":null,"pos":null,"loc":null,"dtc":"2024-03-30","dy":"1","visit":"DAY 1 INOCULATION","visitnum":"2.0","epoch":"TREATMENT"},{"seq":"11","testcd":"HEIGHT","test":"Height","cat":null,"orres":"157.1","orresu":"cm","stresc":"157.1","stresn":"157.1","stresu":"cm","stnrlo":null,"stnrhi":null,"nrind":null,"pos":null,"loc":null,"dtc":"2024-03-30","dy":"1","visit":"DAY 1 INOCULATION","visitnum":"2.0","epoch":"TREATMENT"},{"seq":"12","testcd":"PULSE","test":"Pulse Rate","cat":null,"orres":"47.1","orresu":"beats/min","stresc":"47.1","stresn":"47.1","stresu":"beats/min","stnrlo":null,"stnrhi":null,"nrind":null,"pos":null,"loc":null,"dtc":"2024-03-30","dy":"1","visit":"DAY 1 INOCULATION","visitnum":"2.0","epoch":"TREATMENT"},{"seq":"13","testcd":"RESP","test":"Respiratory Rate","cat":null,"orres":"17.8","orresu":"breaths/min","stresc":"17.8","stresn":"17.8","stresu":"breaths/min","stnrlo":null,"stnrhi":null,"nrind":null,"pos":null,"loc":null,"dtc":"2024-03-30","dy":"1","visit":"DAY 1 INOCULATION","visitnum":"2.0","epoch":"TREATMENT"},{"seq":"14","testcd":"SYSBP","test":"Systolic Blood Pressure","cat":null,"orres":"123.8","orresu":"mmHg","stresc":"123.8","stresn":"123.8","stresu":"mmHg","stnrlo":null,"stnrhi":null,"nrind":null,"pos":null,"loc":null,"dtc":"2024-03-30","dy":"1","visit":"DAY 1 INOCULATION","visitnum":"2.0","epoch":"TREATMENT"},{"seq":"15","testcd":"TEMP","test":"Temperature","cat":null,"orres":"36.9","orresu":"C","stresc":"36.9","stresn":"36.9","stresu":"C","stnrlo":null,"stnrhi":null,"nrind":null,"pos":null,"loc":null,"dtc":"2024-03-30","dy":"1","visit":"DAY 1 INOCULATION","visitnum":"2.0","epoch":"TREATMENT"},{"seq":"16","testcd":"WEIGHT","test":"Weight","cat":null,"orres":"53.4","orresu":"kg","stresc":"53.4","stresn":"53.4","stresu":"kg","stnrlo":null,"stnrhi":null,"nrind":null,"pos":null,"loc":null,"dtc":"2024-03-30","dy":"1","visit":"DAY 1 INOCULATION","visitnum":"2.0","epoch":"TREATMENT"},{"seq":"17","testcd":"BMI","test":"BMI","cat":null,"orres":null,"orresu":null,"stresc":"20.5","stresn":"20.5","stresu":"kg/m2","stnrlo":null,"stnrhi":null,"nrind":null,"pos":null,"loc":null,"dtc":"2024-04-05","dy":"7","visit":"DAY 7 QUARANTINE","visitnum":"4.0","epoch":"QUARANTINE"},{"seq":"18","testcd":"DIABP","test":"Diastolic Blood Pressure","cat":null,"orres":"70.4","orresu":"mmHg","stresc":"70.4","stresn":"70.4","stresu":"mmHg","stnrlo":null,"stnrhi":null,"nrind":null,"pos":null,"loc":null,"dtc":"2024-04-05","dy":"7","visit":"DAY 7 QUARANTINE","visitnum":"4.0","epoch":"QUARANTINE"},{"seq":"19","testcd":"HEIGHT","test":"Height","cat":null,"orres":"156.4","orresu":"cm","stresc":"156.4","stresn":"156.4","stresu":"cm","stnrlo":null,"stnrhi":null,"nrind":null,"pos":null,"loc":null,"dtc":"2024-04-05","dy":"7","visit":"DAY 7 QUARANTINE","visitnum":"4.0","epoch":"QUARANTINE"},{"seq":"20","testcd":"PULSE","test":"Pulse Rate","cat":null,"orres":"44.8","orresu":"beats/min","stresc":"44.8","stresn":"44.8","stresu":"beats/min","stnrlo":null,"stnrhi":null,"nrind":null,"pos":null,"loc":null,"dtc":"2024-04-05","dy":"7","visit":"DAY 7 QUARANTINE","visitnum":"4.0","epoch":"QUARANTINE"},{"seq":"21","testcd":"RESP","test":"Respiratory Rate","cat":null,"orres":"16.7","orresu":"breaths/min","stresc":"16.7","stresn":"16.7","stresu":"breaths/min","stnrlo":null,"stnrhi":null,"nrind":null,"pos":null,"loc":null,"dtc":"2024-04-05","dy":"7","visit":"DAY 7 QUARANTINE","visitnum":"4.0","epoch":"QUARANTINE"},{"seq":"22","testcd":"SYSBP","test":"Systolic Blood Pressure","cat":null,"orres":"121.1","orresu":"mmHg","stresc":"121.1","stresn":"121.1","stresu":"mmHg","stnrlo":null,"stnrhi":null,"nrind":null,"pos":null,"loc":null,"dtc":"2024-04-05","dy":"7","visit":"DAY 7 QUARANTINE","visitnum":"4.0","epoch":"QUARANTINE"},{"seq":"23","testcd":"TEMP","test":"Temperature","cat":null,"orres":"36.8","orresu":"C","stresc":"36.8","stresn":"36.8","stresu":"C","stnrlo":null,"stnrhi":null,"nrind":null,"pos":null,"loc":null,"dtc":"2024-04-05","dy":"7","visit":"DAY 7 QUARANTINE","visitnum":"4.0","epoch":"QUARANTINE"},{"seq":"24","testcd":"WEIGHT","test":"Weight","cat":null,"orres":"50.1","orresu":"kg","stresc":"50.1","stresn":"50.1","stresu":"kg","stnrlo":null,"stnrhi":null,"nrind":null,"pos":null,"loc":null,"dtc":"2024-04-05","dy":"7","visit":"DAY 7 QUARANTINE","visitnum":"4.0","epoch":"QUARANTINE"},{"seq":"25","testcd":"BMI","test":"BMI","cat":null,"orres":null,"orresu":null,"stresc":"21.2","stresn":"21.2","stresu":"kg/m2","stnrlo":null,"stnrhi":null,"nrind":null,"pos":null,"loc":null,"dtc":"2024-04-13","dy":"15","visit":"DAY 14 DISCHARGE","visitnum":"5.0","epoch":"QUARANTINE"},{"seq":"26","testcd":"DIABP","test":"Diastolic Blood Pressure","cat":null,"orres":"68.7","orresu":"mmHg","stresc":"68.7","stresn":"68.7","stresu":"mmHg","stnrlo":null,"stnrhi":null,"nrind":null,"pos":null,"loc":null,"dtc":"2024-04-13","dy":"15","visit":"DAY 14 DISCHARGE","visitnum":"5.0","epoch":"QUARANTINE"},{"seq":"27","testcd":"HEIGHT","test":"Height","cat":null,"orres":"156.6","orresu":"cm","stresc":"156.6","stresn":"156.6","stresu":"cm","stnrlo":null,"stnrhi":null,"nrind":null,"pos":null,"loc":null,"dtc":"2024-04-13","dy":"15","visit":"DAY 14 DISCHARGE","visitnum":"5.0","epoch":"QUARANTINE"},{"seq":"28","testcd":"PULSE","test":"Pulse Rate","cat":null,"orres":"47.0","orresu":"beats/min","stresc":"47.0","stresn":"47.0","stresu":"beats/min","stnrlo":null,"stnrhi":null,"nrind":null,"pos":null,"loc":null,"dtc":"2024-04-13","dy":"15","visit":"DAY 14 DISCHARGE","visitnum":"5.0","epoch":"QUARANTINE"},{"seq":"29","testcd":"RESP","test":"Respiratory Rate","cat":null,"orres":"17.0","orresu":"breaths/min","stresc":"17.0","stresn":"17.0","stresu":"breaths/min","stnrlo":null,"stnrhi":null,"nrind":null,"pos":null,"loc":null,"dtc":"2024-04-13","dy":"15","visit":"DAY 14 DISCHARGE","visitnum":"5.0","epoch":"QUARANTINE"},{"seq":"30","testcd":"SYSBP","test":"Systolic Blood Pressure","cat":null,"orres":"118.8","orresu":"mmHg","stresc":"118.8","stresn":"118.8","stresu":"mmHg","stnrlo":null,"stnrhi":null,"nrind":null,"pos":null,"loc":null,"dtc":"2024-04-13","dy":"15","visit":"DAY 14 DISCHARGE","visitnum":"5.0","epoch":"QUARANTINE"},{"seq":"31","testcd":"TEMP","test":"Temperature","cat":null,"orres":"36.8","orresu":"C","stresc":"36.8","stresn":"36.8","stresu":"C","stnrlo":null,"stnrhi":null,"nrind":null,"pos":null,"loc":null,"dtc":"2024-04-13","dy":"15","visit":"DAY 14 DISCHARGE","visitnum":"5.0","epoch":"QUARANTINE"},{"seq":"32","testcd":"WEIGHT","test":"Weight","cat":null,"orres":"52.0","orresu":"kg","stresc":"52.0","stresn":"52.0","stresu":"kg","stnrlo":null,"stnrhi":null,"nrind":null,"pos":null,"loc":null,"dtc":"2024-04-13","dy":"15","visit":"DAY 14 DISCHARGE","visitnum":"5.0","epoch":"QUARANTINE"},{"seq":"33","testcd":"BMI","test":"BMI","cat":null,"orres":null,"orresu":null,"stresc":"21.9","stresn":"21.9","stresu":"kg/m2","stnrlo":null,"stnrhi":null,"nrind":null,"pos":null,"loc":null,"dtc":"2024-04-27","dy":"29","visit":"DAY 28 FU","visitnum":"6.0","epoch":"FOLLOW-UP"},{"seq":"34","testcd":"DIABP","test":"Diastolic Blood Pressure","cat":null,"orres":"70.3","orresu":"mmHg","stresc":"70.3","stresn":"70.3","stresu":"mmHg","stnrlo":null,"stnrhi":null,"nrind":null,"pos":null,"loc":null,"dtc":"2024-04-27","dy":"29","visit":"DAY 28 FU","visitnum":"6.0","epoch":"FOLLOW-UP"},{"seq":"35","testcd":"HEIGHT","test":"Height","cat":null,"orres":"156.3","orresu":"cm","stresc":"156.3","stresn":"156.3","stresu":"cm","stnrlo":null,"stnrhi":null,"nrind":null,"pos":null,"loc":null,"dtc":"2024-04-27","dy":"29","visit":"DAY 28 FU","visitnum":"6.0","epoch":"FOLLOW-UP"},{"seq":"36","testcd":"PULSE","test":"Pulse Rate","cat":null,"orres":"47.8","orresu":"beats/min","stresc":"47.8","stresn":"47.8","stresu":"beats/min","stnrlo":null,"stnrhi":null,"nrind":null,"pos":null,"loc":null,"dtc":"2024-04-27","dy":"29","visit":"DAY 28 FU","visitnum":"6.0","epoch":"FOLLOW-UP"},{"seq":"37","testcd":"RESP","test":"Respiratory Rate","cat":null,"orres":"14.6","orresu":"breaths/min","stresc":"14.6","stresn":"14.6","stresu":"breaths/min","stnrlo":null,"stnrhi":null,"nrind":null,"pos":null,"loc":null,"dtc":"2024-04-27","dy":"29","visit":"DAY 28 FU","visitnum":"6.0","epoch":"FOLLOW-UP"},{"seq":"38","testcd":"SYSBP","test":"Systolic Blood Pressure","cat":null,"orres":"121.5","orresu":"mmHg","stresc":"121.5","stresn":"121.5","stresu":"mmHg","stnrlo":null,"stnrhi":null,"nrind":null,"pos":null,"loc":null,"dtc":"2024-04-27","dy":"29","visit":"DAY 28 FU","visitnum":"6.0","epoch":"FOLLOW-UP"},{"seq":"39","testcd":"TEMP","test":"Temperature","cat":null,"orres":"36.5","orresu":"C","stresc":"36.5","stresn":"36.5","stresu":"C","stnrlo":null,"stnrhi":null,"nrind":null,"pos":null,"loc":null,"dtc":"2024-04-27","dy":"29","visit":"DAY 28 FU","visitnum":"6.0","epoch":"FOLLOW-UP"},{"seq":"40","testcd":"WEIGHT","test":"Weight","cat":null,"orres":"53.5","orresu":"kg","stresc":"53.5","stresn":"53.5","stresu":"kg","stnrlo":null,"stnrhi":null,"nrind":null,"pos":null,"loc":null,"dtc":"2024-04-27","dy":"29","visit":"DAY 28 FU","visitnum":"6.0","epoch":"FOLLOW-UP"},{"seq":"41","testcd":"BMI","test":"BMI","cat":null,"orres":null,"orresu":null,"stresc":"20.7","stresn":"20.7","stresu":"kg/m2","stnrlo":null,"stnrhi":null,"nrind":null,"pos":null,"loc":null,"dtc":"2024-06-27","dy":"90","visit":"MONTH 3 FU","visitnum":"7.0","epoch":"FOLLOW-UP"},{"seq":"42","testcd":"DIABP","test":"Diastolic Blood Pressure","cat":null,"orres":"67.6","orresu":"mmHg","stresc":"67.6","stresn":"67.6","stresu":"mmHg","stnrlo":null,"stnrhi":null,"nrind":null,"pos":null,"loc":null,"dtc":"2024-06-27","dy":"90","visit":"MONTH 3 FU","visitnum":"7.0","epoch":"FOLLOW-UP"},{"seq":"43","testcd":"HEIGHT","test":"Height","cat":null,"orres":"156.5","orresu":"cm","stresc":"156.5","stresn":"156.5","stresu":"cm","stnrlo":null,"stnrhi":null,"nrind":null,"pos":null,"loc":null,"dtc":"2024-06-27","dy":"90","visit":"MONTH 3 FU","visitnum":"7.0","epoch":"FOLLOW-UP"},{"seq":"44","testcd":"PULSE","test":"Pulse Rate","cat":null,"orres":"50.3","orresu":"beats/min","stresc":"50.3","stresn":"50.3","stresu":"beats/min","stnrlo":null,"stnrhi":null,"nrind":null,"pos":null,"loc":null,"dtc":"2024-06-27","dy":"90","visit":"MONTH 3 FU","visitnum":"7.0","epoch":"FOLLOW-UP"},{"seq":"45","testcd":"RESP","test":"Respiratory Rate","cat":null,"orres":"16.3","orresu":"breaths/min","stresc":"16.3","stresn":"16.3","stresu":"breaths/min","stnrlo":null,"stnrhi":null,"nrind":null,"pos":null,"loc":null,"dtc":"2024-06-27","dy":"90","visit":"MONTH 3 FU","visitnum":"7.0","epoch":"FOLLOW-UP"},{"seq":"46","testcd":"SYSBP","test":"Systolic Blood Pressure","cat":null,"orres":"117.6","orresu":"mmHg","stresc":"117.6","stresn":"117.6","stresu":"mmHg","stnrlo":null,"stnrhi":null,"nrind":null,"pos":null,"loc":null,"dtc":"2024-06-27","dy":"90","visit":"MONTH 3 FU","visitnum":"7.0","epoch":"FOLLOW-UP"},{"seq":"47","testcd":"TEMP","test":"Temperature","cat":null,"orres":"36.7","orresu":"C","stresc":"36.7","stresn":"36.7","stresu":"C","stnrlo":null,"stnrhi":null,"nrind":null,"pos":null,"loc":null,"dtc":"2024-06-27","dy":"90","visit":"MONTH 3 FU","visitnum":"7.0","epoch":"FOLLOW-UP"},{"seq":"48","testcd":"WEIGHT","test":"Weight","cat":null,"orres":"50.7","orresu":"kg","stresc":"50.7","stresn":"50.7","stresu":"kg","stnrlo":null,"stnrhi":null,"nrind":null,"pos":null,"loc":null,"dtc":"2024-06-27","dy":"90","visit":"MONTH 3 FU","visitnum":"7.0","epoch":"FOLLOW-UP"},{"seq":"49","testcd":"BMI","test":"BMI","cat":null,"orres":null,"orresu":null,"stresc":"21.2","stresn":"21.2","stresu":"kg/m2","stnrlo":null,"stnrhi":null,"nrind":null,"pos":null,"loc":null,"dtc":"2025-04-17","dy":"384","visit":"MONTH 12 FU","visitnum":"9.0","epoch":"FOLLOW-UP"},{"seq":"50","testcd":"DIABP","test":"Diastolic Blood Pressure","cat":null,"orres":"68.8","orresu":"mmHg","stresc":"68.8","stresn":"68.8","stresu":"mmHg","stnrlo":null,"stnrhi":null,"nrind":null,"pos":null,"loc":null,"dtc":"2025-04-17","dy":"384","visit":"MONTH 12 FU","visitnum":"9.0","epoch":"FOLLOW-UP"},{"seq":"51","testcd":"HEIGHT","test":"Height","cat":null,"orres":"156.9","orresu":"cm","stresc":"156.9","stresn":"156.9","stresu":"cm","stnrlo":null,"stnrhi":null,"nrind":null,"pos":null,"loc":null,"dtc":"2025-04-17","dy":"384","visit":"MONTH 12 FU","visitnum":"9.0","epoch":"FOLLOW-UP"},{"seq":"52","testcd":"PULSE","test":"Pulse Rate","cat":null,"orres":"51.1","orresu":"beats/min","stresc":"51.1","stresn":"51.1","stresu":"beats/min","stnrlo":null,"stnrhi":null,"nrind":null,"pos":null,"loc":null,"dtc":"2025-04-17","dy":"384","visit":"MONTH 12 FU","visitnum":"9.0","epoch":"FOLLOW-UP"},{"seq":"53","testcd":"RESP","test":"Respiratory Rate","cat":null,"orres":"16.1","orresu":"breaths/min","stresc":"16.1","stresn":"16.1","stresu":"breaths/min","stnrlo":null,"stnrhi":null,"nrind":null,"pos":null,"loc":null,"dtc":"2025-04-17","dy":"384","visit":"MONTH 12 FU","visitnum":"9.0","epoch":"FOLLOW-UP"},{"seq":"54","testcd":"SYSBP","test":"Systolic Blood Pressure","cat":null,"orres":"121.4","orresu":"mmHg","stresc":"121.4","stresn":"121.4","stresu":"mmHg","stnrlo":null,"stnrhi":null,"nrind":null,"pos":null,"loc":null,"dtc":"2025-04-17","dy":"384","visit":"MONTH 12 FU","visitnum":"9.0","epoch":"FOLLOW-UP"},{"seq":"55","testcd":"TEMP","test":"Temperature","cat":null,"orres":"36.5","orresu":"C","stresc":"36.5","stresn":"36.5","stresu":"C","stnrlo":null,"stnrhi":null,"nrind":null,"pos":null,"loc":null,"dtc":"2025-04-17","dy":"384","visit":"MONTH 12 FU","visitnum":"9.0","epoch":"FOLLOW-UP"},{"seq":"56","testcd":"WEIGHT","test":"Weight","cat":null,"orres":"52.1","orresu":"kg","stresc":"52.1","stresn":"52.1","stresu":"kg","stnrlo":null,"stnrhi":null,"nrind":null,"pos":null,"loc":null,"dtc":"2025-04-17","dy":"384","visit":"MONTH 12 FU","visitnum":"9.0","epoch":"FOLLOW-UP"}]},"section_10_questionnaires_and_scores":{"questionnaires":[],"findings_about":[]},"section_11_protocol_deviations":{"deviations":[{"seq":"1","term":"Visit DAY 28 FU occurred 1 days late (Day 29 vs planned Day 28)","decod":"VISIT OCCURRED OUTSIDE VISIT WINDOW","cat":"MINOR","scat":"VISIT WINDOW","start_dtc":"2024-04-27","end_dtc":null,"visit":null}],"total":1},"section_12_disposition":{"completion_status":"COMPLETED","disposition_records":[{"seq":"1","term":"INFORMED CONSENT OBTAINED","decod":"INFORMED CONSENT OBTAINED","cat":"PROTOCOL MILESTONE","scat":null,"dtc":"2024-03-10","dy":null,"visit":null,"epoch":"SCREENING"},{"seq":"2","term":"RANDOMIZED","decod":"RANDOMIZED","cat":"PROTOCOL MILESTONE","scat":null,"dtc":"2024-03-30","dy":null,"visit":null,"epoch":"TREATMENT"},{"seq":"3","term":"COMPLETED","decod":"COMPLETED","cat":"DISPOSITION EVENT","scat":null,"dtc":"2025-04-26","dy":null,"visit":null,"epoch":"FOLLOW-UP"}],"death":null},"section_13_hospitalizations":{"items":[],"total":0},"section_14_substance_use":{"items":[{"seq":"1","substance":"BEER/WINE/SPIRITS","decod":"ETHANOL","cat":"ALCOHOL","scat":null,"usage":"N","dose":null,"dosu":null,"freq":null,"start_dtc":null,"end_dtc":null},{"seq":"2","substance":"COFFEE","decod":"COFFEE","cat":"CAFFEINE","scat":null,"usage":"Y","dose":"4.0","dosu":"CUPS/DAY","freq":"QD","start_dtc":"1999-03-17","end_dtc":null},{"seq":"3","substance":"CIGARETTES","decod":"CIGARETTES","cat":"TOBACCO","scat":null,"usage":"Y","dose":"28.0","dosu":"CIGARETTES/DAY","freq":"QD","start_dtc":"2007-03-15","end_dtc":null}],"total":3},"section_15_subject_status":{"items":[{"seq":"1","testcd":"SURVSTAT","test":"Survival Status","orres":"ALIVE","stresc":"ALIVE","dtc":"2025-04-26","visit":null,"epoch":"FOLLOW-UP"}],"total":1}}