{"subject_id":"COVHIC001-CHALLENGE-UK_ICL_HVIVO01-0012","study_id":"COVHIC001-CHALLENGE","generated_at":"2026-07-07T05:03:09.439814+00:00","sdtmig_version":"3.4","flags":{"has_serious_ae":false,"has_fatal_ae":false,"has_protocol_deviation":true,"n_protocol_deviations":1,"n_adverse_events":1,"n_concomitant_meds":2,"max_ae_severity":"MILD","screen_failure":false,"discontinued_early":false,"discontinuation_reason":null,"death":false,"exposure_days":5},"timeline":[{"dtc":"2023-12-30","dy":"-52","event":"VISIT: SCREENING","domain":"SV","category":"visit"},{"dtc":"2024-01-18","dy":"-33","event":"INFORMED CONSENT OBTAINED","domain":"DS","category":"milestone"},{"dtc":"2024-02-20","dy":"1","event":"RANDOMIZED","domain":"DS","category":"milestone"},{"dtc":"2024-02-20","dy":"1","event":"FIRST DOSE: SARS-COV-2-CHALLENGE","domain":"EX","category":"exposure"},{"dtc":"2024-02-20","dy":"1","event":"VISIT: DAY 1 INOCULATION","domain":"SV","category":"visit"},{"dtc":"2024-02-23","dy":"4","event":"VISIT: DAY 4 QUARANTINE","domain":"SV","category":"visit"},{"dtc":"2024-02-25","dy":"6","event":"LAST DOSE: REMDESIVIR","domain":"EX","category":"exposure"},{"dtc":"2024-02-25","dy":"6","event":"AE: Sore throat (MILD)","domain":"AE","category":"adverse_event"},{"dtc":"2024-02-26","dy":"7","event":"VISIT: DAY 7 QUARANTINE","domain":"SV","category":"visit"},{"dtc":"2024-03-05","dy":"15","event":"VISIT: DAY 14 DISCHARGE","domain":"SV","category":"visit"},{"dtc":"2024-03-17","dy":"27","event":"VISIT: DAY 28 FU","domain":"SV","category":"visit"},{"dtc":"2024-05-14","dy":"85","event":"VISIT: MONTH 3 FU","domain":"SV","category":"visit"},{"dtc":"2024-06-28","dy":"130","event":"CM START: PARACETAMOL","domain":"CM","category":"concomitant_med"},{"dtc":"2024-08-25","dy":"188","event":"VISIT: MONTH 6 FU","domain":"SV","category":"visit"},{"dtc":"2024-11-06","dy":"261","event":"CM START: OMEPRAZOLE","domain":"CM","category":"concomitant_med"},{"dtc":"2025-02-21","dy":"368","event":"DEVIATION: MISSED ASSESSMENT","domain":"DV","category":"deviation"},{"dtc":"2025-02-21","dy":"368","event":"VISIT: MONTH 12 FU","domain":"SV","category":"visit"},{"dtc":"2025-03-18","dy":"393","event":"COMPLETED","domain":"DS","category":"milestone"}],"section_1_demographics":{"usubjid":"COVHIC001-CHALLENGE-UK_ICL_HVIVO01-0012","subjid":"0012","siteid":"UK_ICL_HVIVO01","age":"24","ageu":"YEARS","sex":"F","race":"WHITE","ethnicity":"NOT HISPANIC OR LATINO","country":"GBR","arm":"Dose 1 \u2014 10 TCID50 intranasal SARS-CoV-2 + pre-emptive remdesivir","armcd":"DOSE1","actarm":"Dose 1 \u2014 10 TCID50 intranasal SARS-CoV-2 + pre-emptive remdesivir","actarmcd":"DOSE1","randomization_date":null,"informed_consent_date":"2024-01-18","reference_start_date":"2024-02-20","reference_end_date":"2025-03-18","screen_failure":false,"death_flag":null,"death_date":null,"subject_characteristics":[{"testcd":"ALCUSE","test":"Alcohol Use","orres":"NON-DRINKER","stresc":"NON-DRINKER","visit":null,"dtc":"2024-01-18"},{"testcd":"BMI","test":"Body Mass Index","orres":"24.4","stresc":"24.4","visit":null,"dtc":"2024-01-18"},{"testcd":"TOBUSE","test":"Tobacco Use","orres":"NEVER SMOKED","stresc":"NEVER SMOKED","visit":null,"dtc":"2024-01-18"}]},"section_2_medical_history":{"items":[]},"section_3_inclusion_exclusion":{"criteria":[]},"section_4_trial_participation":{"visits":[{"visitnum":"1.0","visit":"SCREENING","start_dtc":"2023-12-30","end_dtc":"2023-12-30","updes":null},{"visitnum":"2.0","visit":"DAY 1 INOCULATION","start_dtc":"2024-02-20","end_dtc":"2024-02-20","updes":null},{"visitnum":"3.0","visit":"DAY 4 QUARANTINE","start_dtc":"2024-02-23","end_dtc":"2024-02-23","updes":null},{"visitnum":"4.0","visit":"DAY 7 QUARANTINE","start_dtc":"2024-02-26","end_dtc":"2024-02-26","updes":null},{"visitnum":"5.0","visit":"DAY 14 DISCHARGE","start_dtc":"2024-03-05","end_dtc":"2024-03-05","updes":null},{"visitnum":"6.0","visit":"DAY 28 FU","start_dtc":"2024-03-17","end_dtc":"2024-03-17","updes":null},{"visitnum":"7.0","visit":"MONTH 3 FU","start_dtc":"2024-05-14","end_dtc":"2024-05-14","updes":null},{"visitnum":"8.0","visit":"MONTH 6 FU","start_dtc":"2024-08-25","end_dtc":"2024-08-25","updes":null},{"visitnum":"9.0","visit":"MONTH 12 FU","start_dtc":"2025-02-21","end_dtc":"2025-02-21","updes":null}],"epochs":[{"seq":"1","etcd":"SCRN","element":"Screening","start_dtc":"2024-01-23","end_dtc":"2024-02-20","updes":null},{"seq":"2","etcd":"INOC","element":"Inoculation + quarantine","start_dtc":"2024-02-20","end_dtc":"2024-03-05","updes":null},{"seq":"3","etcd":"FU","element":"Outpatient follow-up","start_dtc":"2024-03-05","end_dtc":"2025-02-27","updes":null}],"visit_count":9},"section_5_concomitant_medications":{"medications":[{"seq":"1","trt":"PARACETAMOL","decod":"PARACETAMOL","cat":"CONCOMITANT","dose":null,"doseu":null,"dosef":"PRN","route":"ORAL","indication":null,"start_dtc":"2024-06-28","end_dtc":"2024-08-16","ongoing":null,"visit":null},{"seq":"2","trt":"OMEPRAZOLE","decod":"OMEPRAZOLE","cat":"CONCOMITANT","dose":null,"doseu":null,"dosef":"QD","route":"ORAL","indication":null,"start_dtc":"2024-11-06","end_dtc":"2024-12-27","ongoing":null,"visit":null}]},"section_6_exposure":{"exposure_as_administered":[{"seq":"1","trt":"SARS-COV-2-CHALLENGE","dose":"10.0","doseu":null,"dosef":"ONCE","route":"NASAL","lot":null,"start_dtc":"2024-02-20","end_dtc":"2024-02-20","start_dy":"1","end_dy":"1","epoch":"TREATMENT","visit":null},{"seq":"2","trt":"REMDESIVIR","dose":"200.0","doseu":null,"dosef":"ONCE","route":"INTRAVENOUS","lot":null,"start_dtc":"2024-02-22","end_dtc":"2024-02-22","start_dy":"3","end_dy":"3","epoch":"TREATMENT","visit":null},{"seq":"3","trt":"REMDESIVIR","dose":"100.0","doseu":null,"dosef":"QD","route":"INTRAVENOUS","lot":null,"start_dtc":"2024-02-23","end_dtc":"2024-02-25","start_dy":"4","end_dy":"6","epoch":"TREATMENT","visit":null}],"exposure_as_collected":[{"seq":"1","trt":"SARS-COV-2-CHALLENGE","dose":"10.0","doseu":null,"dosef":"ONCE","route":"NASAL","start_dtc":"2024-02-20","end_dtc":"2024-02-20","visit":"DAY 1 INOCULATION"},{"seq":"2","trt":"REMDESIVIR","dose":"200.0","doseu":null,"dosef":"ONCE","route":"INTRAVENOUS","start_dtc":"2024-02-22","end_dtc":"2024-02-22","visit":"DAY 1 INOCULATION"},{"seq":"3","trt":"REMDESIVIR","dose":"100.0","doseu":null,"dosef":"QD","route":"INTRAVENOUS","start_dtc":"2024-02-23","end_dtc":"2024-02-23","visit":"DAY 1 INOCULATION"},{"seq":"4","trt":"REMDESIVIR","dose":"100.0","doseu":null,"dosef":"QD","route":"INTRAVENOUS","start_dtc":"2024-02-24","end_dtc":"2024-02-24","visit":"DAY 4 QUARANTINE"},{"seq":"5","trt":"REMDESIVIR","dose":"100.0","doseu":null,"dosef":"QD","route":"INTRAVENOUS","start_dtc":"2024-02-25","end_dtc":"2024-02-25","visit":"DAY 4 QUARANTINE"}]},"section_7_adverse_events":{"summary":{"total_aes":1,"serious_aes":0,"fatal_aes":0,"by_severity":{"MILD":1},"by_soc":{"Gastrointestinal disorders":1}},"events":[{"seq":"1","term":"SORE THROAT","decod":"Sore throat","llt":"Sore throat","hlt":"Oral soft tissue conditions NEC","hlgt":"Oral soft tissue conditions","soc":"Gastrointestinal disorders","bodsys":"Gastrointestinal disorders","severity":"MILD","serious":"N","causality":"POSSIBLY RELATED","action_taken":"DOSE REDUCED","outcome":"RECOVERED/RESOLVED","fatal":"N","hospitalization":"N","life_threatening":"N","onset_dtc":"2024-02-25","end_dtc":"2024-02-27","onset_dy":"6","end_dy":"8","duration":null,"epoch":"TREATMENT","visit":null,"supplemental":{"AETRTEM":"Y"}}]},"section_8_laboratory_results":{"summary":{"total_records":49,"abnormal_count":5,"abnormal_pct":10.2},"shift_summary":[{"testcd":"ALT","baseline_value":24.35,"baseline_nrind":"NORMAL","worst_post_baseline_value":27.28,"worst_post_baseline_nrind":"NORMAL","worst_visit":"MONTH 3 FU"},{"testcd":"AST","baseline_value":17.31,"baseline_nrind":"NORMAL","worst_post_baseline_value":17.72,"worst_post_baseline_nrind":"NORMAL","worst_visit":"DAY 28 FU"},{"testcd":"CREAT","baseline_value":40.3,"baseline_nrind":"LOW","worst_post_baseline_value":44.4,"worst_post_baseline_nrind":"NORMAL","worst_visit":"DAY 28 FU"},{"testcd":"GLUC","baseline_value":4.81,"baseline_nrind":"NORMAL","worst_post_baseline_value":4.97,"worst_post_baseline_nrind":"NORMAL","worst_visit":"DAY 4 QUARANTINE"},{"testcd":"HGB","baseline_value":128.84,"baseline_nrind":"NORMAL","worst_post_baseline_value":127.53,"worst_post_baseline_nrind":"NORMAL","worst_visit":"DAY 1 INOCULATION"},{"testcd":"PLAT","baseline_value":247.25,"baseline_nrind":"NORMAL","worst_post_baseline_value":247.12,"worst_post_baseline_nrind":"NORMAL","worst_visit":"MONTH 6 FU"},{"testcd":"WBC","baseline_value":9.64,"baseline_nrind":"NORMAL","worst_post_baseline_value":9.25,"worst_post_baseline_nrind":"NORMAL","worst_visit":"MONTH 6 FU"}],"results":[{"seq":"1","testcd":"ALT","test":"Alanine Aminotransferase","cat":"CHEMISTRY","orres":"24.35","orresu":"U/L","stresc":"24.35","stresn":"24.35","stresu":"U/L","stnrlo":"7","stnrhi":"56","nrind":"NORMAL","fast":null,"dtc":"2023-12-30","dy":"-52","visit":"SCREENING","visitnum":"1.0","epoch":"SCREENING","spec":null,"method":null},{"seq":"2","testcd":"AST","test":"Aspartate Aminotransferase","cat":"CHEMISTRY","orres":"17.31","orresu":"U/L","stresc":"17.31","stresn":"17.31","stresu":"U/L","stnrlo":"10","stnrhi":"40","nrind":"NORMAL","fast":null,"dtc":"2023-12-30","dy":"-52","visit":"SCREENING","visitnum":"1.0","epoch":"SCREENING","spec":null,"method":null},{"seq":"3","testcd":"CREAT","test":"Creatinine","cat":"CHEMISTRY","orres":"40.3","orresu":"umol/L","stresc":"40.3","stresn":"40.3","stresu":"umol/L","stnrlo":"44","stnrhi":"80","nrind":"LOW","fast":null,"dtc":"2023-12-30","dy":"-52","visit":"SCREENING","visitnum":"1.0","epoch":"SCREENING","spec":null,"method":null},{"seq":"4","testcd":"GLUC","test":"Glucose","cat":"CHEMISTRY","orres":"4.81","orresu":"mmol/L","stresc":"4.81","stresn":"4.81","stresu":"mmol/L","stnrlo":"3.9","stnrhi":"5.6","nrind":"NORMAL","fast":null,"dtc":"2023-12-30","dy":"-52","visit":"SCREENING","visitnum":"1.0","epoch":"SCREENING","spec":null,"method":null},{"seq":"5","testcd":"HGB","test":"Hemoglobin","cat":"HEMATOLOGY","orres":"128.84","orresu":"g/L","stresc":"128.84","stresn":"128.84","stresu":"g/L","stnrlo":"120","stnrhi":"155","nrind":"NORMAL","fast":null,"dtc":"2023-12-30","dy":"-52","visit":"SCREENING","visitnum":"1.0","epoch":"SCREENING","spec":null,"method":null},{"seq":"6","testcd":"PLAT","test":"Platelets","cat":"HEMATOLOGY","orres":"247.25","orresu":"10^9/L","stresc":"247.25","stresn":"247.25","stresu":"10^9/L","stnrlo":"150","stnrhi":"400","nrind":"NORMAL","fast":null,"dtc":"2023-12-30","dy":"-52","visit":"SCREENING","visitnum":"1.0","epoch":"SCREENING","spec":null,"method":null},{"seq":"7","testcd":"WBC","test":"Leukocytes","cat":"HEMATOLOGY","orres":"9.64","orresu":"10^9/L","stresc":"9.64","stresn":"9.64","stresu":"10^9/L","stnrlo":"4.0","stnrhi":"11.0","nrind":"NORMAL","fast":null,"dtc":"2023-12-30","dy":"-52","visit":"SCREENING","visitnum":"1.0","epoch":"SCREENING","spec":null,"method":null},{"seq":"8","testcd":"ALT","test":"Alanine Aminotransferase","cat":"CHEMISTRY","orres":"25.09","orresu":"U/L","stresc":"25.09","stresn":"25.09","stresu":"U/L","stnrlo":"7","stnrhi":"56","nrind":"NORMAL","fast":null,"dtc":"2024-02-20","dy":"1","visit":"DAY 1 INOCULATION","visitnum":"2.0","epoch":"TREATMENT","spec":null,"method":null},{"seq":"9","testcd":"AST","test":"Aspartate Aminotransferase","cat":"CHEMISTRY","orres":null,"orresu":null,"stresc":null,"stresn":null,"stresu":null,"stnrlo":null,"stnrhi":null,"nrind":null,"fast":null,"dtc":"2024-02-20","dy":"1","visit":"DAY 1 INOCULATION","visitnum":"2.0","epoch":"TREATMENT","spec":null,"method":null},{"seq":"10","testcd":"CREAT","test":"Creatinine","cat":"CHEMISTRY","orres":"42.0","orresu":"umol/L","stresc":"42.0","stresn":"42.0","stresu":"umol/L","stnrlo":"44","stnrhi":"80","nrind":"LOW","fast":null,"dtc":"2024-02-20","dy":"1","visit":"DAY 1 INOCULATION","visitnum":"2.0","epoch":"TREATMENT","spec":null,"method":null},{"seq":"11","testcd":"GLUC","test":"Glucose","cat":"CHEMISTRY","orres":"4.96","orresu":"mmol/L","stresc":"4.96","stresn":"4.96","stresu":"mmol/L","stnrlo":"3.9","stnrhi":"5.6","nrind":"NORMAL","fast":null,"dtc":"2024-02-20","dy":"1","visit":"DAY 1 INOCULATION","visitnum":"2.0","epoch":"TREATMENT","spec":null,"method":null},{"seq":"12","testcd":"HGB","test":"Hemoglobin","cat":"HEMATOLOGY","orres":"127.53","orresu":"g/L","stresc":"127.53","stresn":"127.53","stresu":"g/L","stnrlo":"120","stnrhi":"155","nrind":"NORMAL","fast":null,"dtc":"2024-02-20","dy":"1","visit":"DAY 1 INOCULATION","visitnum":"2.0","epoch":"TREATMENT","spec":null,"method":null},{"seq":"13","testcd":"PLAT","test":"Platelets","cat":"HEMATOLOGY","orres":"236.04","orresu":"10^9/L","stresc":"236.04","stresn":"236.04","stresu":"10^9/L","stnrlo":"150","stnrhi":"400","nrind":"NORMAL","fast":null,"dtc":"2024-02-20","dy":"1","visit":"DAY 1 INOCULATION","visitnum":"2.0","epoch":"TREATMENT","spec":null,"method":null},{"seq":"14","testcd":"WBC","test":"Leukocytes","cat":"HEMATOLOGY","orres":"8.72","orresu":"10^9/L","stresc":"8.72","stresn":"8.72","stresu":"10^9/L","stnrlo":"4.0","stnrhi":"11.0","nrind":"NORMAL","fast":null,"dtc":"2024-02-20","dy":"1","visit":"DAY 1 INOCULATION","visitnum":"2.0","epoch":"TREATMENT","spec":null,"method":null},{"seq":"15","testcd":"ALT","test":"Alanine Aminotransferase","cat":"CHEMISTRY","orres":"24.43","orresu":"U/L","stresc":"24.43","stresn":"24.43","stresu":"U/L","stnrlo":"7","stnrhi":"56","nrind":"NORMAL","fast":null,"dtc":"2024-02-23","dy":"4","visit":"DAY 4 QUARANTINE","visitnum":"3.0","epoch":"QUARANTINE","spec":null,"method":null},{"seq":"16","testcd":"AST","test":"Aspartate Aminotransferase","cat":"CHEMISTRY","orres":"17.34","orresu":"U/L","stresc":"17.34","stresn":"17.34","stresu":"U/L","stnrlo":"10","stnrhi":"40","nrind":"NORMAL","fast":null,"dtc":"2024-02-23","dy":"4","visit":"DAY 4 QUARANTINE","visitnum":"3.0","epoch":"QUARANTINE","spec":null,"method":null},{"seq":"17","testcd":"CREAT","test":"Creatinine","cat":"CHEMISTRY","orres":"43.49","orresu":"umol/L","stresc":"43.49","stresn":"43.49","stresu":"umol/L","stnrlo":"44","stnrhi":"80","nrind":"LOW","fast":null,"dtc":"2024-02-23","dy":"4","visit":"DAY 4 QUARANTINE","visitnum":"3.0","epoch":"QUARANTINE","spec":null,"method":null},{"seq":"18","testcd":"GLUC","test":"Glucose","cat":"CHEMISTRY","orres":"4.97","orresu":"mmol/L","stresc":"4.97","stresn":"4.97","stresu":"mmol/L","stnrlo":"3.9","stnrhi":"5.6","nrind":"NORMAL","fast":null,"dtc":"2024-02-23","dy":"4","visit":"DAY 4 QUARANTINE","visitnum":"3.0","epoch":"QUARANTINE","spec":null,"method":null},{"seq":"19","testcd":"HGB","test":"Hemoglobin","cat":"HEMATOLOGY","orres":"128.79","orresu":"g/L","stresc":"128.79","stresn":"128.79","stresu":"g/L","stnrlo":"120","stnrhi":"155","nrind":"NORMAL","fast":null,"dtc":"2024-02-23","dy":"4","visit":"DAY 4 QUARANTINE","visitnum":"3.0","epoch":"QUARANTINE","spec":null,"method":null},{"seq":"20","testcd":"PLAT","test":"Platelets","cat":"HEMATOLOGY","orres":"235.31","orresu":"10^9/L","stresc":"235.31","stresn":"235.31","stresu":"10^9/L","stnrlo":"150","stnrhi":"400","nrind":"NORMAL","fast":null,"dtc":"2024-02-23","dy":"4","visit":"DAY 4 QUARANTINE","visitnum":"3.0","epoch":"QUARANTINE","spec":null,"method":null},{"seq":"21","testcd":"WBC","test":"Leukocytes","cat":"HEMATOLOGY","orres":"9.2","orresu":"10^9/L","stresc":"9.2","stresn":"9.2","stresu":"10^9/L","stnrlo":"4.0","stnrhi":"11.0","nrind":"NORMAL","fast":null,"dtc":"2024-02-23","dy":"4","visit":"DAY 4 QUARANTINE","visitnum":"3.0","epoch":"QUARANTINE","spec":null,"method":null},{"seq":"22","testcd":"ALT","test":"Alanine Aminotransferase","cat":"CHEMISTRY","orres":"26.29","orresu":"U/L","stresc":"26.29","stresn":"26.29","stresu":"U/L","stnrlo":"7","stnrhi":"56","nrind":"NORMAL","fast":null,"dtc":"2024-03-05","dy":"15","visit":"DAY 14 DISCHARGE","visitnum":"5.0","epoch":"QUARANTINE","spec":null,"method":null},{"seq":"23","testcd":"AST","test":"Aspartate Aminotransferase","cat":"CHEMISTRY","orres":null,"orresu":null,"stresc":null,"stresn":null,"stresu":null,"stnrlo":null,"stnrhi":null,"nrind":null,"fast":null,"dtc":"2024-03-05","dy":"15","visit":"DAY 14 DISCHARGE","visitnum":"5.0","epoch":"QUARANTINE","spec":null,"method":null},{"seq":"24","testcd":"CREAT","test":"Creatinine","cat":"CHEMISTRY","orres":"44.28","orresu":"umol/L","stresc":"44.28","stresn":"44.28","stresu":"umol/L","stnrlo":"44","stnrhi":"80","nrind":"NORMAL","fast":null,"dtc":"2024-03-05","dy":"15","visit":"DAY 14 DISCHARGE","visitnum":"5.0","epoch":"QUARANTINE","spec":null,"method":null},{"seq":"25","testcd":"GLUC","test":"Glucose","cat":"CHEMISTRY","orres":"4.93","orresu":"mmol/L","stresc":"4.93","stresn":"4.93","stresu":"mmol/L","stnrlo":"3.9","stnrhi":"5.6","nrind":"NORMAL","fast":null,"dtc":"2024-03-05","dy":"15","visit":"DAY 14 DISCHARGE","visitnum":"5.0","epoch":"QUARANTINE","spec":null,"method":null},{"seq":"26","testcd":"HGB","test":"Hemoglobin","cat":"HEMATOLOGY","orres":"128.38","orresu":"g/L","stresc":"128.38","stresn":"128.38","stresu":"g/L","stnrlo":"120","stnrhi":"155","nrind":"NORMAL","fast":null,"dtc":"2024-03-05","dy":"15","visit":"DAY 14 DISCHARGE","visitnum":"5.0","epoch":"QUARANTINE","spec":null,"method":null},{"seq":"27","testcd":"PLAT","test":"Platelets","cat":"HEMATOLOGY","orres":"234.89","orresu":"10^9/L","stresc":"234.89","stresn":"234.89","stresu":"10^9/L","stnrlo":"150","stnrhi":"400","nrind":"NORMAL","fast":null,"dtc":"2024-03-05","dy":"15","visit":"DAY 14 DISCHARGE","visitnum":"5.0","epoch":"QUARANTINE","spec":null,"method":null},{"seq":"28","testcd":"WBC","test":"Leukocytes","cat":"HEMATOLOGY","orres":"9.07","orresu":"10^9/L","stresc":"9.07","stresn":"9.07","stresu":"10^9/L","stnrlo":"4.0","stnrhi":"11.0","nrind":"NORMAL","fast":null,"dtc":"2024-03-05","dy":"15","visit":"DAY 14 DISCHARGE","visitnum":"5.0","epoch":"QUARANTINE","spec":null,"method":null},{"seq":"29","testcd":"ALT","test":"Alanine Aminotransferase","cat":"CHEMISTRY","orres":"26.43","orresu":"U/L","stresc":"26.43","stresn":"26.43","stresu":"U/L","stnrlo":"7","stnrhi":"56","nrind":"NORMAL","fast":null,"dtc":"2024-03-17","dy":"27","visit":"DAY 28 FU","visitnum":"6.0","epoch":"FOLLOW-UP","spec":null,"method":null},{"seq":"30","testcd":"AST","test":"Aspartate Aminotransferase","cat":"CHEMISTRY","orres":"17.72","orresu":"U/L","stresc":"17.72","stresn":"17.72","stresu":"U/L","stnrlo":"10","stnrhi":"40","nrind":"NORMAL","fast":null,"dtc":"2024-03-17","dy":"27","visit":"DAY 28 FU","visitnum":"6.0","epoch":"FOLLOW-UP","spec":null,"method":null},{"seq":"31","testcd":"CREAT","test":"Creatinine","cat":"CHEMISTRY","orres":"44.4","orresu":"umol/L","stresc":"44.4","stresn":"44.4","stresu":"umol/L","stnrlo":"44","stnrhi":"80","nrind":"NORMAL","fast":null,"dtc":"2024-03-17","dy":"27","visit":"DAY 28 FU","visitnum":"6.0","epoch":"FOLLOW-UP","spec":null,"method":null},{"seq":"32","testcd":"GLUC","test":"Glucose","cat":"CHEMISTRY","orres":"4.9","orresu":"mmol/L","stresc":"4.9","stresn":"4.9","stresu":"mmol/L","stnrlo":"3.9","stnrhi":"5.6","nrind":"NORMAL","fast":null,"dtc":"2024-03-17","dy":"27","visit":"DAY 28 FU","visitnum":"6.0","epoch":"FOLLOW-UP","spec":null,"method":null},{"seq":"33","testcd":"HGB","test":"Hemoglobin","cat":"HEMATOLOGY","orres":"129.36","orresu":"g/L","stresc":"129.36","stresn":"129.36","stresu":"g/L","stnrlo":"120","stnrhi":"155","nrind":"NORMAL","fast":null,"dtc":"2024-03-17","dy":"27","visit":"DAY 28 FU","visitnum":"6.0","epoch":"FOLLOW-UP","spec":null,"method":null},{"seq":"34","testcd":"PLAT","test":"Platelets","cat":"HEMATOLOGY","orres":"241.13","orresu":"10^9/L","stresc":"241.13","stresn":"241.13","stresu":"10^9/L","stnrlo":"150","stnrhi":"400","nrind":"NORMAL","fast":null,"dtc":"2024-03-17","dy":"27","visit":"DAY 28 FU","visitnum":"6.0","epoch":"FOLLOW-UP","spec":null,"method":null},{"seq":"35","testcd":"WBC","test":"Leukocytes","cat":"HEMATOLOGY","orres":"9.08","orresu":"10^9/L","stresc":"9.08","stresn":"9.08","stresu":"10^9/L","stnrlo":"4.0","stnrhi":"11.0","nrind":"NORMAL","fast":null,"dtc":"2024-03-17","dy":"27","visit":"DAY 28 FU","visitnum":"6.0","epoch":"FOLLOW-UP","spec":null,"method":null},{"seq":"36","testcd":"ALT","test":"Alanine Aminotransferase","cat":"CHEMISTRY","orres":"27.28","orresu":"U/L","stresc":"27.28","stresn":"27.28","stresu":"U/L","stnrlo":"7","stnrhi":"56","nrind":"NORMAL","fast":null,"dtc":"2024-05-14","dy":"85","visit":"MONTH 3 FU","visitnum":"7.0","epoch":"FOLLOW-UP","spec":null,"method":null},{"seq":"37","testcd":"AST","test":"Aspartate Aminotransferase","cat":"CHEMISTRY","orres":"17.53","orresu":"U/L","stresc":"17.53","stresn":"17.53","stresu":"U/L","stnrlo":"10","stnrhi":"40","nrind":"NORMAL","fast":null,"dtc":"2024-05-14","dy":"85","visit":"MONTH 3 FU","visitnum":"7.0","epoch":"FOLLOW-UP","spec":null,"method":null},{"seq":"38","testcd":"CREAT","test":"Creatinine","cat":"CHEMISTRY","orres":"42.15","orresu":"umol/L","stresc":"42.15","stresn":"42.15","stresu":"umol/L","stnrlo":"44","stnrhi":"80","nrind":"LOW","fast":null,"dtc":"2024-05-14","dy":"85","visit":"MONTH 3 FU","visitnum":"7.0","epoch":"FOLLOW-UP","spec":null,"method":null},{"seq":"39","testcd":"GLUC","test":"Glucose","cat":"CHEMISTRY","orres":"4.96","orresu":"mmol/L","stresc":"4.96","stresn":"4.96","stresu":"mmol/L","stnrlo":"3.9","stnrhi":"5.6","nrind":"NORMAL","fast":null,"dtc":"2024-05-14","dy":"85","visit":"MONTH 3 FU","visitnum":"7.0","epoch":"FOLLOW-UP","spec":null,"method":null},{"seq":"40","testcd":"HGB","test":"Hemoglobin","cat":"HEMATOLOGY","orres":"132.12","orresu":"g/L","stresc":"132.12","stresn":"132.12","stresu":"g/L","stnrlo":"120","stnrhi":"155","nrind":"NORMAL","fast":null,"dtc":"2024-05-14","dy":"85","visit":"MONTH 3 FU","visitnum":"7.0","epoch":"FOLLOW-UP","spec":null,"method":null},{"seq":"41","testcd":"PLAT","test":"Platelets","cat":"HEMATOLOGY","orres":"246.4","orresu":"10^9/L","stresc":"246.4","stresn":"246.4","stresu":"10^9/L","stnrlo":"150","stnrhi":"400","nrind":"NORMAL","fast":null,"dtc":"2024-05-14","dy":"85","visit":"MONTH 3 FU","visitnum":"7.0","epoch":"FOLLOW-UP","spec":null,"method":null},{"seq":"42","testcd":"WBC","test":"Leukocytes","cat":"HEMATOLOGY","orres":"8.66","orresu":"10^9/L","stresc":"8.66","stresn":"8.66","stresu":"10^9/L","stnrlo":"4.0","stnrhi":"11.0","nrind":"NORMAL","fast":null,"dtc":"2024-05-14","dy":"85","visit":"MONTH 3 FU","visitnum":"7.0","epoch":"FOLLOW-UP","spec":null,"method":null},{"seq":"43","testcd":"ALT","test":"Alanine Aminotransferase","cat":"CHEMISTRY","orres":"26.59","orresu":"U/L","stresc":"26.59","stresn":"26.59","stresu":"U/L","stnrlo":"7","stnrhi":"56","nrind":"NORMAL","fast":null,"dtc":"2024-08-25","dy":"188","visit":"MONTH 6 FU","visitnum":"8.0","epoch":"FOLLOW-UP","spec":null,"method":null},{"seq":"44","testcd":"AST","test":"Aspartate Aminotransferase","cat":"CHEMISTRY","orres":"17.43","orresu":"U/L","stresc":"17.43","stresn":"17.43","stresu":"U/L","stnrlo":"10","stnrhi":"40","nrind":"NORMAL","fast":null,"dtc":"2024-08-25","dy":"188","visit":"MONTH 6 FU","visitnum":"8.0","epoch":"FOLLOW-UP","spec":null,"method":null},{"seq":"45","testcd":"CREAT","test":"Creatinine","cat":"CHEMISTRY","orres":"39.53","orresu":"umol/L","stresc":"39.53","stresn":"39.53","stresu":"umol/L","stnrlo":"44","stnrhi":"80","nrind":"LOW","fast":null,"dtc":"2024-08-25","dy":"188","visit":"MONTH 6 FU","visitnum":"8.0","epoch":"FOLLOW-UP","spec":null,"method":null},{"seq":"46","testcd":"GLUC","test":"Glucose","cat":"CHEMISTRY","orres":"4.93","orresu":"mmol/L","stresc":"4.93","stresn":"4.93","stresu":"mmol/L","stnrlo":"3.9","stnrhi":"5.6","nrind":"NORMAL","fast":null,"dtc":"2024-08-25","dy":"188","visit":"MONTH 6 FU","visitnum":"8.0","epoch":"FOLLOW-UP","spec":null,"method":null},{"seq":"47","testcd":"HGB","test":"Hemoglobin","cat":"HEMATOLOGY","orres":"129.04","orresu":"g/L","stresc":"129.04","stresn":"129.04","stresu":"g/L","stnrlo":"120","stnrhi":"155","nrind":"NORMAL","fast":null,"dtc":"2024-08-25","dy":"188","visit":"MONTH 6 FU","visitnum":"8.0","epoch":"FOLLOW-UP","spec":null,"method":null},{"seq":"48","testcd":"PLAT","test":"Platelets","cat":"HEMATOLOGY","orres":"247.12","orresu":"10^9/L","stresc":"247.12","stresn":"247.12","stresu":"10^9/L","stnrlo":"150","stnrhi":"400","nrind":"NORMAL","fast":null,"dtc":"2024-08-25","dy":"188","visit":"MONTH 6 FU","visitnum":"8.0","epoch":"FOLLOW-UP","spec":null,"method":null},{"seq":"49","testcd":"WBC","test":"Leukocytes","cat":"HEMATOLOGY","orres":"9.25","orresu":"10^9/L","stresc":"9.25","stresn":"9.25","stresu":"10^9/L","stnrlo":"4.0","stnrhi":"11.0","nrind":"NORMAL","fast":null,"dtc":"2024-08-25","dy":"188","visit":"MONTH 6 FU","visitnum":"8.0","epoch":"FOLLOW-UP","spec":null,"method":null}]},"section_9_vital_signs":{"summary":{"total_records":64},"trends":{"BMI":[{"visit":"SCREENING","visitnum":"1.0","dtc":"2023-12-30","value":"24.4","unit":"kg/m2"},{"visit":"DAY 1 INOCULATION","visitnum":"2.0","dtc":"2024-02-20","value":"24.9","unit":"kg/m2"},{"visit":"DAY 4 QUARANTINE","visitnum":"3.0","dtc":"2024-02-23","value":"24.7","unit":"kg/m2"},{"visit":"DAY 7 QUARANTINE","visitnum":"4.0","dtc":"2024-02-26","value":"25.2","unit":"kg/m2"},{"visit":"DAY 28 FU","visitnum":"6.0","dtc":"2024-03-17","value":"24.3","unit":"kg/m2"},{"visit":"MONTH 3 FU","visitnum":"7.0","dtc":"2024-05-14","value":"24.4","unit":"kg/m2"},{"visit":"MONTH 6 FU","visitnum":"8.0","dtc":"2024-08-25","value":"25.0","unit":"kg/m2"},{"visit":"MONTH 12 FU","visitnum":"9.0","dtc":"2025-02-21","value":"26.0","unit":"kg/m2"}],"DIABP":[{"visit":"SCREENING","visitnum":"1.0","dtc":"2023-12-30","value":"70.1","unit":"mmHg"},{"visit":"DAY 1 INOCULATION","visitnum":"2.0","dtc":"2024-02-20","value":"70.5","unit":"mmHg"},{"visit":"DAY 4 QUARANTINE","visitnum":"3.0","dtc":"2024-02-23","value":"69.3","unit":"mmHg"},{"visit":"DAY 7 QUARANTINE","visitnum":"4.0","dtc":"2024-02-26","value":"70.1","unit":"mmHg"},{"visit":"DAY 28 FU","visitnum":"6.0","dtc":"2024-03-17","value":"69.3","unit":"mmHg"},{"visit":"MONTH 3 FU","visitnum":"7.0","dtc":"2024-05-14","value":"68.4","unit":"mmHg"},{"visit":"MONTH 6 FU","visitnum":"8.0","dtc":"2024-08-25","value":"70.3","unit":"mmHg"},{"visit":"MONTH 12 FU","visitnum":"9.0","dtc":"2025-02-21","value":"69.7","unit":"mmHg"}],"HEIGHT":[{"visit":"SCREENING","visitnum":"1.0","dtc":"2023-12-30","value":"173.6","unit":"cm"},{"visit":"DAY 1 INOCULATION","visitnum":"2.0","dtc":"2024-02-20","value":"173.4","unit":"cm"},{"visit":"DAY 4 QUARANTINE","visitnum":"3.0","dtc":"2024-02-23","value":"173.5","unit":"cm"},{"visit":"DAY 7 QUARANTINE","visitnum":"4.0","dtc":"2024-02-26","value":"172.8","unit":"cm"},{"visit":"DAY 28 FU","visitnum":"6.0","dtc":"2024-03-17","value":"173.3","unit":"cm"},{"visit":"MONTH 3 FU","visitnum":"7.0","dtc":"2024-05-14","value":"173.4","unit":"cm"},{"visit":"MONTH 6 FU","visitnum":"8.0","dtc":"2024-08-25","value":"173.7","unit":"cm"},{"visit":"MONTH 12 FU","visitnum":"9.0","dtc":"2025-02-21","value":"173.6","unit":"cm"}],"PULSE":[{"visit":"SCREENING","visitnum":"1.0","dtc":"2023-12-30","value":"65.8","unit":"beats/min"},{"visit":"DAY 1 INOCULATION","visitnum":"2.0","dtc":"2024-02-20","value":"65.2","unit":"beats/min"},{"visit":"DAY 4 QUARANTINE","visitnum":"3.0","dtc":"2024-02-23","value":"66.0","unit":"beats/min"},{"visit":"DAY 7 QUARANTINE","visitnum":"4.0","dtc":"2024-02-26","value":"62.9","unit":"beats/min"},{"visit":"DAY 28 FU","visitnum":"6.0","dtc":"2024-03-17","value":"60.7","unit":"beats/min"},{"visit":"MONTH 3 FU","visitnum":"7.0","dtc":"2024-05-14","value":"57.7","unit":"beats/min"},{"visit":"MONTH 6 FU","visitnum":"8.0","dtc":"2024-08-25","value":"59.1","unit":"beats/min"},{"visit":"MONTH 12 FU","visitnum":"9.0","dtc":"2025-02-21","value":"58.0","unit":"beats/min"}],"RESP":[{"visit":"SCREENING","visitnum":"1.0","dtc":"2023-12-30","value":"13.7","unit":"breaths/min"},{"visit":"DAY 1 INOCULATION","visitnum":"2.0","dtc":"2024-02-20","value":"13.5","unit":"breaths/min"},{"visit":"DAY 4 QUARANTINE","visitnum":"3.0","dtc":"2024-02-23","value":"14.1","unit":"breaths/min"},{"visit":"DAY 7 QUARANTINE","visitnum":"4.0","dtc":"2024-02-26","value":"13.9","unit":"breaths/min"},{"visit":"DAY 28 FU","visitnum":"6.0","dtc":"2024-03-17","value":"12.9","unit":"breaths/min"},{"visit":"MONTH 3 FU","visitnum":"7.0","dtc":"2024-05-14","value":"11.9","unit":"breaths/min"},{"visit":"MONTH 6 FU","visitnum":"8.0","dtc":"2024-08-25","value":"13.3","unit":"breaths/min"},{"visit":"MONTH 12 FU","visitnum":"9.0","dtc":"2025-02-21","value":"14.4","unit":"breaths/min"}],"SYSBP":[{"visit":"SCREENING","visitnum":"1.0","dtc":"2023-12-30","value":"127.2","unit":"mmHg"},{"visit":"DAY 1 INOCULATION","visitnum":"2.0","dtc":"2024-02-20","value":"129.1","unit":"mmHg"},{"visit":"DAY 4 QUARANTINE","visitnum":"3.0","dtc":"2024-02-23","value":"128.8","unit":"mmHg"},{"visit":"DAY 7 QUARANTINE","visitnum":"4.0","dtc":"2024-02-26","value":"127.3","unit":"mmHg"},{"visit":"DAY 28 FU","visitnum":"6.0","dtc":"2024-03-17","value":"127.5","unit":"mmHg"},{"visit":"MONTH 3 FU","visitnum":"7.0","dtc":"2024-05-14","value":"124.8","unit":"mmHg"},{"visit":"MONTH 6 FU","visitnum":"8.0","dtc":"2024-08-25","value":"126.8","unit":"mmHg"},{"visit":"MONTH 12 FU","visitnum":"9.0","dtc":"2025-02-21","value":"126.3","unit":"mmHg"}],"TEMP":[{"visit":"SCREENING","visitnum":"1.0","dtc":"2023-12-30","value":"36.4","unit":"C"},{"visit":"DAY 1 INOCULATION","visitnum":"2.0","dtc":"2024-02-20","value":"36.5","unit":"C"},{"visit":"DAY 4 QUARANTINE","visitnum":"3.0","dtc":"2024-02-23","value":"36.2","unit":"C"},{"visit":"DAY 7 QUARANTINE","visitnum":"4.0","dtc":"2024-02-26","value":"36.3","unit":"C"},{"visit":"DAY 28 FU","visitnum":"6.0","dtc":"2024-03-17","value":"36.3","unit":"C"},{"visit":"MONTH 3 FU","visitnum":"7.0","dtc":"2024-05-14","value":"36.4","unit":"C"},{"visit":"MONTH 6 FU","visitnum":"8.0","dtc":"2024-08-25","value":"36.3","unit":"C"}],"WEIGHT":[{"visit":"SCREENING","visitnum":"1.0","dtc":"2023-12-30","value":"73.5","unit":"kg"},{"visit":"DAY 1 INOCULATION","visitnum":"2.0","dtc":"2024-02-20","value":"74.9","unit":"kg"},{"visit":"DAY 4 QUARANTINE","visitnum":"3.0","dtc":"2024-02-23","value":"74.4","unit":"kg"},{"visit":"DAY 7 QUARANTINE","visitnum":"4.0","dtc":"2024-02-26","value":"75.3","unit":"kg"},{"visit":"DAY 28 FU","visitnum":"6.0","dtc":"2024-03-17","value":"73.1","unit":"kg"},{"visit":"MONTH 3 FU","visitnum":"7.0","dtc":"2024-05-14","value":"73.3","unit":"kg"},{"visit":"MONTH 6 FU","visitnum":"8.0","dtc":"2024-08-25","value":"75.5","unit":"kg"},{"visit":"MONTH 12 FU","visitnum":"9.0","dtc":"2025-02-21","value":"78.3","unit":"kg"}]},"results":[{"seq":"1","testcd":"BMI","test":"BMI","cat":null,"orres":null,"orresu":null,"stresc":"24.4","stresn":"24.4","stresu":"kg/m2","stnrlo":null,"stnrhi":null,"nrind":null,"pos":null,"loc":null,"dtc":"2023-12-30","dy":"-52","visit":"SCREENING","visitnum":"1.0","epoch":"SCREENING"},{"seq":"2","testcd":"DIABP","test":"Diastolic Blood Pressure","cat":null,"orres":"70.1","orresu":"mmHg","stresc":"70.1","stresn":"70.1","stresu":"mmHg","stnrlo":null,"stnrhi":null,"nrind":null,"pos":null,"loc":null,"dtc":"2023-12-30","dy":"-52","visit":"SCREENING","visitnum":"1.0","epoch":"SCREENING"},{"seq":"3","testcd":"HEIGHT","test":"Height","cat":null,"orres":"173.6","orresu":"cm","stresc":"173.6","stresn":"173.6","stresu":"cm","stnrlo":null,"stnrhi":null,"nrind":null,"pos":null,"loc":null,"dtc":"2023-12-30","dy":"-52","visit":"SCREENING","visitnum":"1.0","epoch":"SCREENING"},{"seq":"4","testcd":"PULSE","test":"Pulse Rate","cat":null,"orres":"65.8","orresu":"beats/min","stresc":"65.8","stresn":"65.8","stresu":"beats/min","stnrlo":null,"stnrhi":null,"nrind":null,"pos":null,"loc":null,"dtc":"2023-12-30","dy":"-52","visit":"SCREENING","visitnum":"1.0","epoch":"SCREENING"},{"seq":"5","testcd":"RESP","test":"Respiratory Rate","cat":null,"orres":"13.7","orresu":"breaths/min","stresc":"13.7","stresn":"13.7","stresu":"breaths/min","stnrlo":null,"stnrhi":null,"nrind":null,"pos":null,"loc":null,"dtc":"2023-12-30","dy":"-52","visit":"SCREENING","visitnum":"1.0","epoch":"SCREENING"},{"seq":"6","testcd":"SYSBP","test":"Systolic Blood Pressure","cat":null,"orres":"127.2","orresu":"mmHg","stresc":"127.2","stresn":"127.2","stresu":"mmHg","stnrlo":null,"stnrhi":null,"nrind":null,"pos":null,"loc":null,"dtc":"2023-12-30","dy":"-52","visit":"SCREENING","visitnum":"1.0","epoch":"SCREENING"},{"seq":"7","testcd":"TEMP","test":"Temperature","cat":null,"orres":"36.4","orresu":"C","stresc":"36.4","stresn":"36.4","stresu":"C","stnrlo":null,"stnrhi":null,"nrind":null,"pos":null,"loc":null,"dtc":"2023-12-30","dy":"-52","visit":"SCREENING","visitnum":"1.0","epoch":"SCREENING"},{"seq":"8","testcd":"WEIGHT","test":"Weight","cat":null,"orres":"73.5","orresu":"kg","stresc":"73.5","stresn":"73.5","stresu":"kg","stnrlo":null,"stnrhi":null,"nrind":null,"pos":null,"loc":null,"dtc":"2023-12-30","dy":"-52","visit":"SCREENING","visitnum":"1.0","epoch":"SCREENING"},{"seq":"9","testcd":"BMI","test":"BMI","cat":null,"orres":null,"orresu":null,"stresc":"24.9","stresn":"24.9","stresu":"kg/m2","stnrlo":null,"stnrhi":null,"nrind":null,"pos":null,"loc":null,"dtc":"2024-02-20","dy":"1","visit":"DAY 1 INOCULATION","visitnum":"2.0","epoch":"TREATMENT"},{"seq":"10","testcd":"DIABP","test":"Diastolic Blood Pressure","cat":null,"orres":"70.5","orresu":"mmHg","stresc":"70.5","stresn":"70.5","stresu":"mmHg","stnrlo":null,"stnrhi":null,"nrind":null,"pos":null,"loc":null,"dtc":"2024-02-20","dy":"1","visit":"DAY 1 INOCULATION","visitnum":"2.0","epoch":"TREATMENT"},{"seq":"11","testcd":"HEIGHT","test":"Height","cat":null,"orres":"173.4","orresu":"cm","stresc":"173.4","stresn":"173.4","stresu":"cm","stnrlo":null,"stnrhi":null,"nrind":null,"pos":null,"loc":null,"dtc":"2024-02-20","dy":"1","visit":"DAY 1 INOCULATION","visitnum":"2.0","epoch":"TREATMENT"},{"seq":"12","testcd":"PULSE","test":"Pulse Rate","cat":null,"orres":"65.2","orresu":"beats/min","stresc":"65.2","stresn":"65.2","stresu":"beats/min","stnrlo":null,"stnrhi":null,"nrind":null,"pos":null,"loc":null,"dtc":"2024-02-20","dy":"1","visit":"DAY 1 INOCULATION","visitnum":"2.0","epoch":"TREATMENT"},{"seq":"13","testcd":"RESP","test":"Respiratory Rate","cat":null,"orres":"13.5","orresu":"breaths/min","stresc":"13.5","stresn":"13.5","stresu":"breaths/min","stnrlo":null,"stnrhi":null,"nrind":null,"pos":null,"loc":null,"dtc":"2024-02-20","dy":"1","visit":"DAY 1 INOCULATION","visitnum":"2.0","epoch":"TREATMENT"},{"seq":"14","testcd":"SYSBP","test":"Systolic Blood Pressure","cat":null,"orres":"129.1","orresu":"mmHg","stresc":"129.1","stresn":"129.1","stresu":"mmHg","stnrlo":null,"stnrhi":null,"nrind":null,"pos":null,"loc":null,"dtc":"2024-02-20","dy":"1","visit":"DAY 1 INOCULATION","visitnum":"2.0","epoch":"TREATMENT"},{"seq":"15","testcd":"TEMP","test":"Temperature","cat":null,"orres":"36.5","orresu":"C","stresc":"36.5","stresn":"36.5","stresu":"C","stnrlo":null,"stnrhi":null,"nrind":null,"pos":null,"loc":null,"dtc":"2024-02-20","dy":"1","visit":"DAY 1 INOCULATION","visitnum":"2.0","epoch":"TREATMENT"},{"seq":"16","testcd":"WEIGHT","test":"Weight","cat":null,"orres":"74.9","orresu":"kg","stresc":"74.9","stresn":"74.9","stresu":"kg","stnrlo":null,"stnrhi":null,"nrind":null,"pos":null,"loc":null,"dtc":"2024-02-20","dy":"1","visit":"DAY 1 INOCULATION","visitnum":"2.0","epoch":"TREATMENT"},{"seq":"17","testcd":"BMI","test":"BMI","cat":null,"orres":null,"orresu":null,"stresc":"24.7","stresn":"24.7","stresu":"kg/m2","stnrlo":null,"stnrhi":null,"nrind":null,"pos":null,"loc":null,"dtc":"2024-02-23","dy":"4","visit":"DAY 4 QUARANTINE","visitnum":"3.0","epoch":"QUARANTINE"},{"seq":"18","testcd":"DIABP","test":"Diastolic Blood Pressure","cat":null,"orres":"69.3","orresu":"mmHg","stresc":"69.3","stresn":"69.3","stresu":"mmHg","stnrlo":null,"stnrhi":null,"nrind":null,"pos":null,"loc":null,"dtc":"2024-02-23","dy":"4","visit":"DAY 4 QUARANTINE","visitnum":"3.0","epoch":"QUARANTINE"},{"seq":"19","testcd":"HEIGHT","test":"Height","cat":null,"orres":"173.5","orresu":"cm","stresc":"173.5","stresn":"173.5","stresu":"cm","stnrlo":null,"stnrhi":null,"nrind":null,"pos":null,"loc":null,"dtc":"2024-02-23","dy":"4","visit":"DAY 4 QUARANTINE","visitnum":"3.0","epoch":"QUARANTINE"},{"seq":"20","testcd":"PULSE","test":"Pulse Rate","cat":null,"orres":"66.0","orresu":"beats/min","stresc":"66.0","stresn":"66.0","stresu":"beats/min","stnrlo":null,"stnrhi":null,"nrind":null,"pos":null,"loc":null,"dtc":"2024-02-23","dy":"4","visit":"DAY 4 QUARANTINE","visitnum":"3.0","epoch":"QUARANTINE"},{"seq":"21","testcd":"RESP","test":"Respiratory Rate","cat":null,"orres":"14.1","orresu":"breaths/min","stresc":"14.1","stresn":"14.1","stresu":"breaths/min","stnrlo":null,"stnrhi":null,"nrind":null,"pos":null,"loc":null,"dtc":"2024-02-23","dy":"4","visit":"DAY 4 QUARANTINE","visitnum":"3.0","epoch":"QUARANTINE"},{"seq":"22","testcd":"SYSBP","test":"Systolic Blood Pressure","cat":null,"orres":"128.8","orresu":"mmHg","stresc":"128.8","stresn":"128.8","stresu":"mmHg","stnrlo":null,"stnrhi":null,"nrind":null,"pos":null,"loc":null,"dtc":"2024-02-23","dy":"4","visit":"DAY 4 QUARANTINE","visitnum":"3.0","epoch":"QUARANTINE"},{"seq":"23","testcd":"TEMP","test":"Temperature","cat":null,"orres":"36.2","orresu":"C","stresc":"36.2","stresn":"36.2","stresu":"C","stnrlo":null,"stnrhi":null,"nrind":null,"pos":null,"loc":null,"dtc":"2024-02-23","dy":"4","visit":"DAY 4 QUARANTINE","visitnum":"3.0","epoch":"QUARANTINE"},{"seq":"24","testcd":"WEIGHT","test":"Weight","cat":null,"orres":"74.4","orresu":"kg","stresc":"74.4","stresn":"74.4","stresu":"kg","stnrlo":null,"stnrhi":null,"nrind":null,"pos":null,"loc":null,"dtc":"2024-02-23","dy":"4","visit":"DAY 4 QUARANTINE","visitnum":"3.0","epoch":"QUARANTINE"},{"seq":"25","testcd":"BMI","test":"BMI","cat":null,"orres":null,"orresu":null,"stresc":"25.2","stresn":"25.2","stresu":"kg/m2","stnrlo":null,"stnrhi":null,"nrind":null,"pos":null,"loc":null,"dtc":"2024-02-26","dy":"7","visit":"DAY 7 QUARANTINE","visitnum":"4.0","epoch":"QUARANTINE"},{"seq":"26","testcd":"DIABP","test":"Diastolic Blood Pressure","cat":null,"orres":"70.1","orresu":"mmHg","stresc":"70.1","stresn":"70.1","stresu":"mmHg","stnrlo":null,"stnrhi":null,"nrind":null,"pos":null,"loc":null,"dtc":"2024-02-26","dy":"7","visit":"DAY 7 QUARANTINE","visitnum":"4.0","epoch":"QUARANTINE"},{"seq":"27","testcd":"HEIGHT","test":"Height","cat":null,"orres":"172.8","orresu":"cm","stresc":"172.8","stresn":"172.8","stresu":"cm","stnrlo":null,"stnrhi":null,"nrind":null,"pos":null,"loc":null,"dtc":"2024-02-26","dy":"7","visit":"DAY 7 QUARANTINE","visitnum":"4.0","epoch":"QUARANTINE"},{"seq":"28","testcd":"PULSE","test":"Pulse Rate","cat":null,"orres":"62.9","orresu":"beats/min","stresc":"62.9","stresn":"62.9","stresu":"beats/min","stnrlo":null,"stnrhi":null,"nrind":null,"pos":null,"loc":null,"dtc":"2024-02-26","dy":"7","visit":"DAY 7 QUARANTINE","visitnum":"4.0","epoch":"QUARANTINE"},{"seq":"29","testcd":"RESP","test":"Respiratory Rate","cat":null,"orres":"13.9","orresu":"breaths/min","stresc":"13.9","stresn":"13.9","stresu":"breaths/min","stnrlo":null,"stnrhi":null,"nrind":null,"pos":null,"loc":null,"dtc":"2024-02-26","dy":"7","visit":"DAY 7 QUARANTINE","visitnum":"4.0","epoch":"QUARANTINE"},{"seq":"30","testcd":"SYSBP","test":"Systolic Blood Pressure","cat":null,"orres":"127.3","orresu":"mmHg","stresc":"127.3","stresn":"127.3","stresu":"mmHg","stnrlo":null,"stnrhi":null,"nrind":null,"pos":null,"loc":null,"dtc":"2024-02-26","dy":"7","visit":"DAY 7 QUARANTINE","visitnum":"4.0","epoch":"QUARANTINE"},{"seq":"31","testcd":"TEMP","test":"Temperature","cat":null,"orres":"36.3","orresu":"C","stresc":"36.3","stresn":"36.3","stresu":"C","stnrlo":null,"stnrhi":null,"nrind":null,"pos":null,"loc":null,"dtc":"2024-02-26","dy":"7","visit":"DAY 7 QUARANTINE","visitnum":"4.0","epoch":"QUARANTINE"},{"seq":"32","testcd":"WEIGHT","test":"Weight","cat":null,"orres":"75.3","orresu":"kg","stresc":"75.3","stresn":"75.3","stresu":"kg","stnrlo":null,"stnrhi":null,"nrind":null,"pos":null,"loc":null,"dtc":"2024-02-26","dy":"7","visit":"DAY 7 QUARANTINE","visitnum":"4.0","epoch":"QUARANTINE"},{"seq":"33","testcd":"BMI","test":"BMI","cat":null,"orres":null,"orresu":null,"stresc":"24.3","stresn":"24.3","stresu":"kg/m2","stnrlo":null,"stnrhi":null,"nrind":null,"pos":null,"loc":null,"dtc":"2024-03-17","dy":"27","visit":"DAY 28 FU","visitnum":"6.0","epoch":"FOLLOW-UP"},{"seq":"34","testcd":"DIABP","test":"Diastolic Blood Pressure","cat":null,"orres":"69.3","orresu":"mmHg","stresc":"69.3","stresn":"69.3","stresu":"mmHg","stnrlo":null,"stnrhi":null,"nrind":null,"pos":null,"loc":null,"dtc":"2024-03-17","dy":"27","visit":"DAY 28 FU","visitnum":"6.0","epoch":"FOLLOW-UP"},{"seq":"35","testcd":"HEIGHT","test":"Height","cat":null,"orres":"173.3","orresu":"cm","stresc":"173.3","stresn":"173.3","stresu":"cm","stnrlo":null,"stnrhi":null,"nrind":null,"pos":null,"loc":null,"dtc":"2024-03-17","dy":"27","visit":"DAY 28 FU","visitnum":"6.0","epoch":"FOLLOW-UP"},{"seq":"36","testcd":"PULSE","test":"Pulse Rate","cat":null,"orres":"60.7","orresu":"beats/min","stresc":"60.7","stresn":"60.7","stresu":"beats/min","stnrlo":null,"stnrhi":null,"nrind":null,"pos":null,"loc":null,"dtc":"2024-03-17","dy":"27","visit":"DAY 28 FU","visitnum":"6.0","epoch":"FOLLOW-UP"},{"seq":"37","testcd":"RESP","test":"Respiratory Rate","cat":null,"orres":"12.9","orresu":"breaths/min","stresc":"12.9","stresn":"12.9","stresu":"breaths/min","stnrlo":null,"stnrhi":null,"nrind":null,"pos":null,"loc":null,"dtc":"2024-03-17","dy":"27","visit":"DAY 28 FU","visitnum":"6.0","epoch":"FOLLOW-UP"},{"seq":"38","testcd":"SYSBP","test":"Systolic Blood Pressure","cat":null,"orres":"127.5","orresu":"mmHg","stresc":"127.5","stresn":"127.5","stresu":"mmHg","stnrlo":null,"stnrhi":null,"nrind":null,"pos":null,"loc":null,"dtc":"2024-03-17","dy":"27","visit":"DAY 28 FU","visitnum":"6.0","epoch":"FOLLOW-UP"},{"seq":"39","testcd":"TEMP","test":"Temperature","cat":null,"orres":"36.3","orresu":"C","stresc":"36.3","stresn":"36.3","stresu":"C","stnrlo":null,"stnrhi":null,"nrind":null,"pos":null,"loc":null,"dtc":"2024-03-17","dy":"27","visit":"DAY 28 FU","visitnum":"6.0","epoch":"FOLLOW-UP"},{"seq":"40","testcd":"WEIGHT","test":"Weight","cat":null,"orres":"73.1","orresu":"kg","stresc":"73.1","stresn":"73.1","stresu":"kg","stnrlo":null,"stnrhi":null,"nrind":null,"pos":null,"loc":null,"dtc":"2024-03-17","dy":"27","visit":"DAY 28 FU","visitnum":"6.0","epoch":"FOLLOW-UP"},{"seq":"41","testcd":"BMI","test":"BMI","cat":null,"orres":null,"orresu":null,"stresc":"24.4","stresn":"24.4","stresu":"kg/m2","stnrlo":null,"stnrhi":null,"nrind":null,"pos":null,"loc":null,"dtc":"2024-05-14","dy":"85","visit":"MONTH 3 FU","visitnum":"7.0","epoch":"FOLLOW-UP"},{"seq":"42","testcd":"DIABP","test":"Diastolic Blood Pressure","cat":null,"orres":"68.4","orresu":"mmHg","stresc":"68.4","stresn":"68.4","stresu":"mmHg","stnrlo":null,"stnrhi":null,"nrind":null,"pos":null,"loc":null,"dtc":"2024-05-14","dy":"85","visit":"MONTH 3 FU","visitnum":"7.0","epoch":"FOLLOW-UP"},{"seq":"43","testcd":"HEIGHT","test":"Height","cat":null,"orres":"173.4","orresu":"cm","stresc":"173.4","stresn":"173.4","stresu":"cm","stnrlo":null,"stnrhi":null,"nrind":null,"pos":null,"loc":null,"dtc":"2024-05-14","dy":"85","visit":"MONTH 3 FU","visitnum":"7.0","epoch":"FOLLOW-UP"},{"seq":"44","testcd":"PULSE","test":"Pulse Rate","cat":null,"orres":"57.7","orresu":"beats/min","stresc":"57.7","stresn":"57.7","stresu":"beats/min","stnrlo":null,"stnrhi":null,"nrind":null,"pos":null,"loc":null,"dtc":"2024-05-14","dy":"85","visit":"MONTH 3 FU","visitnum":"7.0","epoch":"FOLLOW-UP"},{"seq":"45","testcd":"RESP","test":"Respiratory Rate","cat":null,"orres":"11.9","orresu":"breaths/min","stresc":"11.9","stresn":"11.9","stresu":"breaths/min","stnrlo":null,"stnrhi":null,"nrind":null,"pos":null,"loc":null,"dtc":"2024-05-14","dy":"85","visit":"MONTH 3 FU","visitnum":"7.0","epoch":"FOLLOW-UP"},{"seq":"46","testcd":"SYSBP","test":"Systolic Blood Pressure","cat":null,"orres":"124.8","orresu":"mmHg","stresc":"124.8","stresn":"124.8","stresu":"mmHg","stnrlo":null,"stnrhi":null,"nrind":null,"pos":null,"loc":null,"dtc":"2024-05-14","dy":"85","visit":"MONTH 3 FU","visitnum":"7.0","epoch":"FOLLOW-UP"},{"seq":"47","testcd":"TEMP","test":"Temperature","cat":null,"orres":"36.4","orresu":"C","stresc":"36.4","stresn":"36.4","stresu":"C","stnrlo":null,"stnrhi":null,"nrind":null,"pos":null,"loc":null,"dtc":"2024-05-14","dy":"85","visit":"MONTH 3 FU","visitnum":"7.0","epoch":"FOLLOW-UP"},{"seq":"48","testcd":"WEIGHT","test":"Weight","cat":null,"orres":"73.3","orresu":"kg","stresc":"73.3","stresn":"73.3","stresu":"kg","stnrlo":null,"stnrhi":null,"nrind":null,"pos":null,"loc":null,"dtc":"2024-05-14","dy":"85","visit":"MONTH 3 FU","visitnum":"7.0","epoch":"FOLLOW-UP"},{"seq":"49","testcd":"BMI","test":"BMI","cat":null,"orres":null,"orresu":null,"stresc":"25.0","stresn":"25.0","stresu":"kg/m2","stnrlo":null,"stnrhi":null,"nrind":null,"pos":null,"loc":null,"dtc":"2024-08-25","dy":"188","visit":"MONTH 6 FU","visitnum":"8.0","epoch":"FOLLOW-UP"},{"seq":"50","testcd":"DIABP","test":"Diastolic Blood Pressure","cat":null,"orres":"70.3","orresu":"mmHg","stresc":"70.3","stresn":"70.3","stresu":"mmHg","stnrlo":null,"stnrhi":null,"nrind":null,"pos":null,"loc":null,"dtc":"2024-08-25","dy":"188","visit":"MONTH 6 FU","visitnum":"8.0","epoch":"FOLLOW-UP"},{"seq":"51","testcd":"HEIGHT","test":"Height","cat":null,"orres":"173.7","orresu":"cm","stresc":"173.7","stresn":"173.7","stresu":"cm","stnrlo":null,"stnrhi":null,"nrind":null,"pos":null,"loc":null,"dtc":"2024-08-25","dy":"188","visit":"MONTH 6 FU","visitnum":"8.0","epoch":"FOLLOW-UP"},{"seq":"52","testcd":"PULSE","test":"Pulse Rate","cat":null,"orres":"59.1","orresu":"beats/min","stresc":"59.1","stresn":"59.1","stresu":"beats/min","stnrlo":null,"stnrhi":null,"nrind":null,"pos":null,"loc":null,"dtc":"2024-08-25","dy":"188","visit":"MONTH 6 FU","visitnum":"8.0","epoch":"FOLLOW-UP"},{"seq":"53","testcd":"RESP","test":"Respiratory Rate","cat":null,"orres":"13.3","orresu":"breaths/min","stresc":"13.3","stresn":"13.3","stresu":"breaths/min","stnrlo":null,"stnrhi":null,"nrind":null,"pos":null,"loc":null,"dtc":"2024-08-25","dy":"188","visit":"MONTH 6 FU","visitnum":"8.0","epoch":"FOLLOW-UP"},{"seq":"54","testcd":"SYSBP","test":"Systolic Blood Pressure","cat":null,"orres":"126.8","orresu":"mmHg","stresc":"126.8","stresn":"126.8","stresu":"mmHg","stnrlo":null,"stnrhi":null,"nrind":null,"pos":null,"loc":null,"dtc":"2024-08-25","dy":"188","visit":"MONTH 6 FU","visitnum":"8.0","epoch":"FOLLOW-UP"},{"seq":"55","testcd":"TEMP","test":"Temperature","cat":null,"orres":"36.3","orresu":"C","stresc":"36.3","stresn":"36.3","stresu":"C","stnrlo":null,"stnrhi":null,"nrind":null,"pos":null,"loc":null,"dtc":"2024-08-25","dy":"188","visit":"MONTH 6 FU","visitnum":"8.0","epoch":"FOLLOW-UP"},{"seq":"56","testcd":"WEIGHT","test":"Weight","cat":null,"orres":"75.5","orresu":"kg","stresc":"75.5","stresn":"75.5","stresu":"kg","stnrlo":null,"stnrhi":null,"nrind":null,"pos":null,"loc":null,"dtc":"2024-08-25","dy":"188","visit":"MONTH 6 FU","visitnum":"8.0","epoch":"FOLLOW-UP"},{"seq":"57","testcd":"BMI","test":"BMI","cat":null,"orres":null,"orresu":null,"stresc":"26.0","stresn":"26.0","stresu":"kg/m2","stnrlo":null,"stnrhi":null,"nrind":null,"pos":null,"loc":null,"dtc":"2025-02-21","dy":"368","visit":"MONTH 12 FU","visitnum":"9.0","epoch":"FOLLOW-UP"},{"seq":"58","testcd":"DIABP","test":"Diastolic Blood Pressure","cat":null,"orres":"69.7","orresu":"mmHg","stresc":"69.7","stresn":"69.7","stresu":"mmHg","stnrlo":null,"stnrhi":null,"nrind":null,"pos":null,"loc":null,"dtc":"2025-02-21","dy":"368","visit":"MONTH 12 FU","visitnum":"9.0","epoch":"FOLLOW-UP"},{"seq":"59","testcd":"HEIGHT","test":"Height","cat":null,"orres":"173.6","orresu":"cm","stresc":"173.6","stresn":"173.6","stresu":"cm","stnrlo":null,"stnrhi":null,"nrind":null,"pos":null,"loc":null,"dtc":"2025-02-21","dy":"368","visit":"MONTH 12 FU","visitnum":"9.0","epoch":"FOLLOW-UP"},{"seq":"60","testcd":"PULSE","test":"Pulse Rate","cat":null,"orres":"58.0","orresu":"beats/min","stresc":"58.0","stresn":"58.0","stresu":"beats/min","stnrlo":null,"stnrhi":null,"nrind":null,"pos":null,"loc":null,"dtc":"2025-02-21","dy":"368","visit":"MONTH 12 FU","visitnum":"9.0","epoch":"FOLLOW-UP"},{"seq":"61","testcd":"RESP","test":"Respiratory Rate","cat":null,"orres":"14.4","orresu":"breaths/min","stresc":"14.4","stresn":"14.4","stresu":"breaths/min","stnrlo":null,"stnrhi":null,"nrind":null,"pos":null,"loc":null,"dtc":"2025-02-21","dy":"368","visit":"MONTH 12 FU","visitnum":"9.0","epoch":"FOLLOW-UP"},{"seq":"62","testcd":"SYSBP","test":"Systolic Blood Pressure","cat":null,"orres":"126.3","orresu":"mmHg","stresc":"126.3","stresn":"126.3","stresu":"mmHg","stnrlo":null,"stnrhi":null,"nrind":null,"pos":null,"loc":null,"dtc":"2025-02-21","dy":"368","visit":"MONTH 12 FU","visitnum":"9.0","epoch":"FOLLOW-UP"},{"seq":"63","testcd":"TEMP","test":"Temperature","cat":null,"orres":null,"orresu":null,"stresc":null,"stresn":null,"stresu":null,"stnrlo":null,"stnrhi":null,"nrind":null,"pos":null,"loc":null,"dtc":"2025-02-21","dy":"368","visit":"MONTH 12 FU","visitnum":"9.0","epoch":"FOLLOW-UP"},{"seq":"64","testcd":"WEIGHT","test":"Weight","cat":null,"orres":"78.3","orresu":"kg","stresc":"78.3","stresn":"78.3","stresu":"kg","stnrlo":null,"stnrhi":null,"nrind":null,"pos":null,"loc":null,"dtc":"2025-02-21","dy":"368","visit":"MONTH 12 FU","visitnum":"9.0","epoch":"FOLLOW-UP"}]},"section_10_questionnaires_and_scores":{"questionnaires":[],"findings_about":[]},"section_11_protocol_deviations":{"deviations":[{"seq":"1","term":"Vital signs assessment not performed at MONTH 12 FU","decod":"MISSED ASSESSMENT","cat":"MINOR","scat":"ASSESSMENT","start_dtc":"2025-02-21","end_dtc":null,"visit":null}],"total":1},"section_12_disposition":{"completion_status":"COMPLETED","disposition_records":[{"seq":"1","term":"INFORMED CONSENT OBTAINED","decod":"INFORMED CONSENT OBTAINED","cat":"PROTOCOL MILESTONE","scat":null,"dtc":"2024-01-18","dy":null,"visit":null,"epoch":"SCREENING"},{"seq":"2","term":"RANDOMIZED","decod":"RANDOMIZED","cat":"PROTOCOL MILESTONE","scat":null,"dtc":"2024-02-20","dy":null,"visit":null,"epoch":"TREATMENT"},{"seq":"3","term":"COMPLETED","decod":"COMPLETED","cat":"DISPOSITION EVENT","scat":null,"dtc":"2025-03-18","dy":null,"visit":null,"epoch":"FOLLOW-UP"}],"death":null},"section_13_hospitalizations":{"items":[],"total":0},"section_14_substance_use":{"items":[{"seq":"1","substance":"BEER/WINE/SPIRITS","decod":"ETHANOL","cat":"ALCOHOL","scat":null,"usage":"Y","dose":"13.0","dosu":"DRINKS/WEEK","freq":"QW","start_dtc":"1998-01-24","end_dtc":null},{"seq":"2","substance":"COFFEE","decod":"COFFEE","cat":"CAFFEINE","scat":null,"usage":"Y","dose":"4.0","dosu":"CUPS/DAY","freq":"QD","start_dtc":"2008-01-22","end_dtc":null},{"seq":"3","substance":"CIGARETTES","decod":"CIGARETTES","cat":"TOBACCO","scat":null,"usage":"N","dose":null,"dosu":null,"freq":null,"start_dtc":null,"end_dtc":null}],"total":3},"section_15_subject_status":{"items":[{"seq":"1","testcd":"SURVSTAT","test":"Survival Status","orres":"ALIVE","stresc":"ALIVE","dtc":"2025-03-18","visit":null,"epoch":"FOLLOW-UP"}],"total":1}}