{"subject_id":"COVHIC001-CHALLENGE-UK_ICL_HVIVO01-0010","study_id":"COVHIC001-CHALLENGE","generated_at":"2026-07-07T05:03:09.246009+00:00","sdtmig_version":"3.4","flags":{"has_serious_ae":false,"has_fatal_ae":false,"has_protocol_deviation":true,"n_protocol_deviations":1,"n_adverse_events":0,"n_concomitant_meds":0,"max_ae_severity":null,"screen_failure":false,"discontinued_early":false,"discontinuation_reason":null,"death":false,"exposure_days":4},"timeline":[{"dtc":"2023-12-24","dy":"-57","event":"VISIT: SCREENING","domain":"SV","category":"visit"},{"dtc":"2024-01-19","dy":"-31","event":"INFORMED CONSENT OBTAINED","domain":"DS","category":"milestone"},{"dtc":"2024-02-19","dy":"1","event":"RANDOMIZED","domain":"DS","category":"milestone"},{"dtc":"2024-02-19","dy":"1","event":"FIRST DOSE: SARS-COV-2-CHALLENGE","domain":"EX","category":"exposure"},{"dtc":"2024-02-19","dy":"1","event":"VISIT: DAY 1 INOCULATION","domain":"SV","category":"visit"},{"dtc":"2024-02-21","dy":"3","event":"DEVIATION: DOSE MODIFICATION","domain":"DV","category":"deviation"},{"dtc":"2024-02-22","dy":"4","event":"VISIT: DAY 4 QUARANTINE","domain":"SV","category":"visit"},{"dtc":"2024-02-23","dy":"5","event":"LAST DOSE: REMDESIVIR","domain":"EX","category":"exposure"},{"dtc":"2024-02-25","dy":"7","event":"VISIT: DAY 7 QUARANTINE","domain":"SV","category":"visit"},{"dtc":"2024-03-04","dy":"15","event":"VISIT: DAY 14 DISCHARGE","domain":"SV","category":"visit"},{"dtc":"2024-03-18","dy":"29","event":"VISIT: DAY 28 FU","domain":"SV","category":"visit"},{"dtc":"2024-05-19","dy":"91","event":"VISIT: MONTH 3 FU","domain":"SV","category":"visit"},{"dtc":"2024-08-07","dy":"171","event":"VISIT: MONTH 6 FU","domain":"SV","category":"visit"},{"dtc":"2025-03-01","dy":"377","event":"VISIT: MONTH 12 FU","domain":"SV","category":"visit"},{"dtc":"2025-03-17","dy":"393","event":"COMPLETED","domain":"DS","category":"milestone"}],"section_1_demographics":{"usubjid":"COVHIC001-CHALLENGE-UK_ICL_HVIVO01-0010","subjid":"0010","siteid":"UK_ICL_HVIVO01","age":"19","ageu":"YEARS","sex":"F","race":"WHITE","ethnicity":"NOT HISPANIC OR LATINO","country":"GBR","arm":"Dose 1 \u2014 10 TCID50 intranasal SARS-CoV-2 + pre-emptive remdesivir","armcd":"DOSE1","actarm":"Dose 1 \u2014 10 TCID50 intranasal SARS-CoV-2 + pre-emptive remdesivir","actarmcd":"DOSE1","randomization_date":null,"informed_consent_date":"2024-01-19","reference_start_date":"2024-02-19","reference_end_date":"2025-03-17","screen_failure":false,"death_flag":null,"death_date":null,"subject_characteristics":[{"testcd":"ALCUSE","test":"Alcohol Use","orres":"NON-DRINKER","stresc":"NON-DRINKER","visit":null,"dtc":"2024-01-19"},{"testcd":"BMI","test":"Body Mass Index","orres":"26.3","stresc":"26.3","visit":null,"dtc":"2024-01-19"},{"testcd":"DURDIS","test":"Duration of Disease","orres":"85 months","stresc":"85","visit":null,"dtc":"2024-01-19"},{"testcd":"TOBPKYR","test":"Tobacco Pack-Years","orres":"27","stresc":"27","visit":null,"dtc":"2024-01-19"},{"testcd":"TOBUSE","test":"Tobacco Use","orres":"FORMER SMOKER","stresc":"FORMER SMOKER","visit":null,"dtc":"2024-01-19"}]},"section_2_medical_history":{"items":[{"seq":"1","term":"ECZEMA","decod":"ECZEMA","cat":"DERMATOLOGICAL","scat":null,"presp":null,"occur":null,"status":null,"onset_dtc":"2017-01-20","end_dtc":null,"visit":null}]},"section_3_inclusion_exclusion":{"criteria":[]},"section_4_trial_participation":{"visits":[{"visitnum":"1.0","visit":"SCREENING","start_dtc":"2023-12-24","end_dtc":"2023-12-24","updes":null},{"visitnum":"2.0","visit":"DAY 1 INOCULATION","start_dtc":"2024-02-19","end_dtc":"2024-02-19","updes":null},{"visitnum":"3.0","visit":"DAY 4 QUARANTINE","start_dtc":"2024-02-22","end_dtc":"2024-02-22","updes":null},{"visitnum":"4.0","visit":"DAY 7 QUARANTINE","start_dtc":"2024-02-25","end_dtc":"2024-02-25","updes":null},{"visitnum":"5.0","visit":"DAY 14 DISCHARGE","start_dtc":"2024-03-04","end_dtc":"2024-03-04","updes":null},{"visitnum":"6.0","visit":"DAY 28 FU","start_dtc":"2024-03-18","end_dtc":"2024-03-18","updes":null},{"visitnum":"7.0","visit":"MONTH 3 FU","start_dtc":"2024-05-19","end_dtc":"2024-05-19","updes":null},{"visitnum":"8.0","visit":"MONTH 6 FU","start_dtc":"2024-08-07","end_dtc":"2024-08-07","updes":null},{"visitnum":"9.0","visit":"MONTH 12 FU","start_dtc":"2025-03-01","end_dtc":"2025-03-01","updes":null}],"epochs":[{"seq":"1","etcd":"SCRN","element":"Screening","start_dtc":"2024-01-22","end_dtc":"2024-02-19","updes":null},{"seq":"2","etcd":"INOC","element":"Inoculation + quarantine","start_dtc":"2024-02-19","end_dtc":"2024-03-04","updes":null},{"seq":"3","etcd":"FU","element":"Outpatient follow-up","start_dtc":"2024-03-04","end_dtc":"2025-02-26","updes":null}],"visit_count":9},"section_5_concomitant_medications":{"medications":[]},"section_6_exposure":{"exposure_as_administered":[{"seq":"1","trt":"SARS-COV-2-CHALLENGE","dose":"10.0","doseu":null,"dosef":"ONCE","route":"NASAL","lot":null,"start_dtc":"2024-02-19","end_dtc":"2024-02-19","start_dy":"1","end_dy":"1","epoch":"TREATMENT","visit":null},{"seq":"2","trt":"REMDESIVIR","dose":"200.0","doseu":null,"dosef":"ONCE","route":"INTRAVENOUS","lot":null,"start_dtc":"2024-02-21","end_dtc":"2024-02-21","start_dy":"3","end_dy":"3","epoch":"TREATMENT","visit":null},{"seq":"3","trt":"REMDESIVIR","dose":"100.0","doseu":null,"dosef":"QD","route":"INTRAVENOUS","lot":null,"start_dtc":"2024-02-22","end_dtc":"2024-02-23","start_dy":"4","end_dy":"5","epoch":"TREATMENT","visit":null}],"exposure_as_collected":[{"seq":"1","trt":"SARS-COV-2-CHALLENGE","dose":"10.0","doseu":null,"dosef":"ONCE","route":"NASAL","start_dtc":"2024-02-19","end_dtc":"2024-02-19","visit":"DAY 1 INOCULATION"},{"seq":"2","trt":"REMDESIVIR","dose":"200.0","doseu":null,"dosef":"ONCE","route":"INTRAVENOUS","start_dtc":"2024-02-21","end_dtc":"2024-02-21","visit":"DAY 1 INOCULATION"},{"seq":"3","trt":"REMDESIVIR","dose":"100.0","doseu":null,"dosef":"QD","route":"INTRAVENOUS","start_dtc":"2024-02-22","end_dtc":"2024-02-22","visit":"DAY 1 INOCULATION"},{"seq":"4","trt":"REMDESIVIR","dose":"100.0","doseu":null,"dosef":"QD","route":"INTRAVENOUS","start_dtc":"2024-02-23","end_dtc":"2024-02-23","visit":"DAY 4 QUARANTINE"}]},"section_7_adverse_events":{"summary":{"total_aes":0,"serious_aes":0,"fatal_aes":0,"by_severity":{},"by_soc":{}},"events":[]},"section_8_laboratory_results":{"summary":{"total_records":49,"abnormal_count":0,"abnormal_pct":0.0},"shift_summary":[{"testcd":"ALT","baseline_value":18.43,"baseline_nrind":"NORMAL","worst_post_baseline_value":21.08,"worst_post_baseline_nrind":"NORMAL","worst_visit":"MONTH 3 FU"},{"testcd":"AST","baseline_value":21.3,"baseline_nrind":"NORMAL","worst_post_baseline_value":26.57,"worst_post_baseline_nrind":"NORMAL","worst_visit":"MONTH 12 FU"},{"testcd":"CREAT","baseline_value":49.35,"baseline_nrind":"NORMAL","worst_post_baseline_value":52.89,"worst_post_baseline_nrind":"NORMAL","worst_visit":"DAY 14 DISCHARGE"},{"testcd":"GLUC","baseline_value":5.02,"baseline_nrind":"NORMAL","worst_post_baseline_value":5.11,"worst_post_baseline_nrind":"NORMAL","worst_visit":"DAY 1 INOCULATION"},{"testcd":"HGB","baseline_value":124.51,"baseline_nrind":"NORMAL","worst_post_baseline_value":121.47,"worst_post_baseline_nrind":"NORMAL","worst_visit":"DAY 28 FU"},{"testcd":"PLAT","baseline_value":301.39,"baseline_nrind":"NORMAL","worst_post_baseline_value":323.23,"worst_post_baseline_nrind":"NORMAL","worst_visit":"MONTH 3 FU"},{"testcd":"WBC","baseline_value":4.85,"baseline_nrind":"NORMAL","worst_post_baseline_value":5.72,"worst_post_baseline_nrind":"NORMAL","worst_visit":"DAY 14 DISCHARGE"}],"results":[{"seq":"1","testcd":"ALT","test":"Alanine Aminotransferase","cat":"CHEMISTRY","orres":"18.43","orresu":"U/L","stresc":"18.43","stresn":"18.43","stresu":"U/L","stnrlo":"7","stnrhi":"56","nrind":"NORMAL","fast":null,"dtc":"2023-12-24","dy":"-57","visit":"SCREENING","visitnum":"1.0","epoch":"SCREENING","spec":null,"method":null},{"seq":"2","testcd":"AST","test":"Aspartate Aminotransferase","cat":"CHEMISTRY","orres":"21.3","orresu":"U/L","stresc":"21.3","stresn":"21.3","stresu":"U/L","stnrlo":"10","stnrhi":"40","nrind":"NORMAL","fast":null,"dtc":"2023-12-24","dy":"-57","visit":"SCREENING","visitnum":"1.0","epoch":"SCREENING","spec":null,"method":null},{"seq":"3","testcd":"CREAT","test":"Creatinine","cat":"CHEMISTRY","orres":"49.35","orresu":"umol/L","stresc":"49.35","stresn":"49.35","stresu":"umol/L","stnrlo":"44","stnrhi":"80","nrind":"NORMAL","fast":null,"dtc":"2023-12-24","dy":"-57","visit":"SCREENING","visitnum":"1.0","epoch":"SCREENING","spec":null,"method":null},{"seq":"4","testcd":"GLUC","test":"Glucose","cat":"CHEMISTRY","orres":"5.02","orresu":"mmol/L","stresc":"5.02","stresn":"5.02","stresu":"mmol/L","stnrlo":"3.9","stnrhi":"5.6","nrind":"NORMAL","fast":null,"dtc":"2023-12-24","dy":"-57","visit":"SCREENING","visitnum":"1.0","epoch":"SCREENING","spec":null,"method":null},{"seq":"5","testcd":"HGB","test":"Hemoglobin","cat":"HEMATOLOGY","orres":"124.51","orresu":"g/L","stresc":"124.51","stresn":"124.51","stresu":"g/L","stnrlo":"120","stnrhi":"155","nrind":"NORMAL","fast":null,"dtc":"2023-12-24","dy":"-57","visit":"SCREENING","visitnum":"1.0","epoch":"SCREENING","spec":null,"method":null},{"seq":"6","testcd":"PLAT","test":"Platelets","cat":"HEMATOLOGY","orres":"301.39","orresu":"10^9/L","stresc":"301.39","stresn":"301.39","stresu":"10^9/L","stnrlo":"150","stnrhi":"400","nrind":"NORMAL","fast":null,"dtc":"2023-12-24","dy":"-57","visit":"SCREENING","visitnum":"1.0","epoch":"SCREENING","spec":null,"method":null},{"seq":"7","testcd":"WBC","test":"Leukocytes","cat":"HEMATOLOGY","orres":"4.85","orresu":"10^9/L","stresc":"4.85","stresn":"4.85","stresu":"10^9/L","stnrlo":"4.0","stnrhi":"11.0","nrind":"NORMAL","fast":null,"dtc":"2023-12-24","dy":"-57","visit":"SCREENING","visitnum":"1.0","epoch":"SCREENING","spec":null,"method":null},{"seq":"8","testcd":"ALT","test":"Alanine Aminotransferase","cat":"CHEMISTRY","orres":"17.54","orresu":"U/L","stresc":"17.54","stresn":"17.54","stresu":"U/L","stnrlo":"7","stnrhi":"56","nrind":"NORMAL","fast":null,"dtc":"2024-02-19","dy":"1","visit":"DAY 1 INOCULATION","visitnum":"2.0","epoch":"TREATMENT","spec":null,"method":null},{"seq":"9","testcd":"AST","test":"Aspartate Aminotransferase","cat":"CHEMISTRY","orres":"19.87","orresu":"U/L","stresc":"19.87","stresn":"19.87","stresu":"U/L","stnrlo":"10","stnrhi":"40","nrind":"NORMAL","fast":null,"dtc":"2024-02-19","dy":"1","visit":"DAY 1 INOCULATION","visitnum":"2.0","epoch":"TREATMENT","spec":null,"method":null},{"seq":"10","testcd":"CREAT","test":"Creatinine","cat":"CHEMISTRY","orres":"49.9","orresu":"umol/L","stresc":"49.9","stresn":"49.9","stresu":"umol/L","stnrlo":"44","stnrhi":"80","nrind":"NORMAL","fast":null,"dtc":"2024-02-19","dy":"1","visit":"DAY 1 INOCULATION","visitnum":"2.0","epoch":"TREATMENT","spec":null,"method":null},{"seq":"11","testcd":"GLUC","test":"Glucose","cat":"CHEMISTRY","orres":"5.11","orresu":"mmol/L","stresc":"5.11","stresn":"5.11","stresu":"mmol/L","stnrlo":"3.9","stnrhi":"5.6","nrind":"NORMAL","fast":null,"dtc":"2024-02-19","dy":"1","visit":"DAY 1 INOCULATION","visitnum":"2.0","epoch":"TREATMENT","spec":null,"method":null},{"seq":"12","testcd":"HGB","test":"Hemoglobin","cat":"HEMATOLOGY","orres":"124.72","orresu":"g/L","stresc":"124.72","stresn":"124.72","stresu":"g/L","stnrlo":"120","stnrhi":"155","nrind":"NORMAL","fast":null,"dtc":"2024-02-19","dy":"1","visit":"DAY 1 INOCULATION","visitnum":"2.0","epoch":"TREATMENT","spec":null,"method":null},{"seq":"13","testcd":"PLAT","test":"Platelets","cat":"HEMATOLOGY","orres":"305.71","orresu":"10^9/L","stresc":"305.71","stresn":"305.71","stresu":"10^9/L","stnrlo":"150","stnrhi":"400","nrind":"NORMAL","fast":null,"dtc":"2024-02-19","dy":"1","visit":"DAY 1 INOCULATION","visitnum":"2.0","epoch":"TREATMENT","spec":null,"method":null},{"seq":"14","testcd":"WBC","test":"Leukocytes","cat":"HEMATOLOGY","orres":"5.07","orresu":"10^9/L","stresc":"5.07","stresn":"5.07","stresu":"10^9/L","stnrlo":"4.0","stnrhi":"11.0","nrind":"NORMAL","fast":null,"dtc":"2024-02-19","dy":"1","visit":"DAY 1 INOCULATION","visitnum":"2.0","epoch":"TREATMENT","spec":null,"method":null},{"seq":"15","testcd":"ALT","test":"Alanine Aminotransferase","cat":"CHEMISTRY","orres":"16.74","orresu":"U/L","stresc":"16.74","stresn":"16.74","stresu":"U/L","stnrlo":"7","stnrhi":"56","nrind":"NORMAL","fast":null,"dtc":"2024-02-22","dy":"4","visit":"DAY 4 QUARANTINE","visitnum":"3.0","epoch":"QUARANTINE","spec":null,"method":null},{"seq":"16","testcd":"AST","test":"Aspartate Aminotransferase","cat":"CHEMISTRY","orres":"20.37","orresu":"U/L","stresc":"20.37","stresn":"20.37","stresu":"U/L","stnrlo":"10","stnrhi":"40","nrind":"NORMAL","fast":null,"dtc":"2024-02-22","dy":"4","visit":"DAY 4 QUARANTINE","visitnum":"3.0","epoch":"QUARANTINE","spec":null,"method":null},{"seq":"17","testcd":"CREAT","test":"Creatinine","cat":"CHEMISTRY","orres":"50.36","orresu":"umol/L","stresc":"50.36","stresn":"50.36","stresu":"umol/L","stnrlo":"44","stnrhi":"80","nrind":"NORMAL","fast":null,"dtc":"2024-02-22","dy":"4","visit":"DAY 4 QUARANTINE","visitnum":"3.0","epoch":"QUARANTINE","spec":null,"method":null},{"seq":"18","testcd":"GLUC","test":"Glucose","cat":"CHEMISTRY","orres":"4.9","orresu":"mmol/L","stresc":"4.9","stresn":"4.9","stresu":"mmol/L","stnrlo":"3.9","stnrhi":"5.6","nrind":"NORMAL","fast":null,"dtc":"2024-02-22","dy":"4","visit":"DAY 4 QUARANTINE","visitnum":"3.0","epoch":"QUARANTINE","spec":null,"method":null},{"seq":"19","testcd":"HGB","test":"Hemoglobin","cat":"HEMATOLOGY","orres":"123.31","orresu":"g/L","stresc":"123.31","stresn":"123.31","stresu":"g/L","stnrlo":"120","stnrhi":"155","nrind":"NORMAL","fast":null,"dtc":"2024-02-22","dy":"4","visit":"DAY 4 QUARANTINE","visitnum":"3.0","epoch":"QUARANTINE","spec":null,"method":null},{"seq":"20","testcd":"PLAT","test":"Platelets","cat":"HEMATOLOGY","orres":"311.71","orresu":"10^9/L","stresc":"311.71","stresn":"311.71","stresu":"10^9/L","stnrlo":"150","stnrhi":"400","nrind":"NORMAL","fast":null,"dtc":"2024-02-22","dy":"4","visit":"DAY 4 QUARANTINE","visitnum":"3.0","epoch":"QUARANTINE","spec":null,"method":null},{"seq":"21","testcd":"WBC","test":"Leukocytes","cat":"HEMATOLOGY","orres":"5.0","orresu":"10^9/L","stresc":"5.0","stresn":"5.0","stresu":"10^9/L","stnrlo":"4.0","stnrhi":"11.0","nrind":"NORMAL","fast":null,"dtc":"2024-02-22","dy":"4","visit":"DAY 4 QUARANTINE","visitnum":"3.0","epoch":"QUARANTINE","spec":null,"method":null},{"seq":"22","testcd":"ALT","test":"Alanine Aminotransferase","cat":"CHEMISTRY","orres":"17.81","orresu":"U/L","stresc":"17.81","stresn":"17.81","stresu":"U/L","stnrlo":"7","stnrhi":"56","nrind":"NORMAL","fast":null,"dtc":"2024-03-04","dy":"15","visit":"DAY 14 DISCHARGE","visitnum":"5.0","epoch":"QUARANTINE","spec":null,"method":null},{"seq":"23","testcd":"AST","test":"Aspartate Aminotransferase","cat":"CHEMISTRY","orres":"20.61","orresu":"U/L","stresc":"20.61","stresn":"20.61","stresu":"U/L","stnrlo":"10","stnrhi":"40","nrind":"NORMAL","fast":null,"dtc":"2024-03-04","dy":"15","visit":"DAY 14 DISCHARGE","visitnum":"5.0","epoch":"QUARANTINE","spec":null,"method":null},{"seq":"24","testcd":"CREAT","test":"Creatinine","cat":"CHEMISTRY","orres":"52.89","orresu":"umol/L","stresc":"52.89","stresn":"52.89","stresu":"umol/L","stnrlo":"44","stnrhi":"80","nrind":"NORMAL","fast":null,"dtc":"2024-03-04","dy":"15","visit":"DAY 14 DISCHARGE","visitnum":"5.0","epoch":"QUARANTINE","spec":null,"method":null},{"seq":"25","testcd":"GLUC","test":"Glucose","cat":"CHEMISTRY","orres":"4.93","orresu":"mmol/L","stresc":"4.93","stresn":"4.93","stresu":"mmol/L","stnrlo":"3.9","stnrhi":"5.6","nrind":"NORMAL","fast":null,"dtc":"2024-03-04","dy":"15","visit":"DAY 14 DISCHARGE","visitnum":"5.0","epoch":"QUARANTINE","spec":null,"method":null},{"seq":"26","testcd":"HGB","test":"Hemoglobin","cat":"HEMATOLOGY","orres":"121.88","orresu":"g/L","stresc":"121.88","stresn":"121.88","stresu":"g/L","stnrlo":"120","stnrhi":"155","nrind":"NORMAL","fast":null,"dtc":"2024-03-04","dy":"15","visit":"DAY 14 DISCHARGE","visitnum":"5.0","epoch":"QUARANTINE","spec":null,"method":null},{"seq":"27","testcd":"PLAT","test":"Platelets","cat":"HEMATOLOGY","orres":"310.83","orresu":"10^9/L","stresc":"310.83","stresn":"310.83","stresu":"10^9/L","stnrlo":"150","stnrhi":"400","nrind":"NORMAL","fast":null,"dtc":"2024-03-04","dy":"15","visit":"DAY 14 DISCHARGE","visitnum":"5.0","epoch":"QUARANTINE","spec":null,"method":null},{"seq":"28","testcd":"WBC","test":"Leukocytes","cat":"HEMATOLOGY","orres":"5.72","orresu":"10^9/L","stresc":"5.72","stresn":"5.72","stresu":"10^9/L","stnrlo":"4.0","stnrhi":"11.0","nrind":"NORMAL","fast":null,"dtc":"2024-03-04","dy":"15","visit":"DAY 14 DISCHARGE","visitnum":"5.0","epoch":"QUARANTINE","spec":null,"method":null},{"seq":"29","testcd":"ALT","test":"Alanine Aminotransferase","cat":"CHEMISTRY","orres":"18.71","orresu":"U/L","stresc":"18.71","stresn":"18.71","stresu":"U/L","stnrlo":"7","stnrhi":"56","nrind":"NORMAL","fast":null,"dtc":"2024-03-18","dy":"29","visit":"DAY 28 FU","visitnum":"6.0","epoch":"FOLLOW-UP","spec":null,"method":null},{"seq":"30","testcd":"AST","test":"Aspartate Aminotransferase","cat":"CHEMISTRY","orres":"21.23","orresu":"U/L","stresc":"21.23","stresn":"21.23","stresu":"U/L","stnrlo":"10","stnrhi":"40","nrind":"NORMAL","fast":null,"dtc":"2024-03-18","dy":"29","visit":"DAY 28 FU","visitnum":"6.0","epoch":"FOLLOW-UP","spec":null,"method":null},{"seq":"31","testcd":"CREAT","test":"Creatinine","cat":"CHEMISTRY","orres":"52.05","orresu":"umol/L","stresc":"52.05","stresn":"52.05","stresu":"umol/L","stnrlo":"44","stnrhi":"80","nrind":"NORMAL","fast":null,"dtc":"2024-03-18","dy":"29","visit":"DAY 28 FU","visitnum":"6.0","epoch":"FOLLOW-UP","spec":null,"method":null},{"seq":"32","testcd":"GLUC","test":"Glucose","cat":"CHEMISTRY","orres":"5.02","orresu":"mmol/L","stresc":"5.02","stresn":"5.02","stresu":"mmol/L","stnrlo":"3.9","stnrhi":"5.6","nrind":"NORMAL","fast":null,"dtc":"2024-03-18","dy":"29","visit":"DAY 28 FU","visitnum":"6.0","epoch":"FOLLOW-UP","spec":null,"method":null},{"seq":"33","testcd":"HGB","test":"Hemoglobin","cat":"HEMATOLOGY","orres":"121.47","orresu":"g/L","stresc":"121.47","stresn":"121.47","stresu":"g/L","stnrlo":"120","stnrhi":"155","nrind":"NORMAL","fast":null,"dtc":"2024-03-18","dy":"29","visit":"DAY 28 FU","visitnum":"6.0","epoch":"FOLLOW-UP","spec":null,"method":null},{"seq":"34","testcd":"PLAT","test":"Platelets","cat":"HEMATOLOGY","orres":"304.96","orresu":"10^9/L","stresc":"304.96","stresn":"304.96","stresu":"10^9/L","stnrlo":"150","stnrhi":"400","nrind":"NORMAL","fast":null,"dtc":"2024-03-18","dy":"29","visit":"DAY 28 FU","visitnum":"6.0","epoch":"FOLLOW-UP","spec":null,"method":null},{"seq":"35","testcd":"WBC","test":"Leukocytes","cat":"HEMATOLOGY","orres":"4.6","orresu":"10^9/L","stresc":"4.6","stresn":"4.6","stresu":"10^9/L","stnrlo":"4.0","stnrhi":"11.0","nrind":"NORMAL","fast":null,"dtc":"2024-03-18","dy":"29","visit":"DAY 28 FU","visitnum":"6.0","epoch":"FOLLOW-UP","spec":null,"method":null},{"seq":"36","testcd":"ALT","test":"Alanine Aminotransferase","cat":"CHEMISTRY","orres":"21.08","orresu":"U/L","stresc":"21.08","stresn":"21.08","stresu":"U/L","stnrlo":"7","stnrhi":"56","nrind":"NORMAL","fast":null,"dtc":"2024-05-19","dy":"91","visit":"MONTH 3 FU","visitnum":"7.0","epoch":"FOLLOW-UP","spec":null,"method":null},{"seq":"37","testcd":"AST","test":"Aspartate Aminotransferase","cat":"CHEMISTRY","orres":"23.56","orresu":"U/L","stresc":"23.56","stresn":"23.56","stresu":"U/L","stnrlo":"10","stnrhi":"40","nrind":"NORMAL","fast":null,"dtc":"2024-05-19","dy":"91","visit":"MONTH 3 FU","visitnum":"7.0","epoch":"FOLLOW-UP","spec":null,"method":null},{"seq":"38","testcd":"CREAT","test":"Creatinine","cat":"CHEMISTRY","orres":"50.48","orresu":"umol/L","stresc":"50.48","stresn":"50.48","stresu":"umol/L","stnrlo":"44","stnrhi":"80","nrind":"NORMAL","fast":null,"dtc":"2024-05-19","dy":"91","visit":"MONTH 3 FU","visitnum":"7.0","epoch":"FOLLOW-UP","spec":null,"method":null},{"seq":"39","testcd":"GLUC","test":"Glucose","cat":"CHEMISTRY","orres":"4.96","orresu":"mmol/L","stresc":"4.96","stresn":"4.96","stresu":"mmol/L","stnrlo":"3.9","stnrhi":"5.6","nrind":"NORMAL","fast":null,"dtc":"2024-05-19","dy":"91","visit":"MONTH 3 FU","visitnum":"7.0","epoch":"FOLLOW-UP","spec":null,"method":null},{"seq":"40","testcd":"HGB","test":"Hemoglobin","cat":"HEMATOLOGY","orres":"122.58","orresu":"g/L","stresc":"122.58","stresn":"122.58","stresu":"g/L","stnrlo":"120","stnrhi":"155","nrind":"NORMAL","fast":null,"dtc":"2024-05-19","dy":"91","visit":"MONTH 3 FU","visitnum":"7.0","epoch":"FOLLOW-UP","spec":null,"method":null},{"seq":"41","testcd":"PLAT","test":"Platelets","cat":"HEMATOLOGY","orres":"323.23","orresu":"10^9/L","stresc":"323.23","stresn":"323.23","stresu":"10^9/L","stnrlo":"150","stnrhi":"400","nrind":"NORMAL","fast":null,"dtc":"2024-05-19","dy":"91","visit":"MONTH 3 FU","visitnum":"7.0","epoch":"FOLLOW-UP","spec":null,"method":null},{"seq":"42","testcd":"WBC","test":"Leukocytes","cat":"HEMATOLOGY","orres":"4.57","orresu":"10^9/L","stresc":"4.57","stresn":"4.57","stresu":"10^9/L","stnrlo":"4.0","stnrhi":"11.0","nrind":"NORMAL","fast":null,"dtc":"2024-05-19","dy":"91","visit":"MONTH 3 FU","visitnum":"7.0","epoch":"FOLLOW-UP","spec":null,"method":null},{"seq":"43","testcd":"ALT","test":"Alanine Aminotransferase","cat":"CHEMISTRY","orres":"20.64","orresu":"U/L","stresc":"20.64","stresn":"20.64","stresu":"U/L","stnrlo":"7","stnrhi":"56","nrind":"NORMAL","fast":null,"dtc":"2025-03-01","dy":"377","visit":"MONTH 12 FU","visitnum":"9.0","epoch":"FOLLOW-UP","spec":null,"method":null},{"seq":"44","testcd":"AST","test":"Aspartate Aminotransferase","cat":"CHEMISTRY","orres":"26.57","orresu":"U/L","stresc":"26.57","stresn":"26.57","stresu":"U/L","stnrlo":"10","stnrhi":"40","nrind":"NORMAL","fast":null,"dtc":"2025-03-01","dy":"377","visit":"MONTH 12 FU","visitnum":"9.0","epoch":"FOLLOW-UP","spec":null,"method":null},{"seq":"45","testcd":"CREAT","test":"Creatinine","cat":"CHEMISTRY","orres":"49.02","orresu":"umol/L","stresc":"49.02","stresn":"49.02","stresu":"umol/L","stnrlo":"44","stnrhi":"80","nrind":"NORMAL","fast":null,"dtc":"2025-03-01","dy":"377","visit":"MONTH 12 FU","visitnum":"9.0","epoch":"FOLLOW-UP","spec":null,"method":null},{"seq":"46","testcd":"GLUC","test":"Glucose","cat":"CHEMISTRY","orres":"5.07","orresu":"mmol/L","stresc":"5.07","stresn":"5.07","stresu":"mmol/L","stnrlo":"3.9","stnrhi":"5.6","nrind":"NORMAL","fast":null,"dtc":"2025-03-01","dy":"377","visit":"MONTH 12 FU","visitnum":"9.0","epoch":"FOLLOW-UP","spec":null,"method":null},{"seq":"47","testcd":"HGB","test":"Hemoglobin","cat":"HEMATOLOGY","orres":"123.52","orresu":"g/L","stresc":"123.52","stresn":"123.52","stresu":"g/L","stnrlo":"120","stnrhi":"155","nrind":"NORMAL","fast":null,"dtc":"2025-03-01","dy":"377","visit":"MONTH 12 FU","visitnum":"9.0","epoch":"FOLLOW-UP","spec":null,"method":null},{"seq":"48","testcd":"PLAT","test":"Platelets","cat":"HEMATOLOGY","orres":"312.14","orresu":"10^9/L","stresc":"312.14","stresn":"312.14","stresu":"10^9/L","stnrlo":"150","stnrhi":"400","nrind":"NORMAL","fast":null,"dtc":"2025-03-01","dy":"377","visit":"MONTH 12 FU","visitnum":"9.0","epoch":"FOLLOW-UP","spec":null,"method":null},{"seq":"49","testcd":"WBC","test":"Leukocytes","cat":"HEMATOLOGY","orres":"5.06","orresu":"10^9/L","stresc":"5.06","stresn":"5.06","stresu":"10^9/L","stnrlo":"4.0","stnrhi":"11.0","nrind":"NORMAL","fast":null,"dtc":"2025-03-01","dy":"377","visit":"MONTH 12 FU","visitnum":"9.0","epoch":"FOLLOW-UP","spec":null,"method":null}]},"section_9_vital_signs":{"summary":{"total_records":47},"trends":{"BMI":[{"visit":"SCREENING","visitnum":"1.0","dtc":"2023-12-24","value":"26.3","unit":"kg/m2"},{"visit":"DAY 1 INOCULATION","visitnum":"2.0","dtc":"2024-02-19","value":"26.7","unit":"kg/m2"},{"visit":"DAY 4 QUARANTINE","visitnum":"3.0","dtc":"2024-02-22","value":"27.3","unit":"kg/m2"},{"visit":"DAY 14 DISCHARGE","visitnum":"5.0","dtc":"2024-03-04","value":"26.8","unit":"kg/m2"},{"visit":"MONTH 6 FU","visitnum":"8.0","dtc":"2024-08-07","value":"26.4","unit":"kg/m2"}],"DIABP":[{"visit":"SCREENING","visitnum":"1.0","dtc":"2023-12-24","value":"62.5","unit":"mmHg"},{"visit":"DAY 1 INOCULATION","visitnum":"2.0","dtc":"2024-02-19","value":"63.5","unit":"mmHg"},{"visit":"DAY 4 QUARANTINE","visitnum":"3.0","dtc":"2024-02-22","value":"61.4","unit":"mmHg"},{"visit":"DAY 7 QUARANTINE","visitnum":"4.0","dtc":"2024-02-25","value":"61.3","unit":"mmHg"},{"visit":"DAY 14 DISCHARGE","visitnum":"5.0","dtc":"2024-03-04","value":"61.5","unit":"mmHg"},{"visit":"MONTH 6 FU","visitnum":"8.0","dtc":"2024-08-07","value":"62.2","unit":"mmHg"}],"HEIGHT":[{"visit":"SCREENING","visitnum":"1.0","dtc":"2023-12-24","value":"167.5","unit":"cm"},{"visit":"DAY 1 INOCULATION","visitnum":"2.0","dtc":"2024-02-19","value":"168.6","unit":"cm"},{"visit":"DAY 4 QUARANTINE","visitnum":"3.0","dtc":"2024-02-22","value":"168.8","unit":"cm"},{"visit":"DAY 14 DISCHARGE","visitnum":"5.0","dtc":"2024-03-04","value":"169.3","unit":"cm"},{"visit":"MONTH 6 FU","visitnum":"8.0","dtc":"2024-08-07","value":"169.4","unit":"cm"}],"PULSE":[{"visit":"SCREENING","visitnum":"1.0","dtc":"2023-12-24","value":"72.9","unit":"beats/min"},{"visit":"DAY 1 INOCULATION","visitnum":"2.0","dtc":"2024-02-19","value":"71.0","unit":"beats/min"},{"visit":"DAY 4 QUARANTINE","visitnum":"3.0","dtc":"2024-02-22","value":"77.0","unit":"beats/min"},{"visit":"DAY 7 QUARANTINE","visitnum":"4.0","dtc":"2024-02-25","value":"73.7","unit":"beats/min"},{"visit":"DAY 14 DISCHARGE","visitnum":"5.0","dtc":"2024-03-04","value":"72.2","unit":"beats/min"},{"visit":"MONTH 6 FU","visitnum":"8.0","dtc":"2024-08-07","value":"71.9","unit":"beats/min"}],"RESP":[{"visit":"SCREENING","visitnum":"1.0","dtc":"2023-12-24","value":"12.8","unit":"breaths/min"},{"visit":"DAY 1 INOCULATION","visitnum":"2.0","dtc":"2024-02-19","value":"13.9","unit":"breaths/min"},{"visit":"DAY 4 QUARANTINE","visitnum":"3.0","dtc":"2024-02-22","value":"11.6","unit":"breaths/min"},{"visit":"DAY 7 QUARANTINE","visitnum":"4.0","dtc":"2024-02-25","value":"10.9","unit":"breaths/min"},{"visit":"DAY 14 DISCHARGE","visitnum":"5.0","dtc":"2024-03-04","value":"12.0","unit":"breaths/min"},{"visit":"MONTH 6 FU","visitnum":"8.0","dtc":"2024-08-07","value":"13.2","unit":"breaths/min"}],"SYSBP":[{"visit":"SCREENING","visitnum":"1.0","dtc":"2023-12-24","value":"85.6","unit":"mmHg"},{"visit":"DAY 1 INOCULATION","visitnum":"2.0","dtc":"2024-02-19","value":"86.8","unit":"mmHg"},{"visit":"DAY 4 QUARANTINE","visitnum":"3.0","dtc":"2024-02-22","value":"85.4","unit":"mmHg"},{"visit":"DAY 7 QUARANTINE","visitnum":"4.0","dtc":"2024-02-25","value":"82.2","unit":"mmHg"},{"visit":"DAY 14 DISCHARGE","visitnum":"5.0","dtc":"2024-03-04","value":"83.0","unit":"mmHg"},{"visit":"MONTH 6 FU","visitnum":"8.0","dtc":"2024-08-07","value":"84.4","unit":"mmHg"}],"TEMP":[{"visit":"SCREENING","visitnum":"1.0","dtc":"2023-12-24","value":"36.2","unit":"C"},{"visit":"DAY 1 INOCULATION","visitnum":"2.0","dtc":"2024-02-19","value":"35.8","unit":"C"},{"visit":"DAY 4 QUARANTINE","visitnum":"3.0","dtc":"2024-02-22","value":"35.9","unit":"C"},{"visit":"DAY 7 QUARANTINE","visitnum":"4.0","dtc":"2024-02-25","value":"35.5","unit":"C"},{"visit":"DAY 14 DISCHARGE","visitnum":"5.0","dtc":"2024-03-04","value":"35.6","unit":"C"},{"visit":"MONTH 6 FU","visitnum":"8.0","dtc":"2024-08-07","value":"35.7","unit":"C"}],"WEIGHT":[{"visit":"SCREENING","visitnum":"1.0","dtc":"2023-12-24","value":"73.9","unit":"kg"},{"visit":"DAY 1 INOCULATION","visitnum":"2.0","dtc":"2024-02-19","value":"75.9","unit":"kg"},{"visit":"DAY 4 QUARANTINE","visitnum":"3.0","dtc":"2024-02-22","value":"77.8","unit":"kg"},{"visit":"DAY 7 QUARANTINE","visitnum":"4.0","dtc":"2024-02-25","value":"77.8","unit":"kg"},{"visit":"DAY 14 DISCHARGE","visitnum":"5.0","dtc":"2024-03-04","value":"76.7","unit":"kg"},{"visit":"MONTH 6 FU","visitnum":"8.0","dtc":"2024-08-07","value":"75.8","unit":"kg"}]},"results":[{"seq":"1","testcd":"BMI","test":"BMI","cat":null,"orres":null,"orresu":null,"stresc":"26.3","stresn":"26.3","stresu":"kg/m2","stnrlo":null,"stnrhi":null,"nrind":null,"pos":null,"loc":null,"dtc":"2023-12-24","dy":"-57","visit":"SCREENING","visitnum":"1.0","epoch":"SCREENING"},{"seq":"2","testcd":"DIABP","test":"Diastolic Blood Pressure","cat":null,"orres":"62.5","orresu":"mmHg","stresc":"62.5","stresn":"62.5","stresu":"mmHg","stnrlo":null,"stnrhi":null,"nrind":null,"pos":null,"loc":null,"dtc":"2023-12-24","dy":"-57","visit":"SCREENING","visitnum":"1.0","epoch":"SCREENING"},{"seq":"3","testcd":"HEIGHT","test":"Height","cat":null,"orres":"167.5","orresu":"cm","stresc":"167.5","stresn":"167.5","stresu":"cm","stnrlo":null,"stnrhi":null,"nrind":null,"pos":null,"loc":null,"dtc":"2023-12-24","dy":"-57","visit":"SCREENING","visitnum":"1.0","epoch":"SCREENING"},{"seq":"4","testcd":"PULSE","test":"Pulse Rate","cat":null,"orres":"72.9","orresu":"beats/min","stresc":"72.9","stresn":"72.9","stresu":"beats/min","stnrlo":null,"stnrhi":null,"nrind":null,"pos":null,"loc":null,"dtc":"2023-12-24","dy":"-57","visit":"SCREENING","visitnum":"1.0","epoch":"SCREENING"},{"seq":"5","testcd":"RESP","test":"Respiratory Rate","cat":null,"orres":"12.8","orresu":"breaths/min","stresc":"12.8","stresn":"12.8","stresu":"breaths/min","stnrlo":null,"stnrhi":null,"nrind":null,"pos":null,"loc":null,"dtc":"2023-12-24","dy":"-57","visit":"SCREENING","visitnum":"1.0","epoch":"SCREENING"},{"seq":"6","testcd":"SYSBP","test":"Systolic Blood Pressure","cat":null,"orres":"85.6","orresu":"mmHg","stresc":"85.6","stresn":"85.6","stresu":"mmHg","stnrlo":null,"stnrhi":null,"nrind":null,"pos":null,"loc":null,"dtc":"2023-12-24","dy":"-57","visit":"SCREENING","visitnum":"1.0","epoch":"SCREENING"},{"seq":"7","testcd":"TEMP","test":"Temperature","cat":null,"orres":"36.2","orresu":"C","stresc":"36.2","stresn":"36.2","stresu":"C","stnrlo":null,"stnrhi":null,"nrind":null,"pos":null,"loc":null,"dtc":"2023-12-24","dy":"-57","visit":"SCREENING","visitnum":"1.0","epoch":"SCREENING"},{"seq":"8","testcd":"WEIGHT","test":"Weight","cat":null,"orres":"73.9","orresu":"kg","stresc":"73.9","stresn":"73.9","stresu":"kg","stnrlo":null,"stnrhi":null,"nrind":null,"pos":null,"loc":null,"dtc":"2023-12-24","dy":"-57","visit":"SCREENING","visitnum":"1.0","epoch":"SCREENING"},{"seq":"9","testcd":"BMI","test":"BMI","cat":null,"orres":null,"orresu":null,"stresc":"26.7","stresn":"26.7","stresu":"kg/m2","stnrlo":null,"stnrhi":null,"nrind":null,"pos":null,"loc":null,"dtc":"2024-02-19","dy":"1","visit":"DAY 1 INOCULATION","visitnum":"2.0","epoch":"TREATMENT"},{"seq":"10","testcd":"DIABP","test":"Diastolic Blood Pressure","cat":null,"orres":"63.5","orresu":"mmHg","stresc":"63.5","stresn":"63.5","stresu":"mmHg","stnrlo":null,"stnrhi":null,"nrind":null,"pos":null,"loc":null,"dtc":"2024-02-19","dy":"1","visit":"DAY 1 INOCULATION","visitnum":"2.0","epoch":"TREATMENT"},{"seq":"11","testcd":"HEIGHT","test":"Height","cat":null,"orres":"168.6","orresu":"cm","stresc":"168.6","stresn":"168.6","stresu":"cm","stnrlo":null,"stnrhi":null,"nrind":null,"pos":null,"loc":null,"dtc":"2024-02-19","dy":"1","visit":"DAY 1 INOCULATION","visitnum":"2.0","epoch":"TREATMENT"},{"seq":"12","testcd":"PULSE","test":"Pulse Rate","cat":null,"orres":"71.0","orresu":"beats/min","stresc":"71.0","stresn":"71.0","stresu":"beats/min","stnrlo":null,"stnrhi":null,"nrind":null,"pos":null,"loc":null,"dtc":"2024-02-19","dy":"1","visit":"DAY 1 INOCULATION","visitnum":"2.0","epoch":"TREATMENT"},{"seq":"13","testcd":"RESP","test":"Respiratory Rate","cat":null,"orres":"13.9","orresu":"breaths/min","stresc":"13.9","stresn":"13.9","stresu":"breaths/min","stnrlo":null,"stnrhi":null,"nrind":null,"pos":null,"loc":null,"dtc":"2024-02-19","dy":"1","visit":"DAY 1 INOCULATION","visitnum":"2.0","epoch":"TREATMENT"},{"seq":"14","testcd":"SYSBP","test":"Systolic Blood Pressure","cat":null,"orres":"86.8","orresu":"mmHg","stresc":"86.8","stresn":"86.8","stresu":"mmHg","stnrlo":null,"stnrhi":null,"nrind":null,"pos":null,"loc":null,"dtc":"2024-02-19","dy":"1","visit":"DAY 1 INOCULATION","visitnum":"2.0","epoch":"TREATMENT"},{"seq":"15","testcd":"TEMP","test":"Temperature","cat":null,"orres":"35.8","orresu":"C","stresc":"35.8","stresn":"35.8","stresu":"C","stnrlo":null,"stnrhi":null,"nrind":null,"pos":null,"loc":null,"dtc":"2024-02-19","dy":"1","visit":"DAY 1 INOCULATION","visitnum":"2.0","epoch":"TREATMENT"},{"seq":"16","testcd":"WEIGHT","test":"Weight","cat":null,"orres":"75.9","orresu":"kg","stresc":"75.9","stresn":"75.9","stresu":"kg","stnrlo":null,"stnrhi":null,"nrind":null,"pos":null,"loc":null,"dtc":"2024-02-19","dy":"1","visit":"DAY 1 INOCULATION","visitnum":"2.0","epoch":"TREATMENT"},{"seq":"17","testcd":"BMI","test":"BMI","cat":null,"orres":null,"orresu":null,"stresc":"27.3","stresn":"27.3","stresu":"kg/m2","stnrlo":null,"stnrhi":null,"nrind":null,"pos":null,"loc":null,"dtc":"2024-02-22","dy":"4","visit":"DAY 4 QUARANTINE","visitnum":"3.0","epoch":"QUARANTINE"},{"seq":"18","testcd":"DIABP","test":"Diastolic Blood Pressure","cat":null,"orres":"61.4","orresu":"mmHg","stresc":"61.4","stresn":"61.4","stresu":"mmHg","stnrlo":null,"stnrhi":null,"nrind":null,"pos":null,"loc":null,"dtc":"2024-02-22","dy":"4","visit":"DAY 4 QUARANTINE","visitnum":"3.0","epoch":"QUARANTINE"},{"seq":"19","testcd":"HEIGHT","test":"Height","cat":null,"orres":"168.8","orresu":"cm","stresc":"168.8","stresn":"168.8","stresu":"cm","stnrlo":null,"stnrhi":null,"nrind":null,"pos":null,"loc":null,"dtc":"2024-02-22","dy":"4","visit":"DAY 4 QUARANTINE","visitnum":"3.0","epoch":"QUARANTINE"},{"seq":"20","testcd":"PULSE","test":"Pulse Rate","cat":null,"orres":"77.0","orresu":"beats/min","stresc":"77.0","stresn":"77.0","stresu":"beats/min","stnrlo":null,"stnrhi":null,"nrind":null,"pos":null,"loc":null,"dtc":"2024-02-22","dy":"4","visit":"DAY 4 QUARANTINE","visitnum":"3.0","epoch":"QUARANTINE"},{"seq":"21","testcd":"RESP","test":"Respiratory Rate","cat":null,"orres":"11.6","orresu":"breaths/min","stresc":"11.6","stresn":"11.6","stresu":"breaths/min","stnrlo":null,"stnrhi":null,"nrind":null,"pos":null,"loc":null,"dtc":"2024-02-22","dy":"4","visit":"DAY 4 QUARANTINE","visitnum":"3.0","epoch":"QUARANTINE"},{"seq":"22","testcd":"SYSBP","test":"Systolic Blood Pressure","cat":null,"orres":"85.4","orresu":"mmHg","stresc":"85.4","stresn":"85.4","stresu":"mmHg","stnrlo":null,"stnrhi":null,"nrind":null,"pos":null,"loc":null,"dtc":"2024-02-22","dy":"4","visit":"DAY 4 QUARANTINE","visitnum":"3.0","epoch":"QUARANTINE"},{"seq":"23","testcd":"TEMP","test":"Temperature","cat":null,"orres":"35.9","orresu":"C","stresc":"35.9","stresn":"35.9","stresu":"C","stnrlo":null,"stnrhi":null,"nrind":null,"pos":null,"loc":null,"dtc":"2024-02-22","dy":"4","visit":"DAY 4 QUARANTINE","visitnum":"3.0","epoch":"QUARANTINE"},{"seq":"24","testcd":"WEIGHT","test":"Weight","cat":null,"orres":"77.8","orresu":"kg","stresc":"77.8","stresn":"77.8","stresu":"kg","stnrlo":null,"stnrhi":null,"nrind":null,"pos":null,"loc":null,"dtc":"2024-02-22","dy":"4","visit":"DAY 4 QUARANTINE","visitnum":"3.0","epoch":"QUARANTINE"},{"seq":"25","testcd":"DIABP","test":"Diastolic Blood Pressure","cat":null,"orres":"61.3","orresu":"mmHg","stresc":"61.3","stresn":"61.3","stresu":"mmHg","stnrlo":null,"stnrhi":null,"nrind":null,"pos":null,"loc":null,"dtc":"2024-02-25","dy":"7","visit":"DAY 7 QUARANTINE","visitnum":"4.0","epoch":"QUARANTINE"},{"seq":"26","testcd":"HEIGHT","test":"Height","cat":null,"orres":null,"orresu":null,"stresc":null,"stresn":null,"stresu":null,"stnrlo":null,"stnrhi":null,"nrind":null,"pos":null,"loc":null,"dtc":"2024-02-25","dy":"7","visit":"DAY 7 QUARANTINE","visitnum":"4.0","epoch":"QUARANTINE"},{"seq":"27","testcd":"PULSE","test":"Pulse Rate","cat":null,"orres":"73.7","orresu":"beats/min","stresc":"73.7","stresn":"73.7","stresu":"beats/min","stnrlo":null,"stnrhi":null,"nrind":null,"pos":null,"loc":null,"dtc":"2024-02-25","dy":"7","visit":"DAY 7 QUARANTINE","visitnum":"4.0","epoch":"QUARANTINE"},{"seq":"28","testcd":"RESP","test":"Respiratory Rate","cat":null,"orres":"10.9","orresu":"breaths/min","stresc":"10.9","stresn":"10.9","stresu":"breaths/min","stnrlo":null,"stnrhi":null,"nrind":null,"pos":null,"loc":null,"dtc":"2024-02-25","dy":"7","visit":"DAY 7 QUARANTINE","visitnum":"4.0","epoch":"QUARANTINE"},{"seq":"29","testcd":"SYSBP","test":"Systolic Blood Pressure","cat":null,"orres":"82.2","orresu":"mmHg","stresc":"82.2","stresn":"82.2","stresu":"mmHg","stnrlo":null,"stnrhi":null,"nrind":null,"pos":null,"loc":null,"dtc":"2024-02-25","dy":"7","visit":"DAY 7 QUARANTINE","visitnum":"4.0","epoch":"QUARANTINE"},{"seq":"30","testcd":"TEMP","test":"Temperature","cat":null,"orres":"35.5","orresu":"C","stresc":"35.5","stresn":"35.5","stresu":"C","stnrlo":null,"stnrhi":null,"nrind":null,"pos":null,"loc":null,"dtc":"2024-02-25","dy":"7","visit":"DAY 7 QUARANTINE","visitnum":"4.0","epoch":"QUARANTINE"},{"seq":"31","testcd":"WEIGHT","test":"Weight","cat":null,"orres":"77.8","orresu":"kg","stresc":"77.8","stresn":"77.8","stresu":"kg","stnrlo":null,"stnrhi":null,"nrind":null,"pos":null,"loc":null,"dtc":"2024-02-25","dy":"7","visit":"DAY 7 QUARANTINE","visitnum":"4.0","epoch":"QUARANTINE"},{"seq":"32","testcd":"BMI","test":"BMI","cat":null,"orres":null,"orresu":null,"stresc":"26.8","stresn":"26.8","stresu":"kg/m2","stnrlo":null,"stnrhi":null,"nrind":null,"pos":null,"loc":null,"dtc":"2024-03-04","dy":"15","visit":"DAY 14 DISCHARGE","visitnum":"5.0","epoch":"QUARANTINE"},{"seq":"33","testcd":"DIABP","test":"Diastolic Blood Pressure","cat":null,"orres":"61.5","orresu":"mmHg","stresc":"61.5","stresn":"61.5","stresu":"mmHg","stnrlo":null,"stnrhi":null,"nrind":null,"pos":null,"loc":null,"dtc":"2024-03-04","dy":"15","visit":"DAY 14 DISCHARGE","visitnum":"5.0","epoch":"QUARANTINE"},{"seq":"34","testcd":"HEIGHT","test":"Height","cat":null,"orres":"169.3","orresu":"cm","stresc":"169.3","stresn":"169.3","stresu":"cm","stnrlo":null,"stnrhi":null,"nrind":null,"pos":null,"loc":null,"dtc":"2024-03-04","dy":"15","visit":"DAY 14 DISCHARGE","visitnum":"5.0","epoch":"QUARANTINE"},{"seq":"35","testcd":"PULSE","test":"Pulse Rate","cat":null,"orres":"72.2","orresu":"beats/min","stresc":"72.2","stresn":"72.2","stresu":"beats/min","stnrlo":null,"stnrhi":null,"nrind":null,"pos":null,"loc":null,"dtc":"2024-03-04","dy":"15","visit":"DAY 14 DISCHARGE","visitnum":"5.0","epoch":"QUARANTINE"},{"seq":"36","testcd":"RESP","test":"Respiratory Rate","cat":null,"orres":"12.0","orresu":"breaths/min","stresc":"12.0","stresn":"12.0","stresu":"breaths/min","stnrlo":null,"stnrhi":null,"nrind":null,"pos":null,"loc":null,"dtc":"2024-03-04","dy":"15","visit":"DAY 14 DISCHARGE","visitnum":"5.0","epoch":"QUARANTINE"},{"seq":"37","testcd":"SYSBP","test":"Systolic Blood Pressure","cat":null,"orres":"83.0","orresu":"mmHg","stresc":"83.0","stresn":"83.0","stresu":"mmHg","stnrlo":null,"stnrhi":null,"nrind":null,"pos":null,"loc":null,"dtc":"2024-03-04","dy":"15","visit":"DAY 14 DISCHARGE","visitnum":"5.0","epoch":"QUARANTINE"},{"seq":"38","testcd":"TEMP","test":"Temperature","cat":null,"orres":"35.6","orresu":"C","stresc":"35.6","stresn":"35.6","stresu":"C","stnrlo":null,"stnrhi":null,"nrind":null,"pos":null,"loc":null,"dtc":"2024-03-04","dy":"15","visit":"DAY 14 DISCHARGE","visitnum":"5.0","epoch":"QUARANTINE"},{"seq":"39","testcd":"WEIGHT","test":"Weight","cat":null,"orres":"76.7","orresu":"kg","stresc":"76.7","stresn":"76.7","stresu":"kg","stnrlo":null,"stnrhi":null,"nrind":null,"pos":null,"loc":null,"dtc":"2024-03-04","dy":"15","visit":"DAY 14 DISCHARGE","visitnum":"5.0","epoch":"QUARANTINE"},{"seq":"40","testcd":"BMI","test":"BMI","cat":null,"orres":null,"orresu":null,"stresc":"26.4","stresn":"26.4","stresu":"kg/m2","stnrlo":null,"stnrhi":null,"nrind":null,"pos":null,"loc":null,"dtc":"2024-08-07","dy":"171","visit":"MONTH 6 FU","visitnum":"8.0","epoch":"FOLLOW-UP"},{"seq":"41","testcd":"DIABP","test":"Diastolic Blood Pressure","cat":null,"orres":"62.2","orresu":"mmHg","stresc":"62.2","stresn":"62.2","stresu":"mmHg","stnrlo":null,"stnrhi":null,"nrind":null,"pos":null,"loc":null,"dtc":"2024-08-07","dy":"171","visit":"MONTH 6 FU","visitnum":"8.0","epoch":"FOLLOW-UP"},{"seq":"42","testcd":"HEIGHT","test":"Height","cat":null,"orres":"169.4","orresu":"cm","stresc":"169.4","stresn":"169.4","stresu":"cm","stnrlo":null,"stnrhi":null,"nrind":null,"pos":null,"loc":null,"dtc":"2024-08-07","dy":"171","visit":"MONTH 6 FU","visitnum":"8.0","epoch":"FOLLOW-UP"},{"seq":"43","testcd":"PULSE","test":"Pulse Rate","cat":null,"orres":"71.9","orresu":"beats/min","stresc":"71.9","stresn":"71.9","stresu":"beats/min","stnrlo":null,"stnrhi":null,"nrind":null,"pos":null,"loc":null,"dtc":"2024-08-07","dy":"171","visit":"MONTH 6 FU","visitnum":"8.0","epoch":"FOLLOW-UP"},{"seq":"44","testcd":"RESP","test":"Respiratory Rate","cat":null,"orres":"13.2","orresu":"breaths/min","stresc":"13.2","stresn":"13.2","stresu":"breaths/min","stnrlo":null,"stnrhi":null,"nrind":null,"pos":null,"loc":null,"dtc":"2024-08-07","dy":"171","visit":"MONTH 6 FU","visitnum":"8.0","epoch":"FOLLOW-UP"},{"seq":"45","testcd":"SYSBP","test":"Systolic Blood Pressure","cat":null,"orres":"84.4","orresu":"mmHg","stresc":"84.4","stresn":"84.4","stresu":"mmHg","stnrlo":null,"stnrhi":null,"nrind":null,"pos":null,"loc":null,"dtc":"2024-08-07","dy":"171","visit":"MONTH 6 FU","visitnum":"8.0","epoch":"FOLLOW-UP"},{"seq":"46","testcd":"TEMP","test":"Temperature","cat":null,"orres":"35.7","orresu":"C","stresc":"35.7","stresn":"35.7","stresu":"C","stnrlo":null,"stnrhi":null,"nrind":null,"pos":null,"loc":null,"dtc":"2024-08-07","dy":"171","visit":"MONTH 6 FU","visitnum":"8.0","epoch":"FOLLOW-UP"},{"seq":"47","testcd":"WEIGHT","test":"Weight","cat":null,"orres":"75.8","orresu":"kg","stresc":"75.8","stresn":"75.8","stresu":"kg","stnrlo":null,"stnrhi":null,"nrind":null,"pos":null,"loc":null,"dtc":"2024-08-07","dy":"171","visit":"MONTH 6 FU","visitnum":"8.0","epoch":"FOLLOW-UP"}]},"section_10_questionnaires_and_scores":{"questionnaires":[],"findings_about":[]},"section_11_protocol_deviations":{"deviations":[{"seq":"1","term":"Dose modified from 10.0 to 200.0 mg","decod":"DOSE MODIFICATION","cat":"MINOR","scat":"DOSING","start_dtc":"2024-02-21","end_dtc":null,"visit":null}],"total":1},"section_12_disposition":{"completion_status":"COMPLETED","disposition_records":[{"seq":"1","term":"INFORMED CONSENT OBTAINED","decod":"INFORMED CONSENT OBTAINED","cat":"PROTOCOL MILESTONE","scat":null,"dtc":"2024-01-19","dy":null,"visit":null,"epoch":"SCREENING"},{"seq":"2","term":"RANDOMIZED","decod":"RANDOMIZED","cat":"PROTOCOL MILESTONE","scat":null,"dtc":"2024-02-19","dy":null,"visit":null,"epoch":"TREATMENT"},{"seq":"3","term":"COMPLETED","decod":"COMPLETED","cat":"DISPOSITION EVENT","scat":null,"dtc":"2025-03-17","dy":null,"visit":null,"epoch":"FOLLOW-UP"}],"death":null},"section_13_hospitalizations":{"items":[],"total":0},"section_14_substance_use":{"items":[{"seq":"1","substance":"BEER/WINE/SPIRITS","decod":"ETHANOL","cat":"ALCOHOL","scat":null,"usage":"N","dose":null,"dosu":null,"freq":null,"start_dtc":null,"end_dtc":null},{"seq":"2","substance":"COFFEE","decod":"COFFEE","cat":"CAFFEINE","scat":null,"usage":"Y","dose":null,"dosu":null,"freq":null,"start_dtc":"2008-01-23","end_dtc":"2017-01-20"},{"seq":"3","substance":"CIGARETTES","decod":"CIGARETTES","cat":"TOBACCO","scat":null,"usage":"Y","dose":null,"dosu":null,"freq":null,"start_dtc":"1996-01-26","end_dtc":"2010-01-22"}],"total":3},"section_15_subject_status":{"items":[{"seq":"1","testcd":"SURVSTAT","test":"Survival Status","orres":"ALIVE","stresc":"ALIVE","dtc":"2025-03-17","visit":null,"epoch":"FOLLOW-UP"}],"total":1}}