{"subject_id":"COVHIC001-CHALLENGE-UK_ICL_HVIVO01-0016","study_id":"COVHIC001-CHALLENGE","generated_at":"2026-07-07T05:03:09.739468+00:00","sdtmig_version":"3.4","flags":{"has_serious_ae":false,"has_fatal_ae":false,"has_protocol_deviation":true,"n_protocol_deviations":4,"n_adverse_events":1,"n_concomitant_meds":2,"max_ae_severity":"MODERATE","screen_failure":false,"discontinued_early":false,"discontinuation_reason":null,"death":false,"exposure_days":4},"timeline":[{"dtc":"2024-02-29","dy":"-39","event":"VISIT: SCREENING","domain":"SV","category":"visit"},{"dtc":"2024-04-01","dy":"-7","event":"INFORMED CONSENT OBTAINED","domain":"DS","category":"milestone"},{"dtc":"2024-04-08","dy":"1","event":"RANDOMIZED","domain":"DS","category":"milestone"},{"dtc":"2024-04-08","dy":"1","event":"FIRST DOSE: SARS-COV-2-CHALLENGE","domain":"EX","category":"exposure"},{"dtc":"2024-04-08","dy":"1","event":"VISIT: DAY 1 INOCULATION","domain":"SV","category":"visit"},{"dtc":"2024-04-11","dy":"4","event":"DEVIATION: DOSE MODIFICATION","domain":"DV","category":"deviation"},{"dtc":"2024-04-11","dy":"4","event":"VISIT: DAY 4 QUARANTINE","domain":"SV","category":"visit"},{"dtc":"2024-04-12","dy":"5","event":"LAST DOSE: REMDESIVIR","domain":"EX","category":"exposure"},{"dtc":"2024-04-13","dy":"6","event":"AE: Headache (MODERATE)","domain":"AE","category":"adverse_event"},{"dtc":"2024-04-13","dy":"6","event":"CM START: IBUPROFEN","domain":"CM","category":"concomitant_med"},{"dtc":"2024-04-14","dy":"7","event":"VISIT: DAY 7 QUARANTINE","domain":"SV","category":"visit"},{"dtc":"2024-04-22","dy":"15","event":"VISIT: DAY 14 DISCHARGE","domain":"SV","category":"visit"},{"dtc":"2024-05-06","dy":"29","event":"VISIT: DAY 28 FU","domain":"SV","category":"visit"},{"dtc":"2024-07-05","dy":"89","event":"DEVIATION: VISIT OCCURRED OUTSIDE VISIT WINDOW","domain":"DV","category":"deviation"},{"dtc":"2024-07-05","dy":"89","event":"DEVIATION: MISSED ASSESSMENT","domain":"DV","category":"deviation"},{"dtc":"2024-07-05","dy":"89","event":"VISIT: MONTH 3 FU","domain":"SV","category":"visit"},{"dtc":"2024-08-20","dy":"135","event":"CM START: PARACETAMOL","domain":"CM","category":"concomitant_med"},{"dtc":"2024-09-25","dy":"171","event":"VISIT: MONTH 6 FU","domain":"SV","category":"visit"},{"dtc":"2025-03-29","dy":"356","event":"DEVIATION: VISIT OCCURRED OUTSIDE VISIT WINDOW","domain":"DV","category":"deviation"},{"dtc":"2025-03-29","dy":"356","event":"VISIT: MONTH 12 FU","domain":"SV","category":"visit"},{"dtc":"2025-05-05","dy":"393","event":"COMPLETED","domain":"DS","category":"milestone"}],"section_1_demographics":{"usubjid":"COVHIC001-CHALLENGE-UK_ICL_HVIVO01-0016","subjid":"0016","siteid":"UK_ICL_HVIVO01","age":"26","ageu":"YEARS","sex":"F","race":"ASIAN","ethnicity":"NOT HISPANIC OR LATINO","country":"GBR","arm":"Dose 3 \u2014 1000 TCID50 intranasal SARS-CoV-2 + pre-emptive remdesivir","armcd":"DOSE3","actarm":"Dose 3 \u2014 1000 TCID50 intranasal SARS-CoV-2 + pre-emptive remdesivir","actarmcd":"DOSE3","randomization_date":null,"informed_consent_date":"2024-04-01","reference_start_date":"2024-04-08","reference_end_date":"2025-05-05","screen_failure":false,"death_flag":null,"death_date":null,"subject_characteristics":[{"testcd":"ALCUSE","test":"Alcohol Use","orres":"NON-DRINKER","stresc":"NON-DRINKER","visit":null,"dtc":"2024-04-01"},{"testcd":"BMI","test":"Body Mass Index","orres":"17.7","stresc":"17.7","visit":null,"dtc":"2024-04-01"},{"testcd":"DURDIS","test":"Duration of Disease","orres":"85 months","stresc":"85","visit":null,"dtc":"2024-04-01"},{"testcd":"TOBUSE","test":"Tobacco Use","orres":"NEVER SMOKED","stresc":"NEVER SMOKED","visit":null,"dtc":"2024-04-01"}]},"section_2_medical_history":{"items":[{"seq":"1","term":"ASTHMA","decod":"ASTHMA","cat":"RESPIRATORY","scat":null,"presp":null,"occur":null,"status":null,"onset_dtc":"2017-04-03","end_dtc":"2024-01-30","visit":null}]},"section_3_inclusion_exclusion":{"criteria":[]},"section_4_trial_participation":{"visits":[{"visitnum":"1.0","visit":"SCREENING","start_dtc":"2024-02-29","end_dtc":"2024-02-29","updes":null},{"visitnum":"2.0","visit":"DAY 1 INOCULATION","start_dtc":"2024-04-08","end_dtc":"2024-04-08","updes":null},{"visitnum":"3.0","visit":"DAY 4 QUARANTINE","start_dtc":"2024-04-11","end_dtc":"2024-04-11","updes":null},{"visitnum":"4.0","visit":"DAY 7 QUARANTINE","start_dtc":"2024-04-14","end_dtc":"2024-04-14","updes":null},{"visitnum":"5.0","visit":"DAY 14 DISCHARGE","start_dtc":"2024-04-22","end_dtc":"2024-04-22","updes":null},{"visitnum":"6.0","visit":"DAY 28 FU","start_dtc":"2024-05-06","end_dtc":"2024-05-06","updes":null},{"visitnum":"7.0","visit":"MONTH 3 FU","start_dtc":"2024-07-05","end_dtc":"2024-07-05","updes":null},{"visitnum":"8.0","visit":"MONTH 6 FU","start_dtc":"2024-09-25","end_dtc":"2024-09-25","updes":null},{"visitnum":"9.0","visit":"MONTH 12 FU","start_dtc":"2025-03-29","end_dtc":"2025-03-29","updes":null}],"epochs":[{"seq":"1","etcd":"SCRN","element":"Screening","start_dtc":"2024-03-11","end_dtc":"2024-04-08","updes":null},{"seq":"2","etcd":"INOC","element":"Inoculation + quarantine","start_dtc":"2024-04-08","end_dtc":"2024-04-22","updes":null},{"seq":"3","etcd":"FU","element":"Outpatient follow-up","start_dtc":"2024-04-22","end_dtc":"2025-04-16","updes":null}],"visit_count":9},"section_5_concomitant_medications":{"medications":[{"seq":"1","trt":"IBUPROFEN","decod":"IBUPROFEN","cat":"CONCOMITANT","dose":"400","doseu":null,"dosef":"PRN","route":"ORAL","indication":"HEADACHE","start_dtc":"2024-04-13","end_dtc":"2024-04-20","ongoing":null,"visit":null},{"seq":"2","trt":"PARACETAMOL","decod":"PARACETAMOL","cat":"CONCOMITANT","dose":null,"doseu":null,"dosef":"PRN","route":"ORAL","indication":null,"start_dtc":"2024-08-20","end_dtc":"2024-09-07","ongoing":null,"visit":null}]},"section_6_exposure":{"exposure_as_administered":[{"seq":"1","trt":"SARS-COV-2-CHALLENGE","dose":"1000.0","doseu":null,"dosef":"ONCE","route":"NASAL","lot":null,"start_dtc":"2024-04-08","end_dtc":"2024-04-08","start_dy":"1","end_dy":"1","epoch":"TREATMENT","visit":null},{"seq":"2","trt":"REMDESIVIR","dose":"200.0","doseu":null,"dosef":"ONCE","route":"INTRAVENOUS","lot":null,"start_dtc":"2024-04-10","end_dtc":"2024-04-10","start_dy":"3","end_dy":"3","epoch":"TREATMENT","visit":null},{"seq":"3","trt":"REMDESIVIR","dose":"100.0","doseu":null,"dosef":"QD","route":"INTRAVENOUS","lot":null,"start_dtc":"2024-04-11","end_dtc":"2024-04-12","start_dy":"4","end_dy":"5","epoch":"TREATMENT","visit":null}],"exposure_as_collected":[{"seq":"1","trt":"SARS-COV-2-CHALLENGE","dose":"1000.0","doseu":null,"dosef":"ONCE","route":"NASAL","start_dtc":"2024-04-08","end_dtc":"2024-04-08","visit":"DAY 1 INOCULATION"},{"seq":"2","trt":"REMDESIVIR","dose":"200.0","doseu":null,"dosef":"ONCE","route":"INTRAVENOUS","start_dtc":"2024-04-10","end_dtc":"2024-04-10","visit":"DAY 1 INOCULATION"},{"seq":"3","trt":"REMDESIVIR","dose":"100.0","doseu":null,"dosef":"QD","route":"INTRAVENOUS","start_dtc":"2024-04-11","end_dtc":"2024-04-11","visit":"DAY 1 INOCULATION"},{"seq":"4","trt":"REMDESIVIR","dose":"100.0","doseu":null,"dosef":"QD","route":"INTRAVENOUS","start_dtc":"2024-04-12","end_dtc":"2024-04-12","visit":"DAY 4 QUARANTINE"}]},"section_7_adverse_events":{"summary":{"total_aes":1,"serious_aes":0,"fatal_aes":0,"by_severity":{"MODERATE":1},"by_soc":{"Nervous system disorders":1}},"events":[{"seq":"1","term":"HEADACHE","decod":"Headache","llt":"Headache","hlt":"Headaches NEC","hlgt":"Headaches","soc":"Nervous system disorders","bodsys":"Nervous system disorders","severity":"MODERATE","serious":"N","causality":"POSSIBLY RELATED","action_taken":"DOSE NOT CHANGED","outcome":"RECOVERING/RESOLVING","fatal":"N","hospitalization":"N","life_threatening":"N","onset_dtc":"2024-04-13","end_dtc":"2024-04-18","onset_dy":"6","end_dy":"11","duration":null,"epoch":"TREATMENT","visit":null,"supplemental":{"AETRTEM":"Y"}}]},"section_8_laboratory_results":{"summary":{"total_records":56,"abnormal_count":8,"abnormal_pct":14.3},"shift_summary":[{"testcd":"ALT","baseline_value":28.17,"baseline_nrind":"NORMAL","worst_post_baseline_value":30.67,"worst_post_baseline_nrind":"NORMAL","worst_visit":"MONTH 12 FU"},{"testcd":"AST","baseline_value":29.63,"baseline_nrind":"NORMAL","worst_post_baseline_value":29.2,"worst_post_baseline_nrind":"NORMAL","worst_visit":"DAY 1 INOCULATION"},{"testcd":"CREAT","baseline_value":34.12,"baseline_nrind":"LOW","worst_post_baseline_value":40.76,"worst_post_baseline_nrind":"LOW","worst_visit":"DAY 4 QUARANTINE"},{"testcd":"GLUC","baseline_value":4.44,"baseline_nrind":"NORMAL","worst_post_baseline_value":4.38,"worst_post_baseline_nrind":"NORMAL","worst_visit":"MONTH 6 FU"},{"testcd":"HGB","baseline_value":121.93,"baseline_nrind":"NORMAL","worst_post_baseline_value":120.25,"worst_post_baseline_nrind":"NORMAL","worst_visit":"MONTH 3 FU"},{"testcd":"PLAT","baseline_value":302.72,"baseline_nrind":"NORMAL","worst_post_baseline_value":315.78,"worst_post_baseline_nrind":"NORMAL","worst_visit":"DAY 1 INOCULATION"},{"testcd":"WBC","baseline_value":7.55,"baseline_nrind":"NORMAL","worst_post_baseline_value":7.81,"worst_post_baseline_nrind":"NORMAL","worst_visit":"DAY 4 QUARANTINE"}],"results":[{"seq":"1","testcd":"ALT","test":"Alanine Aminotransferase","cat":"CHEMISTRY","orres":"28.17","orresu":"U/L","stresc":"28.17","stresn":"28.17","stresu":"U/L","stnrlo":"7","stnrhi":"56","nrind":"NORMAL","fast":null,"dtc":"2024-02-29","dy":"-39","visit":"SCREENING","visitnum":"1.0","epoch":"SCREENING","spec":null,"method":null},{"seq":"2","testcd":"AST","test":"Aspartate Aminotransferase","cat":"CHEMISTRY","orres":"29.63","orresu":"U/L","stresc":"29.63","stresn":"29.63","stresu":"U/L","stnrlo":"10","stnrhi":"40","nrind":"NORMAL","fast":null,"dtc":"2024-02-29","dy":"-39","visit":"SCREENING","visitnum":"1.0","epoch":"SCREENING","spec":null,"method":null},{"seq":"3","testcd":"CREAT","test":"Creatinine","cat":"CHEMISTRY","orres":"34.12","orresu":"umol/L","stresc":"34.12","stresn":"34.12","stresu":"umol/L","stnrlo":"44","stnrhi":"80","nrind":"LOW","fast":null,"dtc":"2024-02-29","dy":"-39","visit":"SCREENING","visitnum":"1.0","epoch":"SCREENING","spec":null,"method":null},{"seq":"4","testcd":"GLUC","test":"Glucose","cat":"CHEMISTRY","orres":"4.44","orresu":"mmol/L","stresc":"4.44","stresn":"4.44","stresu":"mmol/L","stnrlo":"3.9","stnrhi":"5.6","nrind":"NORMAL","fast":null,"dtc":"2024-02-29","dy":"-39","visit":"SCREENING","visitnum":"1.0","epoch":"SCREENING","spec":null,"method":null},{"seq":"5","testcd":"HGB","test":"Hemoglobin","cat":"HEMATOLOGY","orres":null,"orresu":null,"stresc":null,"stresn":null,"stresu":null,"stnrlo":null,"stnrhi":null,"nrind":null,"fast":null,"dtc":"2024-02-29","dy":"-39","visit":"SCREENING","visitnum":"1.0","epoch":"SCREENING","spec":null,"method":null},{"seq":"6","testcd":"PLAT","test":"Platelets","cat":"HEMATOLOGY","orres":"302.72","orresu":"10^9/L","stresc":"302.72","stresn":"302.72","stresu":"10^9/L","stnrlo":"150","stnrhi":"400","nrind":"NORMAL","fast":null,"dtc":"2024-02-29","dy":"-39","visit":"SCREENING","visitnum":"1.0","epoch":"SCREENING","spec":null,"method":null},{"seq":"7","testcd":"WBC","test":"Leukocytes","cat":"HEMATOLOGY","orres":"7.55","orresu":"10^9/L","stresc":"7.55","stresn":"7.55","stresu":"10^9/L","stnrlo":"4.0","stnrhi":"11.0","nrind":"NORMAL","fast":null,"dtc":"2024-02-29","dy":"-39","visit":"SCREENING","visitnum":"1.0","epoch":"SCREENING","spec":null,"method":null},{"seq":"8","testcd":"ALT","test":"Alanine Aminotransferase","cat":"CHEMISTRY","orres":"28.2","orresu":"U/L","stresc":"28.2","stresn":"28.2","stresu":"U/L","stnrlo":"7","stnrhi":"56","nrind":"NORMAL","fast":null,"dtc":"2024-04-08","dy":"1","visit":"DAY 1 INOCULATION","visitnum":"2.0","epoch":"TREATMENT","spec":null,"method":null},{"seq":"9","testcd":"AST","test":"Aspartate Aminotransferase","cat":"CHEMISTRY","orres":"29.2","orresu":"U/L","stresc":"29.2","stresn":"29.2","stresu":"U/L","stnrlo":"10","stnrhi":"40","nrind":"NORMAL","fast":null,"dtc":"2024-04-08","dy":"1","visit":"DAY 1 INOCULATION","visitnum":"2.0","epoch":"TREATMENT","spec":null,"method":null},{"seq":"10","testcd":"CREAT","test":"Creatinine","cat":"CHEMISTRY","orres":"36.53","orresu":"umol/L","stresc":"36.53","stresn":"36.53","stresu":"umol/L","stnrlo":"44","stnrhi":"80","nrind":"LOW","fast":null,"dtc":"2024-04-08","dy":"1","visit":"DAY 1 INOCULATION","visitnum":"2.0","epoch":"TREATMENT","spec":null,"method":null},{"seq":"11","testcd":"GLUC","test":"Glucose","cat":"CHEMISTRY","orres":"4.35","orresu":"mmol/L","stresc":"4.35","stresn":"4.35","stresu":"mmol/L","stnrlo":"3.9","stnrhi":"5.6","nrind":"NORMAL","fast":null,"dtc":"2024-04-08","dy":"1","visit":"DAY 1 INOCULATION","visitnum":"2.0","epoch":"TREATMENT","spec":null,"method":null},{"seq":"12","testcd":"HGB","test":"Hemoglobin","cat":"HEMATOLOGY","orres":"121.93","orresu":"g/L","stresc":"121.93","stresn":"121.93","stresu":"g/L","stnrlo":"120","stnrhi":"155","nrind":"NORMAL","fast":null,"dtc":"2024-04-08","dy":"1","visit":"DAY 1 INOCULATION","visitnum":"2.0","epoch":"TREATMENT","spec":null,"method":null},{"seq":"13","testcd":"PLAT","test":"Platelets","cat":"HEMATOLOGY","orres":"315.78","orresu":"10^9/L","stresc":"315.78","stresn":"315.78","stresu":"10^9/L","stnrlo":"150","stnrhi":"400","nrind":"NORMAL","fast":null,"dtc":"2024-04-08","dy":"1","visit":"DAY 1 INOCULATION","visitnum":"2.0","epoch":"TREATMENT","spec":null,"method":null},{"seq":"14","testcd":"WBC","test":"Leukocytes","cat":"HEMATOLOGY","orres":"7.65","orresu":"10^9/L","stresc":"7.65","stresn":"7.65","stresu":"10^9/L","stnrlo":"4.0","stnrhi":"11.0","nrind":"NORMAL","fast":null,"dtc":"2024-04-08","dy":"1","visit":"DAY 1 INOCULATION","visitnum":"2.0","epoch":"TREATMENT","spec":null,"method":null},{"seq":"15","testcd":"ALT","test":"Alanine Aminotransferase","cat":"CHEMISTRY","orres":"29.31","orresu":"U/L","stresc":"29.31","stresn":"29.31","stresu":"U/L","stnrlo":"7","stnrhi":"56","nrind":"NORMAL","fast":null,"dtc":"2024-04-11","dy":"4","visit":"DAY 4 QUARANTINE","visitnum":"3.0","epoch":"QUARANTINE","spec":null,"method":null},{"seq":"16","testcd":"AST","test":"Aspartate Aminotransferase","cat":"CHEMISTRY","orres":"27.03","orresu":"U/L","stresc":"27.03","stresn":"27.03","stresu":"U/L","stnrlo":"10","stnrhi":"40","nrind":"NORMAL","fast":null,"dtc":"2024-04-11","dy":"4","visit":"DAY 4 QUARANTINE","visitnum":"3.0","epoch":"QUARANTINE","spec":null,"method":null},{"seq":"17","testcd":"CREAT","test":"Creatinine","cat":"CHEMISTRY","orres":"40.76","orresu":"umol/L","stresc":"40.76","stresn":"40.76","stresu":"umol/L","stnrlo":"44","stnrhi":"80","nrind":"LOW","fast":null,"dtc":"2024-04-11","dy":"4","visit":"DAY 4 QUARANTINE","visitnum":"3.0","epoch":"QUARANTINE","spec":null,"method":null},{"seq":"18","testcd":"GLUC","test":"Glucose","cat":"CHEMISTRY","orres":"4.13","orresu":"mmol/L","stresc":"4.13","stresn":"4.13","stresu":"mmol/L","stnrlo":"3.9","stnrhi":"5.6","nrind":"NORMAL","fast":null,"dtc":"2024-04-11","dy":"4","visit":"DAY 4 QUARANTINE","visitnum":"3.0","epoch":"QUARANTINE","spec":null,"method":null},{"seq":"19","testcd":"HGB","test":"Hemoglobin","cat":"HEMATOLOGY","orres":"122.46","orresu":"g/L","stresc":"122.46","stresn":"122.46","stresu":"g/L","stnrlo":"120","stnrhi":"155","nrind":"NORMAL","fast":null,"dtc":"2024-04-11","dy":"4","visit":"DAY 4 QUARANTINE","visitnum":"3.0","epoch":"QUARANTINE","spec":null,"method":null},{"seq":"20","testcd":"PLAT","test":"Platelets","cat":"HEMATOLOGY","orres":"310.62","orresu":"10^9/L","stresc":"310.62","stresn":"310.62","stresu":"10^9/L","stnrlo":"150","stnrhi":"400","nrind":"NORMAL","fast":null,"dtc":"2024-04-11","dy":"4","visit":"DAY 4 QUARANTINE","visitnum":"3.0","epoch":"QUARANTINE","spec":null,"method":null},{"seq":"21","testcd":"WBC","test":"Leukocytes","cat":"HEMATOLOGY","orres":"7.81","orresu":"10^9/L","stresc":"7.81","stresn":"7.81","stresu":"10^9/L","stnrlo":"4.0","stnrhi":"11.0","nrind":"NORMAL","fast":null,"dtc":"2024-04-11","dy":"4","visit":"DAY 4 QUARANTINE","visitnum":"3.0","epoch":"QUARANTINE","spec":null,"method":null},{"seq":"22","testcd":"ALT","test":"Alanine Aminotransferase","cat":"CHEMISTRY","orres":"29.54","orresu":"U/L","stresc":"29.54","stresn":"29.54","stresu":"U/L","stnrlo":"7","stnrhi":"56","nrind":"NORMAL","fast":null,"dtc":"2024-04-22","dy":"15","visit":"DAY 14 DISCHARGE","visitnum":"5.0","epoch":"QUARANTINE","spec":null,"method":null},{"seq":"23","testcd":"AST","test":"Aspartate Aminotransferase","cat":"CHEMISTRY","orres":"25.94","orresu":"U/L","stresc":"25.94","stresn":"25.94","stresu":"U/L","stnrlo":"10","stnrhi":"40","nrind":"NORMAL","fast":null,"dtc":"2024-04-22","dy":"15","visit":"DAY 14 DISCHARGE","visitnum":"5.0","epoch":"QUARANTINE","spec":null,"method":null},{"seq":"24","testcd":"CREAT","test":"Creatinine","cat":"CHEMISTRY","orres":"35.05","orresu":"umol/L","stresc":"35.05","stresn":"35.05","stresu":"umol/L","stnrlo":"44","stnrhi":"80","nrind":"LOW","fast":null,"dtc":"2024-04-22","dy":"15","visit":"DAY 14 DISCHARGE","visitnum":"5.0","epoch":"QUARANTINE","spec":null,"method":null},{"seq":"25","testcd":"GLUC","test":"Glucose","cat":"CHEMISTRY","orres":"4.19","orresu":"mmol/L","stresc":"4.19","stresn":"4.19","stresu":"mmol/L","stnrlo":"3.9","stnrhi":"5.6","nrind":"NORMAL","fast":null,"dtc":"2024-04-22","dy":"15","visit":"DAY 14 DISCHARGE","visitnum":"5.0","epoch":"QUARANTINE","spec":null,"method":null},{"seq":"26","testcd":"HGB","test":"Hemoglobin","cat":"HEMATOLOGY","orres":"122.53","orresu":"g/L","stresc":"122.53","stresn":"122.53","stresu":"g/L","stnrlo":"120","stnrhi":"155","nrind":"NORMAL","fast":null,"dtc":"2024-04-22","dy":"15","visit":"DAY 14 DISCHARGE","visitnum":"5.0","epoch":"QUARANTINE","spec":null,"method":null},{"seq":"27","testcd":"PLAT","test":"Platelets","cat":"HEMATOLOGY","orres":"289.54","orresu":"10^9/L","stresc":"289.54","stresn":"289.54","stresu":"10^9/L","stnrlo":"150","stnrhi":"400","nrind":"NORMAL","fast":null,"dtc":"2024-04-22","dy":"15","visit":"DAY 14 DISCHARGE","visitnum":"5.0","epoch":"QUARANTINE","spec":null,"method":null},{"seq":"28","testcd":"WBC","test":"Leukocytes","cat":"HEMATOLOGY","orres":"6.74","orresu":"10^9/L","stresc":"6.74","stresn":"6.74","stresu":"10^9/L","stnrlo":"4.0","stnrhi":"11.0","nrind":"NORMAL","fast":null,"dtc":"2024-04-22","dy":"15","visit":"DAY 14 DISCHARGE","visitnum":"5.0","epoch":"QUARANTINE","spec":null,"method":null},{"seq":"29","testcd":"ALT","test":"Alanine Aminotransferase","cat":"CHEMISTRY","orres":"28.6","orresu":"U/L","stresc":"28.6","stresn":"28.6","stresu":"U/L","stnrlo":"7","stnrhi":"56","nrind":"NORMAL","fast":null,"dtc":"2024-05-06","dy":"29","visit":"DAY 28 FU","visitnum":"6.0","epoch":"FOLLOW-UP","spec":null,"method":null},{"seq":"30","testcd":"AST","test":"Aspartate Aminotransferase","cat":"CHEMISTRY","orres":"24.57","orresu":"U/L","stresc":"24.57","stresn":"24.57","stresu":"U/L","stnrlo":"10","stnrhi":"40","nrind":"NORMAL","fast":null,"dtc":"2024-05-06","dy":"29","visit":"DAY 28 FU","visitnum":"6.0","epoch":"FOLLOW-UP","spec":null,"method":null},{"seq":"31","testcd":"CREAT","test":"Creatinine","cat":"CHEMISTRY","orres":"34.46","orresu":"umol/L","stresc":"34.46","stresn":"34.46","stresu":"umol/L","stnrlo":"44","stnrhi":"80","nrind":"LOW","fast":null,"dtc":"2024-05-06","dy":"29","visit":"DAY 28 FU","visitnum":"6.0","epoch":"FOLLOW-UP","spec":null,"method":null},{"seq":"32","testcd":"GLUC","test":"Glucose","cat":"CHEMISTRY","orres":"4.3","orresu":"mmol/L","stresc":"4.3","stresn":"4.3","stresu":"mmol/L","stnrlo":"3.9","stnrhi":"5.6","nrind":"NORMAL","fast":null,"dtc":"2024-05-06","dy":"29","visit":"DAY 28 FU","visitnum":"6.0","epoch":"FOLLOW-UP","spec":null,"method":null},{"seq":"33","testcd":"HGB","test":"Hemoglobin","cat":"HEMATOLOGY","orres":"120.82","orresu":"g/L","stresc":"120.82","stresn":"120.82","stresu":"g/L","stnrlo":"120","stnrhi":"155","nrind":"NORMAL","fast":null,"dtc":"2024-05-06","dy":"29","visit":"DAY 28 FU","visitnum":"6.0","epoch":"FOLLOW-UP","spec":null,"method":null},{"seq":"34","testcd":"PLAT","test":"Platelets","cat":"HEMATOLOGY","orres":"280.74","orresu":"10^9/L","stresc":"280.74","stresn":"280.74","stresu":"10^9/L","stnrlo":"150","stnrhi":"400","nrind":"NORMAL","fast":null,"dtc":"2024-05-06","dy":"29","visit":"DAY 28 FU","visitnum":"6.0","epoch":"FOLLOW-UP","spec":null,"method":null},{"seq":"35","testcd":"WBC","test":"Leukocytes","cat":"HEMATOLOGY","orres":"7.37","orresu":"10^9/L","stresc":"7.37","stresn":"7.37","stresu":"10^9/L","stnrlo":"4.0","stnrhi":"11.0","nrind":"NORMAL","fast":null,"dtc":"2024-05-06","dy":"29","visit":"DAY 28 FU","visitnum":"6.0","epoch":"FOLLOW-UP","spec":null,"method":null},{"seq":"36","testcd":"ALT","test":"Alanine Aminotransferase","cat":"CHEMISTRY","orres":"29.23","orresu":"U/L","stresc":"29.23","stresn":"29.23","stresu":"U/L","stnrlo":"7","stnrhi":"56","nrind":"NORMAL","fast":null,"dtc":"2024-07-05","dy":"89","visit":"MONTH 3 FU","visitnum":"7.0","epoch":"FOLLOW-UP","spec":null,"method":null},{"seq":"37","testcd":"AST","test":"Aspartate Aminotransferase","cat":"CHEMISTRY","orres":"23.92","orresu":"U/L","stresc":"23.92","stresn":"23.92","stresu":"U/L","stnrlo":"10","stnrhi":"40","nrind":"NORMAL","fast":null,"dtc":"2024-07-05","dy":"89","visit":"MONTH 3 FU","visitnum":"7.0","epoch":"FOLLOW-UP","spec":null,"method":null},{"seq":"38","testcd":"CREAT","test":"Creatinine","cat":"CHEMISTRY","orres":"34.14","orresu":"umol/L","stresc":"34.14","stresn":"34.14","stresu":"umol/L","stnrlo":"44","stnrhi":"80","nrind":"LOW","fast":null,"dtc":"2024-07-05","dy":"89","visit":"MONTH 3 FU","visitnum":"7.0","epoch":"FOLLOW-UP","spec":null,"method":null},{"seq":"39","testcd":"GLUC","test":"Glucose","cat":"CHEMISTRY","orres":"4.31","orresu":"mmol/L","stresc":"4.31","stresn":"4.31","stresu":"mmol/L","stnrlo":"3.9","stnrhi":"5.6","nrind":"NORMAL","fast":null,"dtc":"2024-07-05","dy":"89","visit":"MONTH 3 FU","visitnum":"7.0","epoch":"FOLLOW-UP","spec":null,"method":null},{"seq":"40","testcd":"HGB","test":"Hemoglobin","cat":"HEMATOLOGY","orres":"120.25","orresu":"g/L","stresc":"120.25","stresn":"120.25","stresu":"g/L","stnrlo":"120","stnrhi":"155","nrind":"NORMAL","fast":null,"dtc":"2024-07-05","dy":"89","visit":"MONTH 3 FU","visitnum":"7.0","epoch":"FOLLOW-UP","spec":null,"method":null},{"seq":"41","testcd":"PLAT","test":"Platelets","cat":"HEMATOLOGY","orres":null,"orresu":null,"stresc":null,"stresn":null,"stresu":null,"stnrlo":null,"stnrhi":null,"nrind":null,"fast":null,"dtc":"2024-07-05","dy":"89","visit":"MONTH 3 FU","visitnum":"7.0","epoch":"FOLLOW-UP","spec":null,"method":null},{"seq":"42","testcd":"WBC","test":"Leukocytes","cat":"HEMATOLOGY","orres":"7.52","orresu":"10^9/L","stresc":"7.52","stresn":"7.52","stresu":"10^9/L","stnrlo":"4.0","stnrhi":"11.0","nrind":"NORMAL","fast":null,"dtc":"2024-07-05","dy":"89","visit":"MONTH 3 FU","visitnum":"7.0","epoch":"FOLLOW-UP","spec":null,"method":null},{"seq":"43","testcd":"ALT","test":"Alanine Aminotransferase","cat":"CHEMISTRY","orres":"29.88","orresu":"U/L","stresc":"29.88","stresn":"29.88","stresu":"U/L","stnrlo":"7","stnrhi":"56","nrind":"NORMAL","fast":null,"dtc":"2024-09-25","dy":"171","visit":"MONTH 6 FU","visitnum":"8.0","epoch":"FOLLOW-UP","spec":null,"method":null},{"seq":"44","testcd":"AST","test":"Aspartate Aminotransferase","cat":"CHEMISTRY","orres":"23.68","orresu":"U/L","stresc":"23.68","stresn":"23.68","stresu":"U/L","stnrlo":"10","stnrhi":"40","nrind":"NORMAL","fast":null,"dtc":"2024-09-25","dy":"171","visit":"MONTH 6 FU","visitnum":"8.0","epoch":"FOLLOW-UP","spec":null,"method":null},{"seq":"45","testcd":"CREAT","test":"Creatinine","cat":"CHEMISTRY","orres":"32.38","orresu":"umol/L","stresc":"32.38","stresn":"32.38","stresu":"umol/L","stnrlo":"44","stnrhi":"80","nrind":"LOW","fast":null,"dtc":"2024-09-25","dy":"171","visit":"MONTH 6 FU","visitnum":"8.0","epoch":"FOLLOW-UP","spec":null,"method":null},{"seq":"46","testcd":"GLUC","test":"Glucose","cat":"CHEMISTRY","orres":"4.38","orresu":"mmol/L","stresc":"4.38","stresn":"4.38","stresu":"mmol/L","stnrlo":"3.9","stnrhi":"5.6","nrind":"NORMAL","fast":null,"dtc":"2024-09-25","dy":"171","visit":"MONTH 6 FU","visitnum":"8.0","epoch":"FOLLOW-UP","spec":null,"method":null},{"seq":"47","testcd":"HGB","test":"Hemoglobin","cat":"HEMATOLOGY","orres":null,"orresu":null,"stresc":null,"stresn":null,"stresu":null,"stnrlo":null,"stnrhi":null,"nrind":null,"fast":null,"dtc":"2024-09-25","dy":"171","visit":"MONTH 6 FU","visitnum":"8.0","epoch":"FOLLOW-UP","spec":null,"method":null},{"seq":"48","testcd":"PLAT","test":"Platelets","cat":"HEMATOLOGY","orres":"285.49","orresu":"10^9/L","stresc":"285.49","stresn":"285.49","stresu":"10^9/L","stnrlo":"150","stnrhi":"400","nrind":"NORMAL","fast":null,"dtc":"2024-09-25","dy":"171","visit":"MONTH 6 FU","visitnum":"8.0","epoch":"FOLLOW-UP","spec":null,"method":null},{"seq":"49","testcd":"WBC","test":"Leukocytes","cat":"HEMATOLOGY","orres":"6.8","orresu":"10^9/L","stresc":"6.8","stresn":"6.8","stresu":"10^9/L","stnrlo":"4.0","stnrhi":"11.0","nrind":"NORMAL","fast":null,"dtc":"2024-09-25","dy":"171","visit":"MONTH 6 FU","visitnum":"8.0","epoch":"FOLLOW-UP","spec":null,"method":null},{"seq":"50","testcd":"ALT","test":"Alanine Aminotransferase","cat":"CHEMISTRY","orres":"30.67","orresu":"U/L","stresc":"30.67","stresn":"30.67","stresu":"U/L","stnrlo":"7","stnrhi":"56","nrind":"NORMAL","fast":null,"dtc":"2025-03-29","dy":"356","visit":"MONTH 12 FU","visitnum":"9.0","epoch":"FOLLOW-UP","spec":null,"method":null},{"seq":"51","testcd":"AST","test":"Aspartate Aminotransferase","cat":"CHEMISTRY","orres":"24.82","orresu":"U/L","stresc":"24.82","stresn":"24.82","stresu":"U/L","stnrlo":"10","stnrhi":"40","nrind":"NORMAL","fast":null,"dtc":"2025-03-29","dy":"356","visit":"MONTH 12 FU","visitnum":"9.0","epoch":"FOLLOW-UP","spec":null,"method":null},{"seq":"52","testcd":"CREAT","test":"Creatinine","cat":"CHEMISTRY","orres":"34.71","orresu":"umol/L","stresc":"34.71","stresn":"34.71","stresu":"umol/L","stnrlo":"44","stnrhi":"80","nrind":"LOW","fast":null,"dtc":"2025-03-29","dy":"356","visit":"MONTH 12 FU","visitnum":"9.0","epoch":"FOLLOW-UP","spec":null,"method":null},{"seq":"53","testcd":"GLUC","test":"Glucose","cat":"CHEMISTRY","orres":"4.32","orresu":"mmol/L","stresc":"4.32","stresn":"4.32","stresu":"mmol/L","stnrlo":"3.9","stnrhi":"5.6","nrind":"NORMAL","fast":null,"dtc":"2025-03-29","dy":"356","visit":"MONTH 12 FU","visitnum":"9.0","epoch":"FOLLOW-UP","spec":null,"method":null},{"seq":"54","testcd":"HGB","test":"Hemoglobin","cat":"HEMATOLOGY","orres":"120.53","orresu":"g/L","stresc":"120.53","stresn":"120.53","stresu":"g/L","stnrlo":"120","stnrhi":"155","nrind":"NORMAL","fast":null,"dtc":"2025-03-29","dy":"356","visit":"MONTH 12 FU","visitnum":"9.0","epoch":"FOLLOW-UP","spec":null,"method":null},{"seq":"55","testcd":"PLAT","test":"Platelets","cat":"HEMATOLOGY","orres":"292.4","orresu":"10^9/L","stresc":"292.4","stresn":"292.4","stresu":"10^9/L","stnrlo":"150","stnrhi":"400","nrind":"NORMAL","fast":null,"dtc":"2025-03-29","dy":"356","visit":"MONTH 12 FU","visitnum":"9.0","epoch":"FOLLOW-UP","spec":null,"method":null},{"seq":"56","testcd":"WBC","test":"Leukocytes","cat":"HEMATOLOGY","orres":"6.61","orresu":"10^9/L","stresc":"6.61","stresn":"6.61","stresu":"10^9/L","stnrlo":"4.0","stnrhi":"11.0","nrind":"NORMAL","fast":null,"dtc":"2025-03-29","dy":"356","visit":"MONTH 12 FU","visitnum":"9.0","epoch":"FOLLOW-UP","spec":null,"method":null}]},"section_9_vital_signs":{"summary":{"total_records":56},"trends":{"BMI":[{"visit":"SCREENING","visitnum":"1.0","dtc":"2024-02-29","value":"17.7","unit":"kg/m2"},{"visit":"DAY 1 INOCULATION","visitnum":"2.0","dtc":"2024-04-08","value":"17.5","unit":"kg/m2"},{"visit":"DAY 7 QUARANTINE","visitnum":"4.0","dtc":"2024-04-14","value":"17.4","unit":"kg/m2"},{"visit":"DAY 14 DISCHARGE","visitnum":"5.0","dtc":"2024-04-22","value":"18.6","unit":"kg/m2"},{"visit":"DAY 28 FU","visitnum":"6.0","dtc":"2024-05-06","value":"19.3","unit":"kg/m2"},{"visit":"MONTH 3 FU","visitnum":"7.0","dtc":"2024-07-05","value":"19.1","unit":"kg/m2"},{"visit":"MONTH 12 FU","visitnum":"9.0","dtc":"2025-03-29","value":"19.6","unit":"kg/m2"}],"DIABP":[{"visit":"SCREENING","visitnum":"1.0","dtc":"2024-02-29","value":"86.9","unit":"mmHg"},{"visit":"DAY 1 INOCULATION","visitnum":"2.0","dtc":"2024-04-08","value":"86.1","unit":"mmHg"},{"visit":"DAY 7 QUARANTINE","visitnum":"4.0","dtc":"2024-04-14","value":"86.7","unit":"mmHg"},{"visit":"DAY 14 DISCHARGE","visitnum":"5.0","dtc":"2024-04-22","value":"86.5","unit":"mmHg"},{"visit":"DAY 28 FU","visitnum":"6.0","dtc":"2024-05-06","value":"85.9","unit":"mmHg"},{"visit":"MONTH 12 FU","visitnum":"9.0","dtc":"2025-03-29","value":"88.1","unit":"mmHg"}],"HEIGHT":[{"visit":"SCREENING","visitnum":"1.0","dtc":"2024-02-29","value":"152.5","unit":"cm"},{"visit":"DAY 1 INOCULATION","visitnum":"2.0","dtc":"2024-04-08","value":"152.5","unit":"cm"},{"visit":"DAY 7 QUARANTINE","visitnum":"4.0","dtc":"2024-04-14","value":"153.3","unit":"cm"},{"visit":"DAY 14 DISCHARGE","visitnum":"5.0","dtc":"2024-04-22","value":"153.6","unit":"cm"},{"visit":"DAY 28 FU","visitnum":"6.0","dtc":"2024-05-06","value":"153.7","unit":"cm"},{"visit":"MONTH 3 FU","visitnum":"7.0","dtc":"2024-07-05","value":"153.5","unit":"cm"},{"visit":"MONTH 12 FU","visitnum":"9.0","dtc":"2025-03-29","value":"153.6","unit":"cm"}],"PULSE":[{"visit":"SCREENING","visitnum":"1.0","dtc":"2024-02-29","value":"77.3","unit":"beats/min"},{"visit":"DAY 1 INOCULATION","visitnum":"2.0","dtc":"2024-04-08","value":"80.0","unit":"beats/min"},{"visit":"DAY 7 QUARANTINE","visitnum":"4.0","dtc":"2024-04-14","value":"78.0","unit":"beats/min"},{"visit":"DAY 14 DISCHARGE","visitnum":"5.0","dtc":"2024-04-22","value":"74.2","unit":"beats/min"},{"visit":"DAY 28 FU","visitnum":"6.0","dtc":"2024-05-06","value":"77.1","unit":"beats/min"},{"visit":"MONTH 12 FU","visitnum":"9.0","dtc":"2025-03-29","value":"79.1","unit":"beats/min"}],"RESP":[{"visit":"SCREENING","visitnum":"1.0","dtc":"2024-02-29","value":"19.3","unit":"breaths/min"},{"visit":"DAY 1 INOCULATION","visitnum":"2.0","dtc":"2024-04-08","value":"18.6","unit":"breaths/min"},{"visit":"DAY 7 QUARANTINE","visitnum":"4.0","dtc":"2024-04-14","value":"19.3","unit":"breaths/min"},{"visit":"DAY 14 DISCHARGE","visitnum":"5.0","dtc":"2024-04-22","value":"17.6","unit":"breaths/min"},{"visit":"DAY 28 FU","visitnum":"6.0","dtc":"2024-05-06","value":"17.6","unit":"breaths/min"},{"visit":"MONTH 12 FU","visitnum":"9.0","dtc":"2025-03-29","value":"17.0","unit":"breaths/min"}],"SYSBP":[{"visit":"SCREENING","visitnum":"1.0","dtc":"2024-02-29","value":"112.7","unit":"mmHg"},{"visit":"DAY 1 INOCULATION","visitnum":"2.0","dtc":"2024-04-08","value":"110.1","unit":"mmHg"},{"visit":"DAY 7 QUARANTINE","visitnum":"4.0","dtc":"2024-04-14","value":"111.4","unit":"mmHg"},{"visit":"DAY 14 DISCHARGE","visitnum":"5.0","dtc":"2024-04-22","value":"110.5","unit":"mmHg"},{"visit":"DAY 28 FU","visitnum":"6.0","dtc":"2024-05-06","value":"113.0","unit":"mmHg"},{"visit":"MONTH 3 FU","visitnum":"7.0","dtc":"2024-07-05","value":"114.3","unit":"mmHg"},{"visit":"MONTH 12 FU","visitnum":"9.0","dtc":"2025-03-29","value":"118.1","unit":"mmHg"}],"TEMP":[{"visit":"SCREENING","visitnum":"1.0","dtc":"2024-02-29","value":"36.5","unit":"C"},{"visit":"DAY 1 INOCULATION","visitnum":"2.0","dtc":"2024-04-08","value":"36.5","unit":"C"},{"visit":"DAY 7 QUARANTINE","visitnum":"4.0","dtc":"2024-04-14","value":"36.1","unit":"C"},{"visit":"DAY 14 DISCHARGE","visitnum":"5.0","dtc":"2024-04-22","value":"36.6","unit":"C"},{"visit":"DAY 28 FU","visitnum":"6.0","dtc":"2024-05-06","value":"36.5","unit":"C"},{"visit":"MONTH 3 FU","visitnum":"7.0","dtc":"2024-07-05","value":"36.6","unit":"C"},{"visit":"MONTH 12 FU","visitnum":"9.0","dtc":"2025-03-29","value":"36.3","unit":"C"}],"WEIGHT":[{"visit":"SCREENING","visitnum":"1.0","dtc":"2024-02-29","value":"41.1","unit":"kg"},{"visit":"DAY 1 INOCULATION","visitnum":"2.0","dtc":"2024-04-08","value":"40.7","unit":"kg"},{"visit":"DAY 7 QUARANTINE","visitnum":"4.0","dtc":"2024-04-14","value":"40.8","unit":"kg"},{"visit":"DAY 14 DISCHARGE","visitnum":"5.0","dtc":"2024-04-22","value":"44.0","unit":"kg"},{"visit":"DAY 28 FU","visitnum":"6.0","dtc":"2024-05-06","value":"45.6","unit":"kg"},{"visit":"MONTH 3 FU","visitnum":"7.0","dtc":"2024-07-05","value":"44.9","unit":"kg"},{"visit":"MONTH 12 FU","visitnum":"9.0","dtc":"2025-03-29","value":"46.3","unit":"kg"}]},"results":[{"seq":"1","testcd":"BMI","test":"BMI","cat":null,"orres":null,"orresu":null,"stresc":"17.7","stresn":"17.7","stresu":"kg/m2","stnrlo":null,"stnrhi":null,"nrind":null,"pos":null,"loc":null,"dtc":"2024-02-29","dy":"-39","visit":"SCREENING","visitnum":"1.0","epoch":"SCREENING"},{"seq":"2","testcd":"DIABP","test":"Diastolic Blood Pressure","cat":null,"orres":"86.9","orresu":"mmHg","stresc":"86.9","stresn":"86.9","stresu":"mmHg","stnrlo":null,"stnrhi":null,"nrind":null,"pos":null,"loc":null,"dtc":"2024-02-29","dy":"-39","visit":"SCREENING","visitnum":"1.0","epoch":"SCREENING"},{"seq":"3","testcd":"HEIGHT","test":"Height","cat":null,"orres":"152.5","orresu":"cm","stresc":"152.5","stresn":"152.5","stresu":"cm","stnrlo":null,"stnrhi":null,"nrind":null,"pos":null,"loc":null,"dtc":"2024-02-29","dy":"-39","visit":"SCREENING","visitnum":"1.0","epoch":"SCREENING"},{"seq":"4","testcd":"PULSE","test":"Pulse Rate","cat":null,"orres":"77.3","orresu":"beats/min","stresc":"77.3","stresn":"77.3","stresu":"beats/min","stnrlo":null,"stnrhi":null,"nrind":null,"pos":null,"loc":null,"dtc":"2024-02-29","dy":"-39","visit":"SCREENING","visitnum":"1.0","epoch":"SCREENING"},{"seq":"5","testcd":"RESP","test":"Respiratory Rate","cat":null,"orres":"19.3","orresu":"breaths/min","stresc":"19.3","stresn":"19.3","stresu":"breaths/min","stnrlo":null,"stnrhi":null,"nrind":null,"pos":null,"loc":null,"dtc":"2024-02-29","dy":"-39","visit":"SCREENING","visitnum":"1.0","epoch":"SCREENING"},{"seq":"6","testcd":"SYSBP","test":"Systolic Blood Pressure","cat":null,"orres":"112.7","orresu":"mmHg","stresc":"112.7","stresn":"112.7","stresu":"mmHg","stnrlo":null,"stnrhi":null,"nrind":null,"pos":null,"loc":null,"dtc":"2024-02-29","dy":"-39","visit":"SCREENING","visitnum":"1.0","epoch":"SCREENING"},{"seq":"7","testcd":"TEMP","test":"Temperature","cat":null,"orres":"36.5","orresu":"C","stresc":"36.5","stresn":"36.5","stresu":"C","stnrlo":null,"stnrhi":null,"nrind":null,"pos":null,"loc":null,"dtc":"2024-02-29","dy":"-39","visit":"SCREENING","visitnum":"1.0","epoch":"SCREENING"},{"seq":"8","testcd":"WEIGHT","test":"Weight","cat":null,"orres":"41.1","orresu":"kg","stresc":"41.1","stresn":"41.1","stresu":"kg","stnrlo":null,"stnrhi":null,"nrind":null,"pos":null,"loc":null,"dtc":"2024-02-29","dy":"-39","visit":"SCREENING","visitnum":"1.0","epoch":"SCREENING"},{"seq":"9","testcd":"BMI","test":"BMI","cat":null,"orres":null,"orresu":null,"stresc":"17.5","stresn":"17.5","stresu":"kg/m2","stnrlo":null,"stnrhi":null,"nrind":null,"pos":null,"loc":null,"dtc":"2024-04-08","dy":"1","visit":"DAY 1 INOCULATION","visitnum":"2.0","epoch":"TREATMENT"},{"seq":"10","testcd":"DIABP","test":"Diastolic Blood Pressure","cat":null,"orres":"86.1","orresu":"mmHg","stresc":"86.1","stresn":"86.1","stresu":"mmHg","stnrlo":null,"stnrhi":null,"nrind":null,"pos":null,"loc":null,"dtc":"2024-04-08","dy":"1","visit":"DAY 1 INOCULATION","visitnum":"2.0","epoch":"TREATMENT"},{"seq":"11","testcd":"HEIGHT","test":"Height","cat":null,"orres":"152.5","orresu":"cm","stresc":"152.5","stresn":"152.5","stresu":"cm","stnrlo":null,"stnrhi":null,"nrind":null,"pos":null,"loc":null,"dtc":"2024-04-08","dy":"1","visit":"DAY 1 INOCULATION","visitnum":"2.0","epoch":"TREATMENT"},{"seq":"12","testcd":"PULSE","test":"Pulse Rate","cat":null,"orres":"80.0","orresu":"beats/min","stresc":"80.0","stresn":"80.0","stresu":"beats/min","stnrlo":null,"stnrhi":null,"nrind":null,"pos":null,"loc":null,"dtc":"2024-04-08","dy":"1","visit":"DAY 1 INOCULATION","visitnum":"2.0","epoch":"TREATMENT"},{"seq":"13","testcd":"RESP","test":"Respiratory Rate","cat":null,"orres":"18.6","orresu":"breaths/min","stresc":"18.6","stresn":"18.6","stresu":"breaths/min","stnrlo":null,"stnrhi":null,"nrind":null,"pos":null,"loc":null,"dtc":"2024-04-08","dy":"1","visit":"DAY 1 INOCULATION","visitnum":"2.0","epoch":"TREATMENT"},{"seq":"14","testcd":"SYSBP","test":"Systolic Blood Pressure","cat":null,"orres":"110.1","orresu":"mmHg","stresc":"110.1","stresn":"110.1","stresu":"mmHg","stnrlo":null,"stnrhi":null,"nrind":null,"pos":null,"loc":null,"dtc":"2024-04-08","dy":"1","visit":"DAY 1 INOCULATION","visitnum":"2.0","epoch":"TREATMENT"},{"seq":"15","testcd":"TEMP","test":"Temperature","cat":null,"orres":"36.5","orresu":"C","stresc":"36.5","stresn":"36.5","stresu":"C","stnrlo":null,"stnrhi":null,"nrind":null,"pos":null,"loc":null,"dtc":"2024-04-08","dy":"1","visit":"DAY 1 INOCULATION","visitnum":"2.0","epoch":"TREATMENT"},{"seq":"16","testcd":"WEIGHT","test":"Weight","cat":null,"orres":"40.7","orresu":"kg","stresc":"40.7","stresn":"40.7","stresu":"kg","stnrlo":null,"stnrhi":null,"nrind":null,"pos":null,"loc":null,"dtc":"2024-04-08","dy":"1","visit":"DAY 1 INOCULATION","visitnum":"2.0","epoch":"TREATMENT"},{"seq":"17","testcd":"BMI","test":"BMI","cat":null,"orres":null,"orresu":null,"stresc":"17.4","stresn":"17.4","stresu":"kg/m2","stnrlo":null,"stnrhi":null,"nrind":null,"pos":null,"loc":null,"dtc":"2024-04-14","dy":"7","visit":"DAY 7 QUARANTINE","visitnum":"4.0","epoch":"QUARANTINE"},{"seq":"18","testcd":"DIABP","test":"Diastolic Blood Pressure","cat":null,"orres":"86.7","orresu":"mmHg","stresc":"86.7","stresn":"86.7","stresu":"mmHg","stnrlo":null,"stnrhi":null,"nrind":null,"pos":null,"loc":null,"dtc":"2024-04-14","dy":"7","visit":"DAY 7 QUARANTINE","visitnum":"4.0","epoch":"QUARANTINE"},{"seq":"19","testcd":"HEIGHT","test":"Height","cat":null,"orres":"153.3","orresu":"cm","stresc":"153.3","stresn":"153.3","stresu":"cm","stnrlo":null,"stnrhi":null,"nrind":null,"pos":null,"loc":null,"dtc":"2024-04-14","dy":"7","visit":"DAY 7 QUARANTINE","visitnum":"4.0","epoch":"QUARANTINE"},{"seq":"20","testcd":"PULSE","test":"Pulse Rate","cat":null,"orres":"78.0","orresu":"beats/min","stresc":"78.0","stresn":"78.0","stresu":"beats/min","stnrlo":null,"stnrhi":null,"nrind":null,"pos":null,"loc":null,"dtc":"2024-04-14","dy":"7","visit":"DAY 7 QUARANTINE","visitnum":"4.0","epoch":"QUARANTINE"},{"seq":"21","testcd":"RESP","test":"Respiratory Rate","cat":null,"orres":"19.3","orresu":"breaths/min","stresc":"19.3","stresn":"19.3","stresu":"breaths/min","stnrlo":null,"stnrhi":null,"nrind":null,"pos":null,"loc":null,"dtc":"2024-04-14","dy":"7","visit":"DAY 7 QUARANTINE","visitnum":"4.0","epoch":"QUARANTINE"},{"seq":"22","testcd":"SYSBP","test":"Systolic Blood Pressure","cat":null,"orres":"111.4","orresu":"mmHg","stresc":"111.4","stresn":"111.4","stresu":"mmHg","stnrlo":null,"stnrhi":null,"nrind":null,"pos":null,"loc":null,"dtc":"2024-04-14","dy":"7","visit":"DAY 7 QUARANTINE","visitnum":"4.0","epoch":"QUARANTINE"},{"seq":"23","testcd":"TEMP","test":"Temperature","cat":null,"orres":"36.1","orresu":"C","stresc":"36.1","stresn":"36.1","stresu":"C","stnrlo":null,"stnrhi":null,"nrind":null,"pos":null,"loc":null,"dtc":"2024-04-14","dy":"7","visit":"DAY 7 QUARANTINE","visitnum":"4.0","epoch":"QUARANTINE"},{"seq":"24","testcd":"WEIGHT","test":"Weight","cat":null,"orres":"40.8","orresu":"kg","stresc":"40.8","stresn":"40.8","stresu":"kg","stnrlo":null,"stnrhi":null,"nrind":null,"pos":null,"loc":null,"dtc":"2024-04-14","dy":"7","visit":"DAY 7 QUARANTINE","visitnum":"4.0","epoch":"QUARANTINE"},{"seq":"25","testcd":"BMI","test":"BMI","cat":null,"orres":null,"orresu":null,"stresc":"18.6","stresn":"18.6","stresu":"kg/m2","stnrlo":null,"stnrhi":null,"nrind":null,"pos":null,"loc":null,"dtc":"2024-04-22","dy":"15","visit":"DAY 14 DISCHARGE","visitnum":"5.0","epoch":"QUARANTINE"},{"seq":"26","testcd":"DIABP","test":"Diastolic Blood Pressure","cat":null,"orres":"86.5","orresu":"mmHg","stresc":"86.5","stresn":"86.5","stresu":"mmHg","stnrlo":null,"stnrhi":null,"nrind":null,"pos":null,"loc":null,"dtc":"2024-04-22","dy":"15","visit":"DAY 14 DISCHARGE","visitnum":"5.0","epoch":"QUARANTINE"},{"seq":"27","testcd":"HEIGHT","test":"Height","cat":null,"orres":"153.6","orresu":"cm","stresc":"153.6","stresn":"153.6","stresu":"cm","stnrlo":null,"stnrhi":null,"nrind":null,"pos":null,"loc":null,"dtc":"2024-04-22","dy":"15","visit":"DAY 14 DISCHARGE","visitnum":"5.0","epoch":"QUARANTINE"},{"seq":"28","testcd":"PULSE","test":"Pulse Rate","cat":null,"orres":"74.2","orresu":"beats/min","stresc":"74.2","stresn":"74.2","stresu":"beats/min","stnrlo":null,"stnrhi":null,"nrind":null,"pos":null,"loc":null,"dtc":"2024-04-22","dy":"15","visit":"DAY 14 DISCHARGE","visitnum":"5.0","epoch":"QUARANTINE"},{"seq":"29","testcd":"RESP","test":"Respiratory Rate","cat":null,"orres":"17.6","orresu":"breaths/min","stresc":"17.6","stresn":"17.6","stresu":"breaths/min","stnrlo":null,"stnrhi":null,"nrind":null,"pos":null,"loc":null,"dtc":"2024-04-22","dy":"15","visit":"DAY 14 DISCHARGE","visitnum":"5.0","epoch":"QUARANTINE"},{"seq":"30","testcd":"SYSBP","test":"Systolic Blood Pressure","cat":null,"orres":"110.5","orresu":"mmHg","stresc":"110.5","stresn":"110.5","stresu":"mmHg","stnrlo":null,"stnrhi":null,"nrind":null,"pos":null,"loc":null,"dtc":"2024-04-22","dy":"15","visit":"DAY 14 DISCHARGE","visitnum":"5.0","epoch":"QUARANTINE"},{"seq":"31","testcd":"TEMP","test":"Temperature","cat":null,"orres":"36.6","orresu":"C","stresc":"36.6","stresn":"36.6","stresu":"C","stnrlo":null,"stnrhi":null,"nrind":null,"pos":null,"loc":null,"dtc":"2024-04-22","dy":"15","visit":"DAY 14 DISCHARGE","visitnum":"5.0","epoch":"QUARANTINE"},{"seq":"32","testcd":"WEIGHT","test":"Weight","cat":null,"orres":"44.0","orresu":"kg","stresc":"44.0","stresn":"44.0","stresu":"kg","stnrlo":null,"stnrhi":null,"nrind":null,"pos":null,"loc":null,"dtc":"2024-04-22","dy":"15","visit":"DAY 14 DISCHARGE","visitnum":"5.0","epoch":"QUARANTINE"},{"seq":"33","testcd":"BMI","test":"BMI","cat":null,"orres":null,"orresu":null,"stresc":"19.3","stresn":"19.3","stresu":"kg/m2","stnrlo":null,"stnrhi":null,"nrind":null,"pos":null,"loc":null,"dtc":"2024-05-06","dy":"29","visit":"DAY 28 FU","visitnum":"6.0","epoch":"FOLLOW-UP"},{"seq":"34","testcd":"DIABP","test":"Diastolic Blood Pressure","cat":null,"orres":"85.9","orresu":"mmHg","stresc":"85.9","stresn":"85.9","stresu":"mmHg","stnrlo":null,"stnrhi":null,"nrind":null,"pos":null,"loc":null,"dtc":"2024-05-06","dy":"29","visit":"DAY 28 FU","visitnum":"6.0","epoch":"FOLLOW-UP"},{"seq":"35","testcd":"HEIGHT","test":"Height","cat":null,"orres":"153.7","orresu":"cm","stresc":"153.7","stresn":"153.7","stresu":"cm","stnrlo":null,"stnrhi":null,"nrind":null,"pos":null,"loc":null,"dtc":"2024-05-06","dy":"29","visit":"DAY 28 FU","visitnum":"6.0","epoch":"FOLLOW-UP"},{"seq":"36","testcd":"PULSE","test":"Pulse Rate","cat":null,"orres":"77.1","orresu":"beats/min","stresc":"77.1","stresn":"77.1","stresu":"beats/min","stnrlo":null,"stnrhi":null,"nrind":null,"pos":null,"loc":null,"dtc":"2024-05-06","dy":"29","visit":"DAY 28 FU","visitnum":"6.0","epoch":"FOLLOW-UP"},{"seq":"37","testcd":"RESP","test":"Respiratory Rate","cat":null,"orres":"17.6","orresu":"breaths/min","stresc":"17.6","stresn":"17.6","stresu":"breaths/min","stnrlo":null,"stnrhi":null,"nrind":null,"pos":null,"loc":null,"dtc":"2024-05-06","dy":"29","visit":"DAY 28 FU","visitnum":"6.0","epoch":"FOLLOW-UP"},{"seq":"38","testcd":"SYSBP","test":"Systolic Blood Pressure","cat":null,"orres":"113.0","orresu":"mmHg","stresc":"113.0","stresn":"113.0","stresu":"mmHg","stnrlo":null,"stnrhi":null,"nrind":null,"pos":null,"loc":null,"dtc":"2024-05-06","dy":"29","visit":"DAY 28 FU","visitnum":"6.0","epoch":"FOLLOW-UP"},{"seq":"39","testcd":"TEMP","test":"Temperature","cat":null,"orres":"36.5","orresu":"C","stresc":"36.5","stresn":"36.5","stresu":"C","stnrlo":null,"stnrhi":null,"nrind":null,"pos":null,"loc":null,"dtc":"2024-05-06","dy":"29","visit":"DAY 28 FU","visitnum":"6.0","epoch":"FOLLOW-UP"},{"seq":"40","testcd":"WEIGHT","test":"Weight","cat":null,"orres":"45.6","orresu":"kg","stresc":"45.6","stresn":"45.6","stresu":"kg","stnrlo":null,"stnrhi":null,"nrind":null,"pos":null,"loc":null,"dtc":"2024-05-06","dy":"29","visit":"DAY 28 FU","visitnum":"6.0","epoch":"FOLLOW-UP"},{"seq":"41","testcd":"BMI","test":"BMI","cat":null,"orres":null,"orresu":null,"stresc":"19.1","stresn":"19.1","stresu":"kg/m2","stnrlo":null,"stnrhi":null,"nrind":null,"pos":null,"loc":null,"dtc":"2024-07-05","dy":"89","visit":"MONTH 3 FU","visitnum":"7.0","epoch":"FOLLOW-UP"},{"seq":"42","testcd":"DIABP","test":"Diastolic Blood Pressure","cat":null,"orres":null,"orresu":null,"stresc":null,"stresn":null,"stresu":null,"stnrlo":null,"stnrhi":null,"nrind":null,"pos":null,"loc":null,"dtc":"2024-07-05","dy":"89","visit":"MONTH 3 FU","visitnum":"7.0","epoch":"FOLLOW-UP"},{"seq":"43","testcd":"HEIGHT","test":"Height","cat":null,"orres":"153.5","orresu":"cm","stresc":"153.5","stresn":"153.5","stresu":"cm","stnrlo":null,"stnrhi":null,"nrind":null,"pos":null,"loc":null,"dtc":"2024-07-05","dy":"89","visit":"MONTH 3 FU","visitnum":"7.0","epoch":"FOLLOW-UP"},{"seq":"44","testcd":"PULSE","test":"Pulse Rate","cat":null,"orres":null,"orresu":null,"stresc":null,"stresn":null,"stresu":null,"stnrlo":null,"stnrhi":null,"nrind":null,"pos":null,"loc":null,"dtc":"2024-07-05","dy":"89","visit":"MONTH 3 FU","visitnum":"7.0","epoch":"FOLLOW-UP"},{"seq":"45","testcd":"RESP","test":"Respiratory Rate","cat":null,"orres":null,"orresu":null,"stresc":null,"stresn":null,"stresu":null,"stnrlo":null,"stnrhi":null,"nrind":null,"pos":null,"loc":null,"dtc":"2024-07-05","dy":"89","visit":"MONTH 3 FU","visitnum":"7.0","epoch":"FOLLOW-UP"},{"seq":"46","testcd":"SYSBP","test":"Systolic Blood Pressure","cat":null,"orres":"114.3","orresu":"mmHg","stresc":"114.3","stresn":"114.3","stresu":"mmHg","stnrlo":null,"stnrhi":null,"nrind":null,"pos":null,"loc":null,"dtc":"2024-07-05","dy":"89","visit":"MONTH 3 FU","visitnum":"7.0","epoch":"FOLLOW-UP"},{"seq":"47","testcd":"TEMP","test":"Temperature","cat":null,"orres":"36.6","orresu":"C","stresc":"36.6","stresn":"36.6","stresu":"C","stnrlo":null,"stnrhi":null,"nrind":null,"pos":null,"loc":null,"dtc":"2024-07-05","dy":"89","visit":"MONTH 3 FU","visitnum":"7.0","epoch":"FOLLOW-UP"},{"seq":"48","testcd":"WEIGHT","test":"Weight","cat":null,"orres":"44.9","orresu":"kg","stresc":"44.9","stresn":"44.9","stresu":"kg","stnrlo":null,"stnrhi":null,"nrind":null,"pos":null,"loc":null,"dtc":"2024-07-05","dy":"89","visit":"MONTH 3 FU","visitnum":"7.0","epoch":"FOLLOW-UP"},{"seq":"49","testcd":"BMI","test":"BMI","cat":null,"orres":null,"orresu":null,"stresc":"19.6","stresn":"19.6","stresu":"kg/m2","stnrlo":null,"stnrhi":null,"nrind":null,"pos":null,"loc":null,"dtc":"2025-03-29","dy":"356","visit":"MONTH 12 FU","visitnum":"9.0","epoch":"FOLLOW-UP"},{"seq":"50","testcd":"DIABP","test":"Diastolic Blood Pressure","cat":null,"orres":"88.1","orresu":"mmHg","stresc":"88.1","stresn":"88.1","stresu":"mmHg","stnrlo":null,"stnrhi":null,"nrind":null,"pos":null,"loc":null,"dtc":"2025-03-29","dy":"356","visit":"MONTH 12 FU","visitnum":"9.0","epoch":"FOLLOW-UP"},{"seq":"51","testcd":"HEIGHT","test":"Height","cat":null,"orres":"153.6","orresu":"cm","stresc":"153.6","stresn":"153.6","stresu":"cm","stnrlo":null,"stnrhi":null,"nrind":null,"pos":null,"loc":null,"dtc":"2025-03-29","dy":"356","visit":"MONTH 12 FU","visitnum":"9.0","epoch":"FOLLOW-UP"},{"seq":"52","testcd":"PULSE","test":"Pulse Rate","cat":null,"orres":"79.1","orresu":"beats/min","stresc":"79.1","stresn":"79.1","stresu":"beats/min","stnrlo":null,"stnrhi":null,"nrind":null,"pos":null,"loc":null,"dtc":"2025-03-29","dy":"356","visit":"MONTH 12 FU","visitnum":"9.0","epoch":"FOLLOW-UP"},{"seq":"53","testcd":"RESP","test":"Respiratory Rate","cat":null,"orres":"17.0","orresu":"breaths/min","stresc":"17.0","stresn":"17.0","stresu":"breaths/min","stnrlo":null,"stnrhi":null,"nrind":null,"pos":null,"loc":null,"dtc":"2025-03-29","dy":"356","visit":"MONTH 12 FU","visitnum":"9.0","epoch":"FOLLOW-UP"},{"seq":"54","testcd":"SYSBP","test":"Systolic Blood Pressure","cat":null,"orres":"118.1","orresu":"mmHg","stresc":"118.1","stresn":"118.1","stresu":"mmHg","stnrlo":null,"stnrhi":null,"nrind":null,"pos":null,"loc":null,"dtc":"2025-03-29","dy":"356","visit":"MONTH 12 FU","visitnum":"9.0","epoch":"FOLLOW-UP"},{"seq":"55","testcd":"TEMP","test":"Temperature","cat":null,"orres":"36.3","orresu":"C","stresc":"36.3","stresn":"36.3","stresu":"C","stnrlo":null,"stnrhi":null,"nrind":null,"pos":null,"loc":null,"dtc":"2025-03-29","dy":"356","visit":"MONTH 12 FU","visitnum":"9.0","epoch":"FOLLOW-UP"},{"seq":"56","testcd":"WEIGHT","test":"Weight","cat":null,"orres":"46.3","orresu":"kg","stresc":"46.3","stresn":"46.3","stresu":"kg","stnrlo":null,"stnrhi":null,"nrind":null,"pos":null,"loc":null,"dtc":"2025-03-29","dy":"356","visit":"MONTH 12 FU","visitnum":"9.0","epoch":"FOLLOW-UP"}]},"section_10_questionnaires_and_scores":{"questionnaires":[],"findings_about":[]},"section_11_protocol_deviations":{"deviations":[{"seq":"1","term":"Dose modified from 1000.0 to 100.0 mg","decod":"DOSE MODIFICATION","cat":"MINOR","scat":"DOSING","start_dtc":"2024-04-11","end_dtc":null,"visit":null},{"seq":"2","term":"Visit MONTH 3 FU occurred 1 days early (Day 89 vs planned Day 90)","decod":"VISIT OCCURRED OUTSIDE VISIT WINDOW","cat":"MINOR","scat":"VISIT WINDOW","start_dtc":"2024-07-05","end_dtc":null,"visit":null},{"seq":"3","term":"Vital signs assessment not performed at MONTH 3 FU","decod":"MISSED ASSESSMENT","cat":"MINOR","scat":"ASSESSMENT","start_dtc":"2024-07-05","end_dtc":null,"visit":null},{"seq":"4","term":"Visit MONTH 12 FU occurred 9 days early (Day 356 vs planned Day 365)","decod":"VISIT OCCURRED OUTSIDE VISIT WINDOW","cat":"MINOR","scat":"VISIT WINDOW","start_dtc":"2025-03-29","end_dtc":null,"visit":null}],"total":4},"section_12_disposition":{"completion_status":"COMPLETED","disposition_records":[{"seq":"1","term":"INFORMED CONSENT OBTAINED","decod":"INFORMED CONSENT OBTAINED","cat":"PROTOCOL MILESTONE","scat":null,"dtc":"2024-04-01","dy":null,"visit":null,"epoch":"SCREENING"},{"seq":"2","term":"RANDOMIZED","decod":"RANDOMIZED","cat":"PROTOCOL MILESTONE","scat":null,"dtc":"2024-04-08","dy":null,"visit":null,"epoch":"TREATMENT"},{"seq":"3","term":"COMPLETED","decod":"COMPLETED","cat":"DISPOSITION EVENT","scat":null,"dtc":"2025-05-05","dy":null,"visit":null,"epoch":"FOLLOW-UP"}],"death":null},"section_13_hospitalizations":{"items":[],"total":0},"section_14_substance_use":{"items":[{"seq":"1","substance":"BEER/WINE/SPIRITS","decod":"ETHANOL","cat":"ALCOHOL","scat":null,"usage":"Y","dose":"13.0","dosu":"DRINKS/WEEK","freq":"QW","start_dtc":"1997-04-08","end_dtc":null},{"seq":"2","substance":"COFFEE","decod":"COFFEE","cat":"CAFFEINE","scat":null,"usage":"Y","dose":"5.0","dosu":"CUPS/DAY","freq":"QD","start_dtc":"2006-04-06","end_dtc":null},{"seq":"3","substance":"CIGARETTES","decod":"CIGARETTES","cat":"TOBACCO","scat":null,"usage":"N","dose":null,"dosu":null,"freq":null,"start_dtc":null,"end_dtc":null}],"total":3},"section_15_subject_status":{"items":[{"seq":"1","testcd":"SURVSTAT","test":"Survival Status","orres":"ALIVE","stresc":"ALIVE","dtc":"2025-05-05","visit":null,"epoch":"FOLLOW-UP"}],"total":1}}