{"subject_id":"COVHIC001-CHALLENGE-UK_ICL_HVIVO01-0005","study_id":"COVHIC001-CHALLENGE","generated_at":"2026-07-07T05:03:08.817122+00:00","sdtmig_version":"3.4","flags":{"has_serious_ae":true,"has_fatal_ae":false,"has_protocol_deviation":true,"n_protocol_deviations":1,"n_adverse_events":1,"n_concomitant_meds":1,"max_ae_severity":"SEVERE","screen_failure":false,"discontinued_early":false,"discontinuation_reason":null,"death":false,"exposure_days":4},"timeline":[{"dtc":"2024-02-06","dy":"-37","event":"VISIT: SCREENING","domain":"SV","category":"visit"},{"dtc":"2024-02-14","dy":"-29","event":"INFORMED CONSENT OBTAINED","domain":"DS","category":"milestone"},{"dtc":"2024-03-14","dy":"1","event":"RANDOMIZED","domain":"DS","category":"milestone"},{"dtc":"2024-03-14","dy":"1","event":"FIRST DOSE: SARS-COV-2-CHALLENGE","domain":"EX","category":"exposure"},{"dtc":"2024-03-14","dy":"1","event":"VISIT: DAY 1 INOCULATION","domain":"SV","category":"visit"},{"dtc":"2024-03-17","dy":"4","event":"VISIT: DAY 4 QUARANTINE","domain":"SV","category":"visit"},{"dtc":"2024-03-18","dy":"5","event":"LAST DOSE: REMDESIVIR","domain":"EX","category":"exposure"},{"dtc":"2024-03-20","dy":"7","event":"VISIT: DAY 7 QUARANTINE","domain":"SV","category":"visit"},{"dtc":"2024-03-21","dy":"8","event":"AE: Fatigue (SEVERE) [SERIOUS]","domain":"AE","category":"adverse_event"},{"dtc":"2024-03-28","dy":"15","event":"VISIT: DAY 14 DISCHARGE","domain":"SV","category":"visit"},{"dtc":"2024-04-13","dy":"31","event":"VISIT: DAY 28 FU","domain":"SV","category":"visit"},{"dtc":"2024-04-24","dy":"42","event":"CM START: METFORMIN","domain":"CM","category":"concomitant_med"},{"dtc":"2024-06-14","dy":"93","event":"VISIT: MONTH 3 FU","domain":"SV","category":"visit"},{"dtc":"2024-08-30","dy":"170","event":"VISIT: MONTH 6 FU","domain":"SV","category":"visit"},{"dtc":"2025-03-08","dy":"360","event":"DEVIATION: VISIT OCCURRED OUTSIDE VISIT WINDOW","domain":"DV","category":"deviation"},{"dtc":"2025-03-08","dy":"360","event":"VISIT: MONTH 12 FU","domain":"SV","category":"visit"},{"dtc":"2025-04-10","dy":"393","event":"COMPLETED","domain":"DS","category":"milestone"}],"section_1_demographics":{"usubjid":"COVHIC001-CHALLENGE-UK_ICL_HVIVO01-0005","subjid":"0005","siteid":"UK_ICL_HVIVO01","age":"22","ageu":"YEARS","sex":"F","race":"WHITE","ethnicity":"NOT HISPANIC OR LATINO","country":"GBR","arm":"Dose 3 \u2014 1000 TCID50 intranasal SARS-CoV-2 + pre-emptive remdesivir","armcd":"DOSE3","actarm":"Dose 3 \u2014 1000 TCID50 intranasal SARS-CoV-2 + pre-emptive remdesivir","actarmcd":"DOSE3","randomization_date":null,"informed_consent_date":"2024-02-14","reference_start_date":"2024-03-14","reference_end_date":"2025-04-10","screen_failure":false,"death_flag":null,"death_date":null,"subject_characteristics":[{"testcd":"ALCUSE","test":"Alcohol Use","orres":"NON-DRINKER","stresc":"NON-DRINKER","visit":null,"dtc":"2024-02-14"},{"testcd":"BMI","test":"Body Mass Index","orres":"33.7","stresc":"33.7","visit":null,"dtc":"2024-02-14"},{"testcd":"TOBUSE","test":"Tobacco Use","orres":"NEVER SMOKED","stresc":"NEVER SMOKED","visit":null,"dtc":"2024-02-14"}]},"section_2_medical_history":{"items":[]},"section_3_inclusion_exclusion":{"criteria":[]},"section_4_trial_participation":{"visits":[{"visitnum":"1.0","visit":"SCREENING","start_dtc":"2024-02-06","end_dtc":"2024-02-06","updes":null},{"visitnum":"2.0","visit":"DAY 1 INOCULATION","start_dtc":"2024-03-14","end_dtc":"2024-03-14","updes":null},{"visitnum":"3.0","visit":"DAY 4 QUARANTINE","start_dtc":"2024-03-17","end_dtc":"2024-03-17","updes":null},{"visitnum":"4.0","visit":"DAY 7 QUARANTINE","start_dtc":"2024-03-20","end_dtc":"2024-03-20","updes":null},{"visitnum":"5.0","visit":"DAY 14 DISCHARGE","start_dtc":"2024-03-28","end_dtc":"2024-03-28","updes":null},{"visitnum":"6.0","visit":"DAY 28 FU","start_dtc":"2024-04-13","end_dtc":"2024-04-13","updes":null},{"visitnum":"7.0","visit":"MONTH 3 FU","start_dtc":"2024-06-14","end_dtc":"2024-06-14","updes":null},{"visitnum":"8.0","visit":"MONTH 6 FU","start_dtc":"2024-08-30","end_dtc":"2024-08-30","updes":null},{"visitnum":"9.0","visit":"MONTH 12 FU","start_dtc":"2025-03-08","end_dtc":"2025-03-08","updes":null}],"epochs":[{"seq":"1","etcd":"SCRN","element":"Screening","start_dtc":"2024-02-15","end_dtc":"2024-03-14","updes":null},{"seq":"2","etcd":"INOC","element":"Inoculation + quarantine","start_dtc":"2024-03-14","end_dtc":"2024-03-28","updes":null},{"seq":"3","etcd":"FU","element":"Outpatient follow-up","start_dtc":"2024-03-28","end_dtc":"2025-03-22","updes":null}],"visit_count":9},"section_5_concomitant_medications":{"medications":[{"seq":"1","trt":"METFORMIN","decod":"METFORMIN","cat":"CONCOMITANT","dose":null,"doseu":null,"dosef":"BID","route":"ORAL","indication":null,"start_dtc":"2024-04-24","end_dtc":"2024-07-14","ongoing":null,"visit":null}]},"section_6_exposure":{"exposure_as_administered":[{"seq":"1","trt":"SARS-COV-2-CHALLENGE","dose":"1000.0","doseu":null,"dosef":"ONCE","route":"NASAL","lot":null,"start_dtc":"2024-03-14","end_dtc":"2024-03-14","start_dy":"1","end_dy":"1","epoch":"TREATMENT","visit":null},{"seq":"2","trt":"REMDESIVIR","dose":"200.0","doseu":null,"dosef":"ONCE","route":"INTRAVENOUS","lot":null,"start_dtc":"2024-03-16","end_dtc":"2024-03-16","start_dy":"3","end_dy":"3","epoch":"TREATMENT","visit":null},{"seq":"3","trt":"REMDESIVIR","dose":"100.0","doseu":null,"dosef":"QD","route":"INTRAVENOUS","lot":null,"start_dtc":"2024-03-17","end_dtc":"2024-03-18","start_dy":"4","end_dy":"5","epoch":"TREATMENT","visit":null}],"exposure_as_collected":[{"seq":"1","trt":"SARS-COV-2-CHALLENGE","dose":"1000.0","doseu":null,"dosef":"ONCE","route":"NASAL","start_dtc":"2024-03-14","end_dtc":"2024-03-14","visit":"DAY 1 INOCULATION"},{"seq":"2","trt":"REMDESIVIR","dose":"200.0","doseu":null,"dosef":"ONCE","route":"INTRAVENOUS","start_dtc":"2024-03-16","end_dtc":"2024-03-16","visit":"DAY 1 INOCULATION"},{"seq":"3","trt":"REMDESIVIR","dose":"100.0","doseu":null,"dosef":"QD","route":"INTRAVENOUS","start_dtc":"2024-03-17","end_dtc":"2024-03-17","visit":"DAY 1 INOCULATION"},{"seq":"4","trt":"REMDESIVIR","dose":"100.0","doseu":null,"dosef":"QD","route":"INTRAVENOUS","start_dtc":"2024-03-18","end_dtc":"2024-03-18","visit":"DAY 4 QUARANTINE"}]},"section_7_adverse_events":{"summary":{"total_aes":1,"serious_aes":1,"fatal_aes":0,"by_severity":{"SEVERE":1},"by_soc":{"General disorders and administration site conditions":1}},"events":[{"seq":"1","term":"FATIGUE","decod":"Fatigue","llt":"Fatigue","hlt":"Asthenic conditions","hlgt":"General system disorders NEC","soc":"General disorders and administration site conditions","bodsys":"General disorders and administration site conditions","severity":"SEVERE","serious":"Y","causality":"UNLIKELY RELATED","action_taken":"DOSE NOT CHANGED","outcome":"RECOVERING/RESOLVING","fatal":"N","hospitalization":"Y","life_threatening":"N","onset_dtc":"2024-03-21","end_dtc":"2024-05-03","onset_dy":"8","end_dy":"51","duration":null,"epoch":"TREATMENT","visit":null,"supplemental":{"AETRTEM":"Y"}}]},"section_8_laboratory_results":{"summary":{"total_records":56,"abnormal_count":0,"abnormal_pct":0.0},"shift_summary":[{"testcd":"ALT","baseline_value":29.07,"baseline_nrind":"NORMAL","worst_post_baseline_value":30.23,"worst_post_baseline_nrind":"NORMAL","worst_visit":"DAY 1 INOCULATION"},{"testcd":"AST","baseline_value":18.63,"baseline_nrind":"NORMAL","worst_post_baseline_value":22.61,"worst_post_baseline_nrind":"NORMAL","worst_visit":"MONTH 3 FU"},{"testcd":"CREAT","baseline_value":52.48,"baseline_nrind":"NORMAL","worst_post_baseline_value":60.13,"worst_post_baseline_nrind":"NORMAL","worst_visit":"DAY 4 QUARANTINE"},{"testcd":"GLUC","baseline_value":4.91,"baseline_nrind":"NORMAL","worst_post_baseline_value":5.08,"worst_post_baseline_nrind":"NORMAL","worst_visit":"DAY 28 FU"},{"testcd":"HGB","baseline_value":141.45,"baseline_nrind":"NORMAL","worst_post_baseline_value":137.4,"worst_post_baseline_nrind":"NORMAL","worst_visit":"MONTH 6 FU"},{"testcd":"PLAT","baseline_value":247.37,"baseline_nrind":"NORMAL","worst_post_baseline_value":262.72,"worst_post_baseline_nrind":"NORMAL","worst_visit":"MONTH 6 FU"},{"testcd":"WBC","baseline_value":6.56,"baseline_nrind":"NORMAL","worst_post_baseline_value":7.15,"worst_post_baseline_nrind":"NORMAL","worst_visit":"DAY 1 INOCULATION"}],"results":[{"seq":"1","testcd":"ALT","test":"Alanine Aminotransferase","cat":"CHEMISTRY","orres":"29.07","orresu":"U/L","stresc":"29.07","stresn":"29.07","stresu":"U/L","stnrlo":"7","stnrhi":"56","nrind":"NORMAL","fast":null,"dtc":"2024-02-06","dy":"-37","visit":"SCREENING","visitnum":"1.0","epoch":"SCREENING","spec":null,"method":null},{"seq":"2","testcd":"AST","test":"Aspartate Aminotransferase","cat":"CHEMISTRY","orres":"18.63","orresu":"U/L","stresc":"18.63","stresn":"18.63","stresu":"U/L","stnrlo":"10","stnrhi":"40","nrind":"NORMAL","fast":null,"dtc":"2024-02-06","dy":"-37","visit":"SCREENING","visitnum":"1.0","epoch":"SCREENING","spec":null,"method":null},{"seq":"3","testcd":"CREAT","test":"Creatinine","cat":"CHEMISTRY","orres":"52.48","orresu":"umol/L","stresc":"52.48","stresn":"52.48","stresu":"umol/L","stnrlo":"44","stnrhi":"80","nrind":"NORMAL","fast":null,"dtc":"2024-02-06","dy":"-37","visit":"SCREENING","visitnum":"1.0","epoch":"SCREENING","spec":null,"method":null},{"seq":"4","testcd":"GLUC","test":"Glucose","cat":"CHEMISTRY","orres":"4.91","orresu":"mmol/L","stresc":"4.91","stresn":"4.91","stresu":"mmol/L","stnrlo":"3.9","stnrhi":"5.6","nrind":"NORMAL","fast":null,"dtc":"2024-02-06","dy":"-37","visit":"SCREENING","visitnum":"1.0","epoch":"SCREENING","spec":null,"method":null},{"seq":"5","testcd":"HGB","test":"Hemoglobin","cat":"HEMATOLOGY","orres":"141.45","orresu":"g/L","stresc":"141.45","stresn":"141.45","stresu":"g/L","stnrlo":"120","stnrhi":"155","nrind":"NORMAL","fast":null,"dtc":"2024-02-06","dy":"-37","visit":"SCREENING","visitnum":"1.0","epoch":"SCREENING","spec":null,"method":null},{"seq":"6","testcd":"PLAT","test":"Platelets","cat":"HEMATOLOGY","orres":"247.37","orresu":"10^9/L","stresc":"247.37","stresn":"247.37","stresu":"10^9/L","stnrlo":"150","stnrhi":"400","nrind":"NORMAL","fast":null,"dtc":"2024-02-06","dy":"-37","visit":"SCREENING","visitnum":"1.0","epoch":"SCREENING","spec":null,"method":null},{"seq":"7","testcd":"WBC","test":"Leukocytes","cat":"HEMATOLOGY","orres":"6.56","orresu":"10^9/L","stresc":"6.56","stresn":"6.56","stresu":"10^9/L","stnrlo":"4.0","stnrhi":"11.0","nrind":"NORMAL","fast":null,"dtc":"2024-02-06","dy":"-37","visit":"SCREENING","visitnum":"1.0","epoch":"SCREENING","spec":null,"method":null},{"seq":"8","testcd":"ALT","test":"Alanine Aminotransferase","cat":"CHEMISTRY","orres":"30.23","orresu":"U/L","stresc":"30.23","stresn":"30.23","stresu":"U/L","stnrlo":"7","stnrhi":"56","nrind":"NORMAL","fast":null,"dtc":"2024-03-14","dy":"1","visit":"DAY 1 INOCULATION","visitnum":"2.0","epoch":"TREATMENT","spec":null,"method":null},{"seq":"9","testcd":"AST","test":"Aspartate Aminotransferase","cat":"CHEMISTRY","orres":"21.06","orresu":"U/L","stresc":"21.06","stresn":"21.06","stresu":"U/L","stnrlo":"10","stnrhi":"40","nrind":"NORMAL","fast":null,"dtc":"2024-03-14","dy":"1","visit":"DAY 1 INOCULATION","visitnum":"2.0","epoch":"TREATMENT","spec":null,"method":null},{"seq":"10","testcd":"CREAT","test":"Creatinine","cat":"CHEMISTRY","orres":"56.68","orresu":"umol/L","stresc":"56.68","stresn":"56.68","stresu":"umol/L","stnrlo":"44","stnrhi":"80","nrind":"NORMAL","fast":null,"dtc":"2024-03-14","dy":"1","visit":"DAY 1 INOCULATION","visitnum":"2.0","epoch":"TREATMENT","spec":null,"method":null},{"seq":"11","testcd":"GLUC","test":"Glucose","cat":"CHEMISTRY","orres":"4.81","orresu":"mmol/L","stresc":"4.81","stresn":"4.81","stresu":"mmol/L","stnrlo":"3.9","stnrhi":"5.6","nrind":"NORMAL","fast":null,"dtc":"2024-03-14","dy":"1","visit":"DAY 1 INOCULATION","visitnum":"2.0","epoch":"TREATMENT","spec":null,"method":null},{"seq":"12","testcd":"HGB","test":"Hemoglobin","cat":"HEMATOLOGY","orres":"142.1","orresu":"g/L","stresc":"142.1","stresn":"142.1","stresu":"g/L","stnrlo":"120","stnrhi":"155","nrind":"NORMAL","fast":null,"dtc":"2024-03-14","dy":"1","visit":"DAY 1 INOCULATION","visitnum":"2.0","epoch":"TREATMENT","spec":null,"method":null},{"seq":"13","testcd":"PLAT","test":"Platelets","cat":"HEMATOLOGY","orres":"238.25","orresu":"10^9/L","stresc":"238.25","stresn":"238.25","stresu":"10^9/L","stnrlo":"150","stnrhi":"400","nrind":"NORMAL","fast":null,"dtc":"2024-03-14","dy":"1","visit":"DAY 1 INOCULATION","visitnum":"2.0","epoch":"TREATMENT","spec":null,"method":null},{"seq":"14","testcd":"WBC","test":"Leukocytes","cat":"HEMATOLOGY","orres":"7.15","orresu":"10^9/L","stresc":"7.15","stresn":"7.15","stresu":"10^9/L","stnrlo":"4.0","stnrhi":"11.0","nrind":"NORMAL","fast":null,"dtc":"2024-03-14","dy":"1","visit":"DAY 1 INOCULATION","visitnum":"2.0","epoch":"TREATMENT","spec":null,"method":null},{"seq":"15","testcd":"ALT","test":"Alanine Aminotransferase","cat":"CHEMISTRY","orres":"28.11","orresu":"U/L","stresc":"28.11","stresn":"28.11","stresu":"U/L","stnrlo":"7","stnrhi":"56","nrind":"NORMAL","fast":null,"dtc":"2024-03-17","dy":"4","visit":"DAY 4 QUARANTINE","visitnum":"3.0","epoch":"QUARANTINE","spec":null,"method":null},{"seq":"16","testcd":"AST","test":"Aspartate Aminotransferase","cat":"CHEMISTRY","orres":null,"orresu":null,"stresc":null,"stresn":null,"stresu":null,"stnrlo":null,"stnrhi":null,"nrind":null,"fast":null,"dtc":"2024-03-17","dy":"4","visit":"DAY 4 QUARANTINE","visitnum":"3.0","epoch":"QUARANTINE","spec":null,"method":null},{"seq":"17","testcd":"CREAT","test":"Creatinine","cat":"CHEMISTRY","orres":"60.13","orresu":"umol/L","stresc":"60.13","stresn":"60.13","stresu":"umol/L","stnrlo":"44","stnrhi":"80","nrind":"NORMAL","fast":null,"dtc":"2024-03-17","dy":"4","visit":"DAY 4 QUARANTINE","visitnum":"3.0","epoch":"QUARANTINE","spec":null,"method":null},{"seq":"18","testcd":"GLUC","test":"Glucose","cat":"CHEMISTRY","orres":"4.78","orresu":"mmol/L","stresc":"4.78","stresn":"4.78","stresu":"mmol/L","stnrlo":"3.9","stnrhi":"5.6","nrind":"NORMAL","fast":null,"dtc":"2024-03-17","dy":"4","visit":"DAY 4 QUARANTINE","visitnum":"3.0","epoch":"QUARANTINE","spec":null,"method":null},{"seq":"19","testcd":"HGB","test":"Hemoglobin","cat":"HEMATOLOGY","orres":"141.13","orresu":"g/L","stresc":"141.13","stresn":"141.13","stresu":"g/L","stnrlo":"120","stnrhi":"155","nrind":"NORMAL","fast":null,"dtc":"2024-03-17","dy":"4","visit":"DAY 4 QUARANTINE","visitnum":"3.0","epoch":"QUARANTINE","spec":null,"method":null},{"seq":"20","testcd":"PLAT","test":"Platelets","cat":"HEMATOLOGY","orres":"249.25","orresu":"10^9/L","stresc":"249.25","stresn":"249.25","stresu":"10^9/L","stnrlo":"150","stnrhi":"400","nrind":"NORMAL","fast":null,"dtc":"2024-03-17","dy":"4","visit":"DAY 4 QUARANTINE","visitnum":"3.0","epoch":"QUARANTINE","spec":null,"method":null},{"seq":"21","testcd":"WBC","test":"Leukocytes","cat":"HEMATOLOGY","orres":"6.63","orresu":"10^9/L","stresc":"6.63","stresn":"6.63","stresu":"10^9/L","stnrlo":"4.0","stnrhi":"11.0","nrind":"NORMAL","fast":null,"dtc":"2024-03-17","dy":"4","visit":"DAY 4 QUARANTINE","visitnum":"3.0","epoch":"QUARANTINE","spec":null,"method":null},{"seq":"22","testcd":"ALT","test":"Alanine Aminotransferase","cat":"CHEMISTRY","orres":"28.58","orresu":"U/L","stresc":"28.58","stresn":"28.58","stresu":"U/L","stnrlo":"7","stnrhi":"56","nrind":"NORMAL","fast":null,"dtc":"2024-03-20","dy":"7","visit":"DAY 7 QUARANTINE","visitnum":"4.0","epoch":"QUARANTINE","spec":null,"method":null},{"seq":"23","testcd":"AST","test":"Aspartate Aminotransferase","cat":"CHEMISTRY","orres":"21.29","orresu":"U/L","stresc":"21.29","stresn":"21.29","stresu":"U/L","stnrlo":"10","stnrhi":"40","nrind":"NORMAL","fast":null,"dtc":"2024-03-20","dy":"7","visit":"DAY 7 QUARANTINE","visitnum":"4.0","epoch":"QUARANTINE","spec":null,"method":null},{"seq":"24","testcd":"CREAT","test":"Creatinine","cat":"CHEMISTRY","orres":"57.46","orresu":"umol/L","stresc":"57.46","stresn":"57.46","stresu":"umol/L","stnrlo":"44","stnrhi":"80","nrind":"NORMAL","fast":null,"dtc":"2024-03-20","dy":"7","visit":"DAY 7 QUARANTINE","visitnum":"4.0","epoch":"QUARANTINE","spec":null,"method":null},{"seq":"25","testcd":"GLUC","test":"Glucose","cat":"CHEMISTRY","orres":"4.83","orresu":"mmol/L","stresc":"4.83","stresn":"4.83","stresu":"mmol/L","stnrlo":"3.9","stnrhi":"5.6","nrind":"NORMAL","fast":null,"dtc":"2024-03-20","dy":"7","visit":"DAY 7 QUARANTINE","visitnum":"4.0","epoch":"QUARANTINE","spec":null,"method":null},{"seq":"26","testcd":"HGB","test":"Hemoglobin","cat":"HEMATOLOGY","orres":"141.83","orresu":"g/L","stresc":"141.83","stresn":"141.83","stresu":"g/L","stnrlo":"120","stnrhi":"155","nrind":"NORMAL","fast":null,"dtc":"2024-03-20","dy":"7","visit":"DAY 7 QUARANTINE","visitnum":"4.0","epoch":"QUARANTINE","spec":null,"method":null},{"seq":"27","testcd":"PLAT","test":"Platelets","cat":"HEMATOLOGY","orres":"231.57","orresu":"10^9/L","stresc":"231.57","stresn":"231.57","stresu":"10^9/L","stnrlo":"150","stnrhi":"400","nrind":"NORMAL","fast":null,"dtc":"2024-03-20","dy":"7","visit":"DAY 7 QUARANTINE","visitnum":"4.0","epoch":"QUARANTINE","spec":null,"method":null},{"seq":"28","testcd":"WBC","test":"Leukocytes","cat":"HEMATOLOGY","orres":"6.34","orresu":"10^9/L","stresc":"6.34","stresn":"6.34","stresu":"10^9/L","stnrlo":"4.0","stnrhi":"11.0","nrind":"NORMAL","fast":null,"dtc":"2024-03-20","dy":"7","visit":"DAY 7 QUARANTINE","visitnum":"4.0","epoch":"QUARANTINE","spec":null,"method":null},{"seq":"29","testcd":"ALT","test":"Alanine Aminotransferase","cat":"CHEMISTRY","orres":"27.61","orresu":"U/L","stresc":"27.61","stresn":"27.61","stresu":"U/L","stnrlo":"7","stnrhi":"56","nrind":"NORMAL","fast":null,"dtc":"2024-03-28","dy":"15","visit":"DAY 14 DISCHARGE","visitnum":"5.0","epoch":"QUARANTINE","spec":null,"method":null},{"seq":"30","testcd":"AST","test":"Aspartate Aminotransferase","cat":"CHEMISTRY","orres":"22.47","orresu":"U/L","stresc":"22.47","stresn":"22.47","stresu":"U/L","stnrlo":"10","stnrhi":"40","nrind":"NORMAL","fast":null,"dtc":"2024-03-28","dy":"15","visit":"DAY 14 DISCHARGE","visitnum":"5.0","epoch":"QUARANTINE","spec":null,"method":null},{"seq":"31","testcd":"CREAT","test":"Creatinine","cat":"CHEMISTRY","orres":"57.97","orresu":"umol/L","stresc":"57.97","stresn":"57.97","stresu":"umol/L","stnrlo":"44","stnrhi":"80","nrind":"NORMAL","fast":null,"dtc":"2024-03-28","dy":"15","visit":"DAY 14 DISCHARGE","visitnum":"5.0","epoch":"QUARANTINE","spec":null,"method":null},{"seq":"32","testcd":"GLUC","test":"Glucose","cat":"CHEMISTRY","orres":"5.01","orresu":"mmol/L","stresc":"5.01","stresn":"5.01","stresu":"mmol/L","stnrlo":"3.9","stnrhi":"5.6","nrind":"NORMAL","fast":null,"dtc":"2024-03-28","dy":"15","visit":"DAY 14 DISCHARGE","visitnum":"5.0","epoch":"QUARANTINE","spec":null,"method":null},{"seq":"33","testcd":"HGB","test":"Hemoglobin","cat":"HEMATOLOGY","orres":"141.19","orresu":"g/L","stresc":"141.19","stresn":"141.19","stresu":"g/L","stnrlo":"120","stnrhi":"155","nrind":"NORMAL","fast":null,"dtc":"2024-03-28","dy":"15","visit":"DAY 14 DISCHARGE","visitnum":"5.0","epoch":"QUARANTINE","spec":null,"method":null},{"seq":"34","testcd":"PLAT","test":"Platelets","cat":"HEMATOLOGY","orres":null,"orresu":null,"stresc":null,"stresn":null,"stresu":null,"stnrlo":null,"stnrhi":null,"nrind":null,"fast":null,"dtc":"2024-03-28","dy":"15","visit":"DAY 14 DISCHARGE","visitnum":"5.0","epoch":"QUARANTINE","spec":null,"method":null},{"seq":"35","testcd":"WBC","test":"Leukocytes","cat":"HEMATOLOGY","orres":null,"orresu":null,"stresc":null,"stresn":null,"stresu":null,"stnrlo":null,"stnrhi":null,"nrind":null,"fast":null,"dtc":"2024-03-28","dy":"15","visit":"DAY 14 DISCHARGE","visitnum":"5.0","epoch":"QUARANTINE","spec":null,"method":null},{"seq":"36","testcd":"ALT","test":"Alanine Aminotransferase","cat":"CHEMISTRY","orres":"27.57","orresu":"U/L","stresc":"27.57","stresn":"27.57","stresu":"U/L","stnrlo":"7","stnrhi":"56","nrind":"NORMAL","fast":null,"dtc":"2024-04-13","dy":"31","visit":"DAY 28 FU","visitnum":"6.0","epoch":"FOLLOW-UP","spec":null,"method":null},{"seq":"37","testcd":"AST","test":"Aspartate Aminotransferase","cat":"CHEMISTRY","orres":"22.27","orresu":"U/L","stresc":"22.27","stresn":"22.27","stresu":"U/L","stnrlo":"10","stnrhi":"40","nrind":"NORMAL","fast":null,"dtc":"2024-04-13","dy":"31","visit":"DAY 28 FU","visitnum":"6.0","epoch":"FOLLOW-UP","spec":null,"method":null},{"seq":"38","testcd":"CREAT","test":"Creatinine","cat":"CHEMISTRY","orres":"55.31","orresu":"umol/L","stresc":"55.31","stresn":"55.31","stresu":"umol/L","stnrlo":"44","stnrhi":"80","nrind":"NORMAL","fast":null,"dtc":"2024-04-13","dy":"31","visit":"DAY 28 FU","visitnum":"6.0","epoch":"FOLLOW-UP","spec":null,"method":null},{"seq":"39","testcd":"GLUC","test":"Glucose","cat":"CHEMISTRY","orres":"5.08","orresu":"mmol/L","stresc":"5.08","stresn":"5.08","stresu":"mmol/L","stnrlo":"3.9","stnrhi":"5.6","nrind":"NORMAL","fast":null,"dtc":"2024-04-13","dy":"31","visit":"DAY 28 FU","visitnum":"6.0","epoch":"FOLLOW-UP","spec":null,"method":null},{"seq":"40","testcd":"HGB","test":"Hemoglobin","cat":"HEMATOLOGY","orres":"140.73","orresu":"g/L","stresc":"140.73","stresn":"140.73","stresu":"g/L","stnrlo":"120","stnrhi":"155","nrind":"NORMAL","fast":null,"dtc":"2024-04-13","dy":"31","visit":"DAY 28 FU","visitnum":"6.0","epoch":"FOLLOW-UP","spec":null,"method":null},{"seq":"41","testcd":"PLAT","test":"Platelets","cat":"HEMATOLOGY","orres":"243.68","orresu":"10^9/L","stresc":"243.68","stresn":"243.68","stresu":"10^9/L","stnrlo":"150","stnrhi":"400","nrind":"NORMAL","fast":null,"dtc":"2024-04-13","dy":"31","visit":"DAY 28 FU","visitnum":"6.0","epoch":"FOLLOW-UP","spec":null,"method":null},{"seq":"42","testcd":"WBC","test":"Leukocytes","cat":"HEMATOLOGY","orres":"5.28","orresu":"10^9/L","stresc":"5.28","stresn":"5.28","stresu":"10^9/L","stnrlo":"4.0","stnrhi":"11.0","nrind":"NORMAL","fast":null,"dtc":"2024-04-13","dy":"31","visit":"DAY 28 FU","visitnum":"6.0","epoch":"FOLLOW-UP","spec":null,"method":null},{"seq":"43","testcd":"ALT","test":"Alanine Aminotransferase","cat":"CHEMISTRY","orres":"27.12","orresu":"U/L","stresc":"27.12","stresn":"27.12","stresu":"U/L","stnrlo":"7","stnrhi":"56","nrind":"NORMAL","fast":null,"dtc":"2024-06-14","dy":"93","visit":"MONTH 3 FU","visitnum":"7.0","epoch":"FOLLOW-UP","spec":null,"method":null},{"seq":"44","testcd":"AST","test":"Aspartate Aminotransferase","cat":"CHEMISTRY","orres":"22.61","orresu":"U/L","stresc":"22.61","stresn":"22.61","stresu":"U/L","stnrlo":"10","stnrhi":"40","nrind":"NORMAL","fast":null,"dtc":"2024-06-14","dy":"93","visit":"MONTH 3 FU","visitnum":"7.0","epoch":"FOLLOW-UP","spec":null,"method":null},{"seq":"45","testcd":"CREAT","test":"Creatinine","cat":"CHEMISTRY","orres":"58.87","orresu":"umol/L","stresc":"58.87","stresn":"58.87","stresu":"umol/L","stnrlo":"44","stnrhi":"80","nrind":"NORMAL","fast":null,"dtc":"2024-06-14","dy":"93","visit":"MONTH 3 FU","visitnum":"7.0","epoch":"FOLLOW-UP","spec":null,"method":null},{"seq":"46","testcd":"GLUC","test":"Glucose","cat":"CHEMISTRY","orres":"4.94","orresu":"mmol/L","stresc":"4.94","stresn":"4.94","stresu":"mmol/L","stnrlo":"3.9","stnrhi":"5.6","nrind":"NORMAL","fast":null,"dtc":"2024-06-14","dy":"93","visit":"MONTH 3 FU","visitnum":"7.0","epoch":"FOLLOW-UP","spec":null,"method":null},{"seq":"47","testcd":"HGB","test":"Hemoglobin","cat":"HEMATOLOGY","orres":null,"orresu":null,"stresc":null,"stresn":null,"stresu":null,"stnrlo":null,"stnrhi":null,"nrind":null,"fast":null,"dtc":"2024-06-14","dy":"93","visit":"MONTH 3 FU","visitnum":"7.0","epoch":"FOLLOW-UP","spec":null,"method":null},{"seq":"48","testcd":"PLAT","test":"Platelets","cat":"HEMATOLOGY","orres":"242.86","orresu":"10^9/L","stresc":"242.86","stresn":"242.86","stresu":"10^9/L","stnrlo":"150","stnrhi":"400","nrind":"NORMAL","fast":null,"dtc":"2024-06-14","dy":"93","visit":"MONTH 3 FU","visitnum":"7.0","epoch":"FOLLOW-UP","spec":null,"method":null},{"seq":"49","testcd":"WBC","test":"Leukocytes","cat":"HEMATOLOGY","orres":"5.0","orresu":"10^9/L","stresc":"5.0","stresn":"5.0","stresu":"10^9/L","stnrlo":"4.0","stnrhi":"11.0","nrind":"NORMAL","fast":null,"dtc":"2024-06-14","dy":"93","visit":"MONTH 3 FU","visitnum":"7.0","epoch":"FOLLOW-UP","spec":null,"method":null},{"seq":"50","testcd":"ALT","test":"Alanine Aminotransferase","cat":"CHEMISTRY","orres":"29.46","orresu":"U/L","stresc":"29.46","stresn":"29.46","stresu":"U/L","stnrlo":"7","stnrhi":"56","nrind":"NORMAL","fast":null,"dtc":"2024-08-30","dy":"170","visit":"MONTH 6 FU","visitnum":"8.0","epoch":"FOLLOW-UP","spec":null,"method":null},{"seq":"51","testcd":"AST","test":"Aspartate Aminotransferase","cat":"CHEMISTRY","orres":"22.48","orresu":"U/L","stresc":"22.48","stresn":"22.48","stresu":"U/L","stnrlo":"10","stnrhi":"40","nrind":"NORMAL","fast":null,"dtc":"2024-08-30","dy":"170","visit":"MONTH 6 FU","visitnum":"8.0","epoch":"FOLLOW-UP","spec":null,"method":null},{"seq":"52","testcd":"CREAT","test":"Creatinine","cat":"CHEMISTRY","orres":"58.61","orresu":"umol/L","stresc":"58.61","stresn":"58.61","stresu":"umol/L","stnrlo":"44","stnrhi":"80","nrind":"NORMAL","fast":null,"dtc":"2024-08-30","dy":"170","visit":"MONTH 6 FU","visitnum":"8.0","epoch":"FOLLOW-UP","spec":null,"method":null},{"seq":"53","testcd":"GLUC","test":"Glucose","cat":"CHEMISTRY","orres":"5.0","orresu":"mmol/L","stresc":"5.0","stresn":"5.0","stresu":"mmol/L","stnrlo":"3.9","stnrhi":"5.6","nrind":"NORMAL","fast":null,"dtc":"2024-08-30","dy":"170","visit":"MONTH 6 FU","visitnum":"8.0","epoch":"FOLLOW-UP","spec":null,"method":null},{"seq":"54","testcd":"HGB","test":"Hemoglobin","cat":"HEMATOLOGY","orres":"137.4","orresu":"g/L","stresc":"137.4","stresn":"137.4","stresu":"g/L","stnrlo":"120","stnrhi":"155","nrind":"NORMAL","fast":null,"dtc":"2024-08-30","dy":"170","visit":"MONTH 6 FU","visitnum":"8.0","epoch":"FOLLOW-UP","spec":null,"method":null},{"seq":"55","testcd":"PLAT","test":"Platelets","cat":"HEMATOLOGY","orres":"262.72","orresu":"10^9/L","stresc":"262.72","stresn":"262.72","stresu":"10^9/L","stnrlo":"150","stnrhi":"400","nrind":"NORMAL","fast":null,"dtc":"2024-08-30","dy":"170","visit":"MONTH 6 FU","visitnum":"8.0","epoch":"FOLLOW-UP","spec":null,"method":null},{"seq":"56","testcd":"WBC","test":"Leukocytes","cat":"HEMATOLOGY","orres":"5.85","orresu":"10^9/L","stresc":"5.85","stresn":"5.85","stresu":"10^9/L","stnrlo":"4.0","stnrhi":"11.0","nrind":"NORMAL","fast":null,"dtc":"2024-08-30","dy":"170","visit":"MONTH 6 FU","visitnum":"8.0","epoch":"FOLLOW-UP","spec":null,"method":null}]},"section_9_vital_signs":{"summary":{"total_records":64},"trends":{"BMI":[{"visit":"SCREENING","visitnum":"1.0","dtc":"2024-02-06","value":"33.7","unit":"kg/m2"},{"visit":"DAY 1 INOCULATION","visitnum":"2.0","dtc":"2024-03-14","value":"33.7","unit":"kg/m2"},{"visit":"DAY 4 QUARANTINE","visitnum":"3.0","dtc":"2024-03-17","value":"33.7","unit":"kg/m2"},{"visit":"DAY 14 DISCHARGE","visitnum":"5.0","dtc":"2024-03-28","value":"33.8","unit":"kg/m2"},{"visit":"DAY 28 FU","visitnum":"6.0","dtc":"2024-04-13","value":"34.2","unit":"kg/m2"},{"visit":"MONTH 3 FU","visitnum":"7.0","dtc":"2024-06-14","value":"33.7","unit":"kg/m2"},{"visit":"MONTH 6 FU","visitnum":"8.0","dtc":"2024-08-30","value":"34.5","unit":"kg/m2"},{"visit":"MONTH 12 FU","visitnum":"9.0","dtc":"2025-03-08","value":"34.7","unit":"kg/m2"}],"DIABP":[{"visit":"SCREENING","visitnum":"1.0","dtc":"2024-02-06","value":"71.6","unit":"mmHg"},{"visit":"DAY 1 INOCULATION","visitnum":"2.0","dtc":"2024-03-14","value":"69.3","unit":"mmHg"},{"visit":"DAY 4 QUARANTINE","visitnum":"3.0","dtc":"2024-03-17","value":"68.6","unit":"mmHg"},{"visit":"DAY 14 DISCHARGE","visitnum":"5.0","dtc":"2024-03-28","value":"67.2","unit":"mmHg"},{"visit":"DAY 28 FU","visitnum":"6.0","dtc":"2024-04-13","value":"69.9","unit":"mmHg"},{"visit":"MONTH 6 FU","visitnum":"8.0","dtc":"2024-08-30","value":"68.8","unit":"mmHg"},{"visit":"MONTH 12 FU","visitnum":"9.0","dtc":"2025-03-08","value":"67.5","unit":"mmHg"}],"HEIGHT":[{"visit":"SCREENING","visitnum":"1.0","dtc":"2024-02-06","value":"147.3","unit":"cm"},{"visit":"DAY 1 INOCULATION","visitnum":"2.0","dtc":"2024-03-14","value":"147.5","unit":"cm"},{"visit":"DAY 4 QUARANTINE","visitnum":"3.0","dtc":"2024-03-17","value":"146.9","unit":"cm"},{"visit":"DAY 14 DISCHARGE","visitnum":"5.0","dtc":"2024-03-28","value":"146.7","unit":"cm"},{"visit":"DAY 28 FU","visitnum":"6.0","dtc":"2024-04-13","value":"146.4","unit":"cm"},{"visit":"MONTH 3 FU","visitnum":"7.0","dtc":"2024-06-14","value":"146.4","unit":"cm"},{"visit":"MONTH 6 FU","visitnum":"8.0","dtc":"2024-08-30","value":"145.6","unit":"cm"},{"visit":"MONTH 12 FU","visitnum":"9.0","dtc":"2025-03-08","value":"145.7","unit":"cm"}],"PULSE":[{"visit":"SCREENING","visitnum":"1.0","dtc":"2024-02-06","value":"78.4","unit":"beats/min"},{"visit":"DAY 1 INOCULATION","visitnum":"2.0","dtc":"2024-03-14","value":"81.5","unit":"beats/min"},{"visit":"DAY 4 QUARANTINE","visitnum":"3.0","dtc":"2024-03-17","value":"79.8","unit":"beats/min"},{"visit":"DAY 14 DISCHARGE","visitnum":"5.0","dtc":"2024-03-28","value":"81.4","unit":"beats/min"},{"visit":"DAY 28 FU","visitnum":"6.0","dtc":"2024-04-13","value":"80.8","unit":"beats/min"},{"visit":"MONTH 3 FU","visitnum":"7.0","dtc":"2024-06-14","value":"79.6","unit":"beats/min"},{"visit":"MONTH 6 FU","visitnum":"8.0","dtc":"2024-08-30","value":"76.1","unit":"beats/min"},{"visit":"MONTH 12 FU","visitnum":"9.0","dtc":"2025-03-08","value":"75.0","unit":"beats/min"}],"RESP":[{"visit":"SCREENING","visitnum":"1.0","dtc":"2024-02-06","value":"13.8","unit":"breaths/min"},{"visit":"DAY 1 INOCULATION","visitnum":"2.0","dtc":"2024-03-14","value":"14.6","unit":"breaths/min"},{"visit":"DAY 4 QUARANTINE","visitnum":"3.0","dtc":"2024-03-17","value":"15.1","unit":"breaths/min"},{"visit":"DAY 14 DISCHARGE","visitnum":"5.0","dtc":"2024-03-28","value":"12.0","unit":"breaths/min"},{"visit":"DAY 28 FU","visitnum":"6.0","dtc":"2024-04-13","value":"11.9","unit":"breaths/min"},{"visit":"MONTH 3 FU","visitnum":"7.0","dtc":"2024-06-14","value":"11.8","unit":"breaths/min"},{"visit":"MONTH 6 FU","visitnum":"8.0","dtc":"2024-08-30","value":"13.9","unit":"breaths/min"},{"visit":"MONTH 12 FU","visitnum":"9.0","dtc":"2025-03-08","value":"12.5","unit":"breaths/min"}],"SYSBP":[{"visit":"SCREENING","visitnum":"1.0","dtc":"2024-02-06","value":"92.5","unit":"mmHg"},{"visit":"DAY 1 INOCULATION","visitnum":"2.0","dtc":"2024-03-14","value":"89.3","unit":"mmHg"},{"visit":"DAY 4 QUARANTINE","visitnum":"3.0","dtc":"2024-03-17","value":"89.0","unit":"mmHg"},{"visit":"DAY 14 DISCHARGE","visitnum":"5.0","dtc":"2024-03-28","value":"85.6","unit":"mmHg"},{"visit":"DAY 28 FU","visitnum":"6.0","dtc":"2024-04-13","value":"87.6","unit":"mmHg"},{"visit":"MONTH 3 FU","visitnum":"7.0","dtc":"2024-06-14","value":"89.5","unit":"mmHg"},{"visit":"MONTH 6 FU","visitnum":"8.0","dtc":"2024-08-30","value":"88.5","unit":"mmHg"},{"visit":"MONTH 12 FU","visitnum":"9.0","dtc":"2025-03-08","value":"88.2","unit":"mmHg"}],"TEMP":[{"visit":"SCREENING","visitnum":"1.0","dtc":"2024-02-06","value":"36.4","unit":"C"},{"visit":"DAY 1 INOCULATION","visitnum":"2.0","dtc":"2024-03-14","value":"36.4","unit":"C"},{"visit":"DAY 14 DISCHARGE","visitnum":"5.0","dtc":"2024-03-28","value":"36.4","unit":"C"},{"visit":"DAY 28 FU","visitnum":"6.0","dtc":"2024-04-13","value":"36.3","unit":"C"},{"visit":"MONTH 3 FU","visitnum":"7.0","dtc":"2024-06-14","value":"36.5","unit":"C"},{"visit":"MONTH 6 FU","visitnum":"8.0","dtc":"2024-08-30","value":"36.6","unit":"C"},{"visit":"MONTH 12 FU","visitnum":"9.0","dtc":"2025-03-08","value":"36.3","unit":"C"}],"WEIGHT":[{"visit":"SCREENING","visitnum":"1.0","dtc":"2024-02-06","value":"73.2","unit":"kg"},{"visit":"DAY 1 INOCULATION","visitnum":"2.0","dtc":"2024-03-14","value":"73.4","unit":"kg"},{"visit":"DAY 4 QUARANTINE","visitnum":"3.0","dtc":"2024-03-17","value":"72.7","unit":"kg"},{"visit":"DAY 14 DISCHARGE","visitnum":"5.0","dtc":"2024-03-28","value":"72.7","unit":"kg"},{"visit":"DAY 28 FU","visitnum":"6.0","dtc":"2024-04-13","value":"73.4","unit":"kg"},{"visit":"MONTH 3 FU","visitnum":"7.0","dtc":"2024-06-14","value":"72.3","unit":"kg"},{"visit":"MONTH 6 FU","visitnum":"8.0","dtc":"2024-08-30","value":"73.1","unit":"kg"},{"visit":"MONTH 12 FU","visitnum":"9.0","dtc":"2025-03-08","value":"73.7","unit":"kg"}]},"results":[{"seq":"1","testcd":"BMI","test":"BMI","cat":null,"orres":null,"orresu":null,"stresc":"33.7","stresn":"33.7","stresu":"kg/m2","stnrlo":null,"stnrhi":null,"nrind":null,"pos":null,"loc":null,"dtc":"2024-02-06","dy":"-37","visit":"SCREENING","visitnum":"1.0","epoch":"SCREENING"},{"seq":"2","testcd":"DIABP","test":"Diastolic Blood Pressure","cat":null,"orres":"71.6","orresu":"mmHg","stresc":"71.6","stresn":"71.6","stresu":"mmHg","stnrlo":null,"stnrhi":null,"nrind":null,"pos":null,"loc":null,"dtc":"2024-02-06","dy":"-37","visit":"SCREENING","visitnum":"1.0","epoch":"SCREENING"},{"seq":"3","testcd":"HEIGHT","test":"Height","cat":null,"orres":"147.3","orresu":"cm","stresc":"147.3","stresn":"147.3","stresu":"cm","stnrlo":null,"stnrhi":null,"nrind":null,"pos":null,"loc":null,"dtc":"2024-02-06","dy":"-37","visit":"SCREENING","visitnum":"1.0","epoch":"SCREENING"},{"seq":"4","testcd":"PULSE","test":"Pulse Rate","cat":null,"orres":"78.4","orresu":"beats/min","stresc":"78.4","stresn":"78.4","stresu":"beats/min","stnrlo":null,"stnrhi":null,"nrind":null,"pos":null,"loc":null,"dtc":"2024-02-06","dy":"-37","visit":"SCREENING","visitnum":"1.0","epoch":"SCREENING"},{"seq":"5","testcd":"RESP","test":"Respiratory Rate","cat":null,"orres":"13.8","orresu":"breaths/min","stresc":"13.8","stresn":"13.8","stresu":"breaths/min","stnrlo":null,"stnrhi":null,"nrind":null,"pos":null,"loc":null,"dtc":"2024-02-06","dy":"-37","visit":"SCREENING","visitnum":"1.0","epoch":"SCREENING"},{"seq":"6","testcd":"SYSBP","test":"Systolic Blood Pressure","cat":null,"orres":"92.5","orresu":"mmHg","stresc":"92.5","stresn":"92.5","stresu":"mmHg","stnrlo":null,"stnrhi":null,"nrind":null,"pos":null,"loc":null,"dtc":"2024-02-06","dy":"-37","visit":"SCREENING","visitnum":"1.0","epoch":"SCREENING"},{"seq":"7","testcd":"TEMP","test":"Temperature","cat":null,"orres":"36.4","orresu":"C","stresc":"36.4","stresn":"36.4","stresu":"C","stnrlo":null,"stnrhi":null,"nrind":null,"pos":null,"loc":null,"dtc":"2024-02-06","dy":"-37","visit":"SCREENING","visitnum":"1.0","epoch":"SCREENING"},{"seq":"8","testcd":"WEIGHT","test":"Weight","cat":null,"orres":"73.2","orresu":"kg","stresc":"73.2","stresn":"73.2","stresu":"kg","stnrlo":null,"stnrhi":null,"nrind":null,"pos":null,"loc":null,"dtc":"2024-02-06","dy":"-37","visit":"SCREENING","visitnum":"1.0","epoch":"SCREENING"},{"seq":"9","testcd":"BMI","test":"BMI","cat":null,"orres":null,"orresu":null,"stresc":"33.7","stresn":"33.7","stresu":"kg/m2","stnrlo":null,"stnrhi":null,"nrind":null,"pos":null,"loc":null,"dtc":"2024-03-14","dy":"1","visit":"DAY 1 INOCULATION","visitnum":"2.0","epoch":"TREATMENT"},{"seq":"10","testcd":"DIABP","test":"Diastolic Blood Pressure","cat":null,"orres":"69.3","orresu":"mmHg","stresc":"69.3","stresn":"69.3","stresu":"mmHg","stnrlo":null,"stnrhi":null,"nrind":null,"pos":null,"loc":null,"dtc":"2024-03-14","dy":"1","visit":"DAY 1 INOCULATION","visitnum":"2.0","epoch":"TREATMENT"},{"seq":"11","testcd":"HEIGHT","test":"Height","cat":null,"orres":"147.5","orresu":"cm","stresc":"147.5","stresn":"147.5","stresu":"cm","stnrlo":null,"stnrhi":null,"nrind":null,"pos":null,"loc":null,"dtc":"2024-03-14","dy":"1","visit":"DAY 1 INOCULATION","visitnum":"2.0","epoch":"TREATMENT"},{"seq":"12","testcd":"PULSE","test":"Pulse Rate","cat":null,"orres":"81.5","orresu":"beats/min","stresc":"81.5","stresn":"81.5","stresu":"beats/min","stnrlo":null,"stnrhi":null,"nrind":null,"pos":null,"loc":null,"dtc":"2024-03-14","dy":"1","visit":"DAY 1 INOCULATION","visitnum":"2.0","epoch":"TREATMENT"},{"seq":"13","testcd":"RESP","test":"Respiratory Rate","cat":null,"orres":"14.6","orresu":"breaths/min","stresc":"14.6","stresn":"14.6","stresu":"breaths/min","stnrlo":null,"stnrhi":null,"nrind":null,"pos":null,"loc":null,"dtc":"2024-03-14","dy":"1","visit":"DAY 1 INOCULATION","visitnum":"2.0","epoch":"TREATMENT"},{"seq":"14","testcd":"SYSBP","test":"Systolic Blood Pressure","cat":null,"orres":"89.3","orresu":"mmHg","stresc":"89.3","stresn":"89.3","stresu":"mmHg","stnrlo":null,"stnrhi":null,"nrind":null,"pos":null,"loc":null,"dtc":"2024-03-14","dy":"1","visit":"DAY 1 INOCULATION","visitnum":"2.0","epoch":"TREATMENT"},{"seq":"15","testcd":"TEMP","test":"Temperature","cat":null,"orres":"36.4","orresu":"C","stresc":"36.4","stresn":"36.4","stresu":"C","stnrlo":null,"stnrhi":null,"nrind":null,"pos":null,"loc":null,"dtc":"2024-03-14","dy":"1","visit":"DAY 1 INOCULATION","visitnum":"2.0","epoch":"TREATMENT"},{"seq":"16","testcd":"WEIGHT","test":"Weight","cat":null,"orres":"73.4","orresu":"kg","stresc":"73.4","stresn":"73.4","stresu":"kg","stnrlo":null,"stnrhi":null,"nrind":null,"pos":null,"loc":null,"dtc":"2024-03-14","dy":"1","visit":"DAY 1 INOCULATION","visitnum":"2.0","epoch":"TREATMENT"},{"seq":"17","testcd":"BMI","test":"BMI","cat":null,"orres":null,"orresu":null,"stresc":"33.7","stresn":"33.7","stresu":"kg/m2","stnrlo":null,"stnrhi":null,"nrind":null,"pos":null,"loc":null,"dtc":"2024-03-17","dy":"4","visit":"DAY 4 QUARANTINE","visitnum":"3.0","epoch":"QUARANTINE"},{"seq":"18","testcd":"DIABP","test":"Diastolic Blood Pressure","cat":null,"orres":"68.6","orresu":"mmHg","stresc":"68.6","stresn":"68.6","stresu":"mmHg","stnrlo":null,"stnrhi":null,"nrind":null,"pos":null,"loc":null,"dtc":"2024-03-17","dy":"4","visit":"DAY 4 QUARANTINE","visitnum":"3.0","epoch":"QUARANTINE"},{"seq":"19","testcd":"HEIGHT","test":"Height","cat":null,"orres":"146.9","orresu":"cm","stresc":"146.9","stresn":"146.9","stresu":"cm","stnrlo":null,"stnrhi":null,"nrind":null,"pos":null,"loc":null,"dtc":"2024-03-17","dy":"4","visit":"DAY 4 QUARANTINE","visitnum":"3.0","epoch":"QUARANTINE"},{"seq":"20","testcd":"PULSE","test":"Pulse Rate","cat":null,"orres":"79.8","orresu":"beats/min","stresc":"79.8","stresn":"79.8","stresu":"beats/min","stnrlo":null,"stnrhi":null,"nrind":null,"pos":null,"loc":null,"dtc":"2024-03-17","dy":"4","visit":"DAY 4 QUARANTINE","visitnum":"3.0","epoch":"QUARANTINE"},{"seq":"21","testcd":"RESP","test":"Respiratory Rate","cat":null,"orres":"15.1","orresu":"breaths/min","stresc":"15.1","stresn":"15.1","stresu":"breaths/min","stnrlo":null,"stnrhi":null,"nrind":null,"pos":null,"loc":null,"dtc":"2024-03-17","dy":"4","visit":"DAY 4 QUARANTINE","visitnum":"3.0","epoch":"QUARANTINE"},{"seq":"22","testcd":"SYSBP","test":"Systolic Blood Pressure","cat":null,"orres":"89.0","orresu":"mmHg","stresc":"89.0","stresn":"89.0","stresu":"mmHg","stnrlo":null,"stnrhi":null,"nrind":null,"pos":null,"loc":null,"dtc":"2024-03-17","dy":"4","visit":"DAY 4 QUARANTINE","visitnum":"3.0","epoch":"QUARANTINE"},{"seq":"23","testcd":"TEMP","test":"Temperature","cat":null,"orres":null,"orresu":null,"stresc":null,"stresn":null,"stresu":null,"stnrlo":null,"stnrhi":null,"nrind":null,"pos":null,"loc":null,"dtc":"2024-03-17","dy":"4","visit":"DAY 4 QUARANTINE","visitnum":"3.0","epoch":"QUARANTINE"},{"seq":"24","testcd":"WEIGHT","test":"Weight","cat":null,"orres":"72.7","orresu":"kg","stresc":"72.7","stresn":"72.7","stresu":"kg","stnrlo":null,"stnrhi":null,"nrind":null,"pos":null,"loc":null,"dtc":"2024-03-17","dy":"4","visit":"DAY 4 QUARANTINE","visitnum":"3.0","epoch":"QUARANTINE"},{"seq":"25","testcd":"BMI","test":"BMI","cat":null,"orres":null,"orresu":null,"stresc":"33.8","stresn":"33.8","stresu":"kg/m2","stnrlo":null,"stnrhi":null,"nrind":null,"pos":null,"loc":null,"dtc":"2024-03-28","dy":"15","visit":"DAY 14 DISCHARGE","visitnum":"5.0","epoch":"QUARANTINE"},{"seq":"26","testcd":"DIABP","test":"Diastolic Blood Pressure","cat":null,"orres":"67.2","orresu":"mmHg","stresc":"67.2","stresn":"67.2","stresu":"mmHg","stnrlo":null,"stnrhi":null,"nrind":null,"pos":null,"loc":null,"dtc":"2024-03-28","dy":"15","visit":"DAY 14 DISCHARGE","visitnum":"5.0","epoch":"QUARANTINE"},{"seq":"27","testcd":"HEIGHT","test":"Height","cat":null,"orres":"146.7","orresu":"cm","stresc":"146.7","stresn":"146.7","stresu":"cm","stnrlo":null,"stnrhi":null,"nrind":null,"pos":null,"loc":null,"dtc":"2024-03-28","dy":"15","visit":"DAY 14 DISCHARGE","visitnum":"5.0","epoch":"QUARANTINE"},{"seq":"28","testcd":"PULSE","test":"Pulse Rate","cat":null,"orres":"81.4","orresu":"beats/min","stresc":"81.4","stresn":"81.4","stresu":"beats/min","stnrlo":null,"stnrhi":null,"nrind":null,"pos":null,"loc":null,"dtc":"2024-03-28","dy":"15","visit":"DAY 14 DISCHARGE","visitnum":"5.0","epoch":"QUARANTINE"},{"seq":"29","testcd":"RESP","test":"Respiratory Rate","cat":null,"orres":"12.0","orresu":"breaths/min","stresc":"12.0","stresn":"12.0","stresu":"breaths/min","stnrlo":null,"stnrhi":null,"nrind":null,"pos":null,"loc":null,"dtc":"2024-03-28","dy":"15","visit":"DAY 14 DISCHARGE","visitnum":"5.0","epoch":"QUARANTINE"},{"seq":"30","testcd":"SYSBP","test":"Systolic Blood Pressure","cat":null,"orres":"85.6","orresu":"mmHg","stresc":"85.6","stresn":"85.6","stresu":"mmHg","stnrlo":null,"stnrhi":null,"nrind":null,"pos":null,"loc":null,"dtc":"2024-03-28","dy":"15","visit":"DAY 14 DISCHARGE","visitnum":"5.0","epoch":"QUARANTINE"},{"seq":"31","testcd":"TEMP","test":"Temperature","cat":null,"orres":"36.4","orresu":"C","stresc":"36.4","stresn":"36.4","stresu":"C","stnrlo":null,"stnrhi":null,"nrind":null,"pos":null,"loc":null,"dtc":"2024-03-28","dy":"15","visit":"DAY 14 DISCHARGE","visitnum":"5.0","epoch":"QUARANTINE"},{"seq":"32","testcd":"WEIGHT","test":"Weight","cat":null,"orres":"72.7","orresu":"kg","stresc":"72.7","stresn":"72.7","stresu":"kg","stnrlo":null,"stnrhi":null,"nrind":null,"pos":null,"loc":null,"dtc":"2024-03-28","dy":"15","visit":"DAY 14 DISCHARGE","visitnum":"5.0","epoch":"QUARANTINE"},{"seq":"33","testcd":"BMI","test":"BMI","cat":null,"orres":null,"orresu":null,"stresc":"34.2","stresn":"34.2","stresu":"kg/m2","stnrlo":null,"stnrhi":null,"nrind":null,"pos":null,"loc":null,"dtc":"2024-04-13","dy":"31","visit":"DAY 28 FU","visitnum":"6.0","epoch":"FOLLOW-UP"},{"seq":"34","testcd":"DIABP","test":"Diastolic Blood Pressure","cat":null,"orres":"69.9","orresu":"mmHg","stresc":"69.9","stresn":"69.9","stresu":"mmHg","stnrlo":null,"stnrhi":null,"nrind":null,"pos":null,"loc":null,"dtc":"2024-04-13","dy":"31","visit":"DAY 28 FU","visitnum":"6.0","epoch":"FOLLOW-UP"},{"seq":"35","testcd":"HEIGHT","test":"Height","cat":null,"orres":"146.4","orresu":"cm","stresc":"146.4","stresn":"146.4","stresu":"cm","stnrlo":null,"stnrhi":null,"nrind":null,"pos":null,"loc":null,"dtc":"2024-04-13","dy":"31","visit":"DAY 28 FU","visitnum":"6.0","epoch":"FOLLOW-UP"},{"seq":"36","testcd":"PULSE","test":"Pulse Rate","cat":null,"orres":"80.8","orresu":"beats/min","stresc":"80.8","stresn":"80.8","stresu":"beats/min","stnrlo":null,"stnrhi":null,"nrind":null,"pos":null,"loc":null,"dtc":"2024-04-13","dy":"31","visit":"DAY 28 FU","visitnum":"6.0","epoch":"FOLLOW-UP"},{"seq":"37","testcd":"RESP","test":"Respiratory Rate","cat":null,"orres":"11.9","orresu":"breaths/min","stresc":"11.9","stresn":"11.9","stresu":"breaths/min","stnrlo":null,"stnrhi":null,"nrind":null,"pos":null,"loc":null,"dtc":"2024-04-13","dy":"31","visit":"DAY 28 FU","visitnum":"6.0","epoch":"FOLLOW-UP"},{"seq":"38","testcd":"SYSBP","test":"Systolic Blood Pressure","cat":null,"orres":"87.6","orresu":"mmHg","stresc":"87.6","stresn":"87.6","stresu":"mmHg","stnrlo":null,"stnrhi":null,"nrind":null,"pos":null,"loc":null,"dtc":"2024-04-13","dy":"31","visit":"DAY 28 FU","visitnum":"6.0","epoch":"FOLLOW-UP"},{"seq":"39","testcd":"TEMP","test":"Temperature","cat":null,"orres":"36.3","orresu":"C","stresc":"36.3","stresn":"36.3","stresu":"C","stnrlo":null,"stnrhi":null,"nrind":null,"pos":null,"loc":null,"dtc":"2024-04-13","dy":"31","visit":"DAY 28 FU","visitnum":"6.0","epoch":"FOLLOW-UP"},{"seq":"40","testcd":"WEIGHT","test":"Weight","cat":null,"orres":"73.4","orresu":"kg","stresc":"73.4","stresn":"73.4","stresu":"kg","stnrlo":null,"stnrhi":null,"nrind":null,"pos":null,"loc":null,"dtc":"2024-04-13","dy":"31","visit":"DAY 28 FU","visitnum":"6.0","epoch":"FOLLOW-UP"},{"seq":"41","testcd":"BMI","test":"BMI","cat":null,"orres":null,"orresu":null,"stresc":"33.7","stresn":"33.7","stresu":"kg/m2","stnrlo":null,"stnrhi":null,"nrind":null,"pos":null,"loc":null,"dtc":"2024-06-14","dy":"93","visit":"MONTH 3 FU","visitnum":"7.0","epoch":"FOLLOW-UP"},{"seq":"42","testcd":"DIABP","test":"Diastolic Blood Pressure","cat":null,"orres":null,"orresu":null,"stresc":null,"stresn":null,"stresu":null,"stnrlo":null,"stnrhi":null,"nrind":null,"pos":null,"loc":null,"dtc":"2024-06-14","dy":"93","visit":"MONTH 3 FU","visitnum":"7.0","epoch":"FOLLOW-UP"},{"seq":"43","testcd":"HEIGHT","test":"Height","cat":null,"orres":"146.4","orresu":"cm","stresc":"146.4","stresn":"146.4","stresu":"cm","stnrlo":null,"stnrhi":null,"nrind":null,"pos":null,"loc":null,"dtc":"2024-06-14","dy":"93","visit":"MONTH 3 FU","visitnum":"7.0","epoch":"FOLLOW-UP"},{"seq":"44","testcd":"PULSE","test":"Pulse Rate","cat":null,"orres":"79.6","orresu":"beats/min","stresc":"79.6","stresn":"79.6","stresu":"beats/min","stnrlo":null,"stnrhi":null,"nrind":null,"pos":null,"loc":null,"dtc":"2024-06-14","dy":"93","visit":"MONTH 3 FU","visitnum":"7.0","epoch":"FOLLOW-UP"},{"seq":"45","testcd":"RESP","test":"Respiratory Rate","cat":null,"orres":"11.8","orresu":"breaths/min","stresc":"11.8","stresn":"11.8","stresu":"breaths/min","stnrlo":null,"stnrhi":null,"nrind":null,"pos":null,"loc":null,"dtc":"2024-06-14","dy":"93","visit":"MONTH 3 FU","visitnum":"7.0","epoch":"FOLLOW-UP"},{"seq":"46","testcd":"SYSBP","test":"Systolic Blood Pressure","cat":null,"orres":"89.5","orresu":"mmHg","stresc":"89.5","stresn":"89.5","stresu":"mmHg","stnrlo":null,"stnrhi":null,"nrind":null,"pos":null,"loc":null,"dtc":"2024-06-14","dy":"93","visit":"MONTH 3 FU","visitnum":"7.0","epoch":"FOLLOW-UP"},{"seq":"47","testcd":"TEMP","test":"Temperature","cat":null,"orres":"36.5","orresu":"C","stresc":"36.5","stresn":"36.5","stresu":"C","stnrlo":null,"stnrhi":null,"nrind":null,"pos":null,"loc":null,"dtc":"2024-06-14","dy":"93","visit":"MONTH 3 FU","visitnum":"7.0","epoch":"FOLLOW-UP"},{"seq":"48","testcd":"WEIGHT","test":"Weight","cat":null,"orres":"72.3","orresu":"kg","stresc":"72.3","stresn":"72.3","stresu":"kg","stnrlo":null,"stnrhi":null,"nrind":null,"pos":null,"loc":null,"dtc":"2024-06-14","dy":"93","visit":"MONTH 3 FU","visitnum":"7.0","epoch":"FOLLOW-UP"},{"seq":"49","testcd":"BMI","test":"BMI","cat":null,"orres":null,"orresu":null,"stresc":"34.5","stresn":"34.5","stresu":"kg/m2","stnrlo":null,"stnrhi":null,"nrind":null,"pos":null,"loc":null,"dtc":"2024-08-30","dy":"170","visit":"MONTH 6 FU","visitnum":"8.0","epoch":"FOLLOW-UP"},{"seq":"50","testcd":"DIABP","test":"Diastolic Blood Pressure","cat":null,"orres":"68.8","orresu":"mmHg","stresc":"68.8","stresn":"68.8","stresu":"mmHg","stnrlo":null,"stnrhi":null,"nrind":null,"pos":null,"loc":null,"dtc":"2024-08-30","dy":"170","visit":"MONTH 6 FU","visitnum":"8.0","epoch":"FOLLOW-UP"},{"seq":"51","testcd":"HEIGHT","test":"Height","cat":null,"orres":"145.6","orresu":"cm","stresc":"145.6","stresn":"145.6","stresu":"cm","stnrlo":null,"stnrhi":null,"nrind":null,"pos":null,"loc":null,"dtc":"2024-08-30","dy":"170","visit":"MONTH 6 FU","visitnum":"8.0","epoch":"FOLLOW-UP"},{"seq":"52","testcd":"PULSE","test":"Pulse Rate","cat":null,"orres":"76.1","orresu":"beats/min","stresc":"76.1","stresn":"76.1","stresu":"beats/min","stnrlo":null,"stnrhi":null,"nrind":null,"pos":null,"loc":null,"dtc":"2024-08-30","dy":"170","visit":"MONTH 6 FU","visitnum":"8.0","epoch":"FOLLOW-UP"},{"seq":"53","testcd":"RESP","test":"Respiratory Rate","cat":null,"orres":"13.9","orresu":"breaths/min","stresc":"13.9","stresn":"13.9","stresu":"breaths/min","stnrlo":null,"stnrhi":null,"nrind":null,"pos":null,"loc":null,"dtc":"2024-08-30","dy":"170","visit":"MONTH 6 FU","visitnum":"8.0","epoch":"FOLLOW-UP"},{"seq":"54","testcd":"SYSBP","test":"Systolic Blood Pressure","cat":null,"orres":"88.5","orresu":"mmHg","stresc":"88.5","stresn":"88.5","stresu":"mmHg","stnrlo":null,"stnrhi":null,"nrind":null,"pos":null,"loc":null,"dtc":"2024-08-30","dy":"170","visit":"MONTH 6 FU","visitnum":"8.0","epoch":"FOLLOW-UP"},{"seq":"55","testcd":"TEMP","test":"Temperature","cat":null,"orres":"36.6","orresu":"C","stresc":"36.6","stresn":"36.6","stresu":"C","stnrlo":null,"stnrhi":null,"nrind":null,"pos":null,"loc":null,"dtc":"2024-08-30","dy":"170","visit":"MONTH 6 FU","visitnum":"8.0","epoch":"FOLLOW-UP"},{"seq":"56","testcd":"WEIGHT","test":"Weight","cat":null,"orres":"73.1","orresu":"kg","stresc":"73.1","stresn":"73.1","stresu":"kg","stnrlo":null,"stnrhi":null,"nrind":null,"pos":null,"loc":null,"dtc":"2024-08-30","dy":"170","visit":"MONTH 6 FU","visitnum":"8.0","epoch":"FOLLOW-UP"},{"seq":"57","testcd":"BMI","test":"BMI","cat":null,"orres":null,"orresu":null,"stresc":"34.7","stresn":"34.7","stresu":"kg/m2","stnrlo":null,"stnrhi":null,"nrind":null,"pos":null,"loc":null,"dtc":"2025-03-08","dy":"360","visit":"MONTH 12 FU","visitnum":"9.0","epoch":"FOLLOW-UP"},{"seq":"58","testcd":"DIABP","test":"Diastolic Blood Pressure","cat":null,"orres":"67.5","orresu":"mmHg","stresc":"67.5","stresn":"67.5","stresu":"mmHg","stnrlo":null,"stnrhi":null,"nrind":null,"pos":null,"loc":null,"dtc":"2025-03-08","dy":"360","visit":"MONTH 12 FU","visitnum":"9.0","epoch":"FOLLOW-UP"},{"seq":"59","testcd":"HEIGHT","test":"Height","cat":null,"orres":"145.7","orresu":"cm","stresc":"145.7","stresn":"145.7","stresu":"cm","stnrlo":null,"stnrhi":null,"nrind":null,"pos":null,"loc":null,"dtc":"2025-03-08","dy":"360","visit":"MONTH 12 FU","visitnum":"9.0","epoch":"FOLLOW-UP"},{"seq":"60","testcd":"PULSE","test":"Pulse Rate","cat":null,"orres":"75.0","orresu":"beats/min","stresc":"75.0","stresn":"75.0","stresu":"beats/min","stnrlo":null,"stnrhi":null,"nrind":null,"pos":null,"loc":null,"dtc":"2025-03-08","dy":"360","visit":"MONTH 12 FU","visitnum":"9.0","epoch":"FOLLOW-UP"},{"seq":"61","testcd":"RESP","test":"Respiratory Rate","cat":null,"orres":"12.5","orresu":"breaths/min","stresc":"12.5","stresn":"12.5","stresu":"breaths/min","stnrlo":null,"stnrhi":null,"nrind":null,"pos":null,"loc":null,"dtc":"2025-03-08","dy":"360","visit":"MONTH 12 FU","visitnum":"9.0","epoch":"FOLLOW-UP"},{"seq":"62","testcd":"SYSBP","test":"Systolic Blood Pressure","cat":null,"orres":"88.2","orresu":"mmHg","stresc":"88.2","stresn":"88.2","stresu":"mmHg","stnrlo":null,"stnrhi":null,"nrind":null,"pos":null,"loc":null,"dtc":"2025-03-08","dy":"360","visit":"MONTH 12 FU","visitnum":"9.0","epoch":"FOLLOW-UP"},{"seq":"63","testcd":"TEMP","test":"Temperature","cat":null,"orres":"36.3","orresu":"C","stresc":"36.3","stresn":"36.3","stresu":"C","stnrlo":null,"stnrhi":null,"nrind":null,"pos":null,"loc":null,"dtc":"2025-03-08","dy":"360","visit":"MONTH 12 FU","visitnum":"9.0","epoch":"FOLLOW-UP"},{"seq":"64","testcd":"WEIGHT","test":"Weight","cat":null,"orres":"73.7","orresu":"kg","stresc":"73.7","stresn":"73.7","stresu":"kg","stnrlo":null,"stnrhi":null,"nrind":null,"pos":null,"loc":null,"dtc":"2025-03-08","dy":"360","visit":"MONTH 12 FU","visitnum":"9.0","epoch":"FOLLOW-UP"}]},"section_10_questionnaires_and_scores":{"questionnaires":[],"findings_about":[]},"section_11_protocol_deviations":{"deviations":[{"seq":"1","term":"Visit MONTH 12 FU occurred 5 days early (Day 360 vs planned Day 365)","decod":"VISIT OCCURRED OUTSIDE VISIT WINDOW","cat":"MINOR","scat":"VISIT WINDOW","start_dtc":"2025-03-08","end_dtc":null,"visit":null}],"total":1},"section_12_disposition":{"completion_status":"COMPLETED","disposition_records":[{"seq":"1","term":"INFORMED CONSENT OBTAINED","decod":"INFORMED CONSENT OBTAINED","cat":"PROTOCOL MILESTONE","scat":null,"dtc":"2024-02-14","dy":null,"visit":null,"epoch":"SCREENING"},{"seq":"2","term":"RANDOMIZED","decod":"RANDOMIZED","cat":"PROTOCOL MILESTONE","scat":null,"dtc":"2024-03-14","dy":null,"visit":null,"epoch":"TREATMENT"},{"seq":"3","term":"COMPLETED","decod":"COMPLETED","cat":"DISPOSITION EVENT","scat":null,"dtc":"2025-04-10","dy":null,"visit":null,"epoch":"FOLLOW-UP"}],"death":null},"section_13_hospitalizations":{"items":[{"seq":"1","term":"Fatigue","decod":"Fatigue","cat":"HOSPITALIZATION","start_dtc":"2024-03-21","end_dtc":"2024-03-29","epoch":"TREATMENT"}],"total":1},"section_14_substance_use":{"items":[{"seq":"1","substance":"BEER/WINE/SPIRITS","decod":"ETHANOL","cat":"ALCOHOL","scat":null,"usage":"Y","dose":"3.0","dosu":"DRINKS/WEEK","freq":"QW","start_dtc":"2003-02-19","end_dtc":null},{"seq":"2","substance":"COFFEE","decod":"COFFEE","cat":"CAFFEINE","scat":null,"usage":"Y","dose":"2.0","dosu":"CUPS/DAY","freq":"QD","start_dtc":"1998-02-20","end_dtc":null},{"seq":"3","substance":"CIGARETTES","decod":"CIGARETTES","cat":"TOBACCO","scat":null,"usage":"N","dose":null,"dosu":null,"freq":null,"start_dtc":null,"end_dtc":null}],"total":3},"section_15_subject_status":{"items":[{"seq":"1","testcd":"SURVSTAT","test":"Survival Status","orres":"ALIVE","stresc":"ALIVE","dtc":"2025-04-10","visit":null,"epoch":"FOLLOW-UP"}],"total":1}}