STUDYID,DOMAIN,USUBJID,SESEQ,ETCD,ELEMENT,EPOCH,SESTDTC,SEENDTC,SESTDY,SEENDY
BI-1245.110,SE,BI-1245.110-ARG_SITE01-0017,1,SCRN,Screening,SCREENING,2024-02-23,2024-03-22,-28,1
BI-1245.110,SE,BI-1245.110-ARG_SITE01-0017,2,TRT,Treatment,TREATMENT,2024-03-22,2026-05-11,1,781
BI-1245.110,SE,BI-1245.110-ARG_SITE01-0017,3,FU,Safety EoT,FOLLOW-UP,2026-05-11,2026-06-09,781,810
BI-1245.110,SE,BI-1245.110-BRA_SITE01-0010,1,SCRN,Screening,SCREENING,2024-02-21,2024-03-20,-28,1
BI-1245.110,SE,BI-1245.110-BRA_SITE01-0010,2,TRT,Treatment,TREATMENT,2024-03-20,2026-05-09,1,781
BI-1245.110,SE,BI-1245.110-BRA_SITE01-0010,3,FU,Safety EoT,FOLLOW-UP,2026-05-09,2026-06-07,781,810
BI-1245.110,SE,BI-1245.110-BRA_SITE01-0020,1,SCRN,Screening,SCREENING,2024-02-18,2024-03-17,-28,1
BI-1245.110,SE,BI-1245.110-BRA_SITE01-0020,2,TRT,Treatment,TREATMENT,2024-03-17,2026-05-06,1,781
BI-1245.110,SE,BI-1245.110-BRA_SITE01-0020,3,FU,Safety EoT,FOLLOW-UP,2026-05-06,2026-06-04,781,810
BI-1245.110,SE,BI-1245.110-CAN_SITE01-0008,1,SCRN,Screening,SCREENING,2024-02-19,2024-03-18,-28,1
BI-1245.110,SE,BI-1245.110-CAN_SITE01-0008,2,TRT,Treatment,TREATMENT,2024-03-18,2025-08-07,1,508
BI-1245.110,SE,BI-1245.110-CAN_SITE01-0015,1,SCRN,Screening,SCREENING,2024-03-28,2024-04-25,-28,1
BI-1245.110,SE,BI-1245.110-CAN_SITE01-0015,2,TRT,Treatment,TREATMENT,2024-04-25,2025-10-02,1,526
BI-1245.110,SE,BI-1245.110-JPN_SITE01-0003,1,SCRN,Screening,SCREENING,2024-02-13,2024-03-12,-28,1
BI-1245.110,SE,BI-1245.110-JPN_SITE01-0003,2,TRT,Treatment,TREATMENT,2024-03-12,2026-05-01,1,781
BI-1245.110,SE,BI-1245.110-JPN_SITE01-0003,3,FU,Safety EoT,FOLLOW-UP,2026-05-01,2026-05-30,781,810
BI-1245.110,SE,BI-1245.110-JPN_SITE01-0013,1,SCRN,Screening,SCREENING,2024-02-29,2024-03-28,-28,1
BI-1245.110,SE,BI-1245.110-JPN_SITE01-0013,2,TRT,Treatment,TREATMENT,2024-03-28,2026-02-25,1,700
BI-1245.110,SE,BI-1245.110-JPN_SITE02-0007,1,SCRN,Screening,SCREENING,2024-02-22,2024-03-21,-28,1
BI-1245.110,SE,BI-1245.110-JPN_SITE02-0007,2,TRT,Treatment,TREATMENT,2024-03-21,2026-05-10,1,781
BI-1245.110,SE,BI-1245.110-JPN_SITE02-0007,3,FU,Safety EoT,FOLLOW-UP,2026-05-10,2026-06-08,781,810
BI-1245.110,SE,BI-1245.110-JPN_SITE02-0014,1,SCRN,Screening,SCREENING,2024-02-22,2024-03-21,-28,1
BI-1245.110,SE,BI-1245.110-JPN_SITE02-0014,2,TRT,Treatment,TREATMENT,2024-03-21,2026-05-10,1,781
BI-1245.110,SE,BI-1245.110-JPN_SITE02-0014,3,FU,Safety EoT,FOLLOW-UP,2026-05-10,2026-06-08,781,810
BI-1245.110,SE,BI-1245.110-KOR_SITE01-0012,1,SCRN,Screening,SCREENING,2024-04-05,2024-05-03,-28,1
BI-1245.110,SE,BI-1245.110-KOR_SITE01-0012,2,TRT,Treatment,TREATMENT,2024-05-03,2024-05-20,1,18
BI-1245.110,SE,BI-1245.110-MEX_SITE01-0016,1,SCRN,Screening,SCREENING,2024-02-11,2024-03-10,-28,1
BI-1245.110,SE,BI-1245.110-MEX_SITE01-0016,2,TRT,Treatment,TREATMENT,2024-03-10,2025-10-06,1,576
BI-1245.110,SE,BI-1245.110-MEX_SITE01-0019,1,SCRN,Screening,SCREENING,2024-02-01,2024-02-29,-28,1
BI-1245.110,SE,BI-1245.110-MEX_SITE01-0019,2,TRT,Treatment,TREATMENT,2024-02-29,2026-04-19,1,781
BI-1245.110,SE,BI-1245.110-MEX_SITE01-0019,3,FU,Safety EoT,FOLLOW-UP,2026-04-19,2026-05-18,781,810
BI-1245.110,SE,BI-1245.110-POL_SITE01-0004,1,SCRN,Screening,SCREENING,2024-01-15,2024-02-12,-28,1
BI-1245.110,SE,BI-1245.110-POL_SITE01-0004,2,TRT,Treatment,TREATMENT,2024-02-12,2026-04-02,1,781
BI-1245.110,SE,BI-1245.110-POL_SITE01-0004,3,FU,Safety EoT,FOLLOW-UP,2026-04-02,2026-05-01,781,810
BI-1245.110,SE,BI-1245.110-POL_SITE01-0006,1,SCRN,Screening,SCREENING,2024-03-15,2024-04-12,-28,1
BI-1245.110,SE,BI-1245.110-POL_SITE01-0006,2,TRT,Treatment,TREATMENT,2024-04-12,2026-06-01,1,781
BI-1245.110,SE,BI-1245.110-POL_SITE01-0006,3,FU,Safety EoT,FOLLOW-UP,2026-06-01,2026-06-30,781,810
BI-1245.110,SE,BI-1245.110-RUS_SITE01-0011,1,SCRN,Screening,SCREENING,2024-03-18,2024-04-15,-28,1
BI-1245.110,SE,BI-1245.110-RUS_SITE01-0011,2,TRT,Treatment,TREATMENT,2024-04-15,2026-06-04,1,781
BI-1245.110,SE,BI-1245.110-RUS_SITE01-0011,3,FU,Safety EoT,FOLLOW-UP,2026-06-04,2026-07-03,781,810
BI-1245.110,SE,BI-1245.110-USA_SITE01-0005,1,SCRN,Screening,SCREENING,2024-02-18,2024-03-17,-28,1
BI-1245.110,SE,BI-1245.110-USA_SITE01-0005,2,TRT,Treatment,TREATMENT,2024-03-17,2026-05-06,1,781
BI-1245.110,SE,BI-1245.110-USA_SITE01-0005,3,FU,Safety EoT,FOLLOW-UP,2026-05-06,2026-06-04,781,810
BI-1245.110,SE,BI-1245.110-USA_SITE01-0018,1,SCRN,Screening,SCREENING,2024-01-04,2024-02-01,-28,1
BI-1245.110,SE,BI-1245.110-USA_SITE01-0018,2,TRT,Treatment,TREATMENT,2024-02-01,2024-02-23,1,23
BI-1245.110,SE,BI-1245.110-USA_SITE02-0002,1,SCRN,Screening,SCREENING,2024-03-13,2024-04-10,-28,1
BI-1245.110,SE,BI-1245.110-USA_SITE02-0002,2,TRT,Treatment,TREATMENT,2024-04-10,2025-07-21,1,468
