{
  "generated_at": "2026-07-07T06:14:49.745794",
  "seed": 42,
  "mode": "compound",
  "source_dir": "/tmp/sdtm_uploads_atdl0q0o",
  "profile": "all",
  "rate": 0.05,
  "density_cap": 5,
  "rules_available": 467,
  "rules_injectable": 9,
  "rules_skipped": 0,
  "rules_injected": 9,
  "total_mutations": 48,
  "skipped_rules": [],
  "errors": [
    {
      "error_id": "INJ-SD1220-TS-001",
      "rule_id": "SD1220",
      "rule_message": "Multiple LENGTH records",
      "category": "TS02I1/TS02V1",
      "primitive": "duplicate_record",
      "domain": "TS",
      "usubjid": null,
      "row_index": 12,
      "csv_line": 14,
      "seq_value": "1",
      "variables_modified": {
        "__row__": {
          "original": "unique",
          "injected": "duplicated"
        }
      },
      "re_derived": {},
      "expected_co_violations": [],
      "notes": "duplicated key_fields=['TSPARMCD']",
      "status": "injected",
      "failure_reason": null,
      "clean_row_index": 13
    },
    {
      "error_id": "INJ-SD1296-TS-001",
      "rule_id": "SD1296",
      "rule_message": "Invalid TSVAL value for ADAPT parameter",
      "category": "TS01",
      "primitive": "set_invalid_value",
      "domain": "TS",
      "usubjid": null,
      "row_index": 1,
      "csv_line": 3,
      "seq_value": "1",
      "variables_modified": {
        "TSVAL": {
          "original": "N",
          "injected": "INVALID"
        }
      },
      "re_derived": {},
      "expected_co_violations": [],
      "notes": null,
      "status": "injected",
      "failure_reason": null,
      "clean_row_index": 1
    },
    {
      "error_id": "INJ-SD1307-TS-001",
      "rule_id": "SD1307",
      "rule_message": "TSVAL is missing for the TDIGRP Trial Summary Parameter, when HLTSUBJI parameter equals 'N'",
      "category": "TS01",
      "primitive": "blank_field",
      "domain": "TS",
      "usubjid": null,
      "row_index": 37,
      "csv_line": 39,
      "seq_value": "1",
      "variables_modified": {
        "TSVAL": {
          "original": "Cardiovascular",
          "injected": ""
        }
      },
      "re_derived": {},
      "expected_co_violations": [],
      "notes": null,
      "status": "injected",
      "failure_reason": null,
      "clean_row_index": 38
    },
    {
      "error_id": "INJ-SD2228-TS-001",
      "rule_id": "SD2228",
      "rule_message": "Missing INTMODEL Trial Summary Parameter",
      "category": "TS02I1/TS02V1",
      "primitive": "delete_row",
      "domain": "TS",
      "usubjid": null,
      "row_index": null,
      "csv_line": null,
      "seq_value": "1",
      "variables_modified": {
        "TSPARMCD": {
          "original": "INTMODEL",
          "injected": "(row deleted)"
        }
      },
      "re_derived": {},
      "expected_co_violations": [],
      "notes": null,
      "status": "injected",
      "failure_reason": null,
      "clean_row_index": 11
    },
    {
      "error_id": "INJ-SD1151-TI-001",
      "rule_id": "SD1151",
      "rule_message": "Inconsistent value for IETESTCD within IETEST",
      "category": "TD01",
      "primitive": "duplicate_with_mutation",
      "domain": "TI",
      "usubjid": null,
      "row_index": 0,
      "csv_line": 2,
      "seq_value": null,
      "variables_modified": {
        "IETESTCD": {
          "original": "EXCL01",
          "injected": "ZZIE99"
        }
      },
      "re_derived": {},
      "expected_co_violations": [],
      "notes": "duplicated row with IETESTCD changed on the copy",
      "status": "injected",
      "failure_reason": null,
      "clean_row_index": 0
    },
    {
      "error_id": "INJ-SD1348-PP-001",
      "rule_id": "SD1348",
      "rule_message": "Missing values for --STINT and --ENINT variables when --TEST references 'T1 to T2'",
      "category": "FND1",
      "primitive": "set_invalid_value",
      "domain": "PP",
      "usubjid": "BI-1245.110-JPN_SITE02-0014",
      "row_index": 20,
      "csv_line": 22,
      "seq_value": "1",
      "variables_modified": {
        "PPTEST": {
          "original": "Max Conc",
          "injected": "Mean concentration T1 to T2"
        }
      },
      "re_derived": {},
      "expected_co_violations": [],
      "notes": null,
      "status": "injected",
      "failure_reason": null,
      "clean_row_index": 20
    },
    {
      "error_id": "INJ-SD1348-PP-002",
      "rule_id": "SD1348",
      "rule_message": "Missing values for --STINT and --ENINT variables when --TEST references 'T1 to T2'",
      "category": "FND1",
      "primitive": "set_invalid_value",
      "domain": "PP",
      "usubjid": "BI-1245.110-JPN_SITE02-0014",
      "row_index": 23,
      "csv_line": 25,
      "seq_value": "4",
      "variables_modified": {
        "PPTEST": {
          "original": "Half-Life Lambda z",
          "injected": "Mean concentration T1 to T2"
        }
      },
      "re_derived": {},
      "expected_co_violations": [],
      "notes": null,
      "status": "injected",
      "failure_reason": null,
      "clean_row_index": 23
    },
    {
      "error_id": "INJ-SD2017-TS-001",
      "rule_id": "SD2017",
      "rule_message": "Missing values for both --VAL and --VALNF",
      "category": "TS01",
      "primitive": "blank_field",
      "domain": "TS",
      "usubjid": null,
      "row_index": 0,
      "csv_line": 2,
      "seq_value": "1",
      "variables_modified": {
        "TSVAL": {
          "original": "4126",
          "injected": ""
        }
      },
      "re_derived": {},
      "expected_co_violations": [],
      "notes": null,
      "status": "injected",
      "failure_reason": null,
      "clean_row_index": 0
    },
    {
      "error_id": "INJ-SD2017-TS-002",
      "rule_id": "SD2017",
      "rule_message": "Missing values for both --VAL and --VALNF",
      "category": "TS01",
      "primitive": "blank_field",
      "domain": "TS",
      "usubjid": null,
      "row_index": 2,
      "csv_line": 4,
      "seq_value": "1",
      "variables_modified": {
        "TSVAL": {
          "original": "N",
          "injected": ""
        }
      },
      "re_derived": {},
      "expected_co_violations": [],
      "notes": null,
      "status": "injected",
      "failure_reason": null,
      "clean_row_index": 2
    },
    {
      "error_id": "INJ-SD2017-TS-003",
      "rule_id": "SD2017",
      "rule_message": "Missing values for both --VAL and --VALNF",
      "category": "TS01",
      "primitive": "blank_field",
      "domain": "TS",
      "usubjid": null,
      "row_index": 3,
      "csv_line": 5,
      "seq_value": "1",
      "variables_modified": {
        "TSVAL": {
          "original": "P95Y",
          "injected": ""
        }
      },
      "re_derived": {},
      "expected_co_violations": [],
      "notes": null,
      "status": "injected",
      "failure_reason": null,
      "clean_row_index": 3
    },
    {
      "error_id": "INJ-SD2017-TS-004",
      "rule_id": "SD2017",
      "rule_message": "Missing values for both --VAL and --VALNF",
      "category": "TS01",
      "primitive": "blank_field",
      "domain": "TS",
      "usubjid": null,
      "row_index": 4,
      "csv_line": 6,
      "seq_value": "1",
      "variables_modified": {
        "TSVAL": {
          "original": "P18Y",
          "injected": ""
        }
      },
      "re_derived": {},
      "expected_co_violations": [],
      "notes": null,
      "status": "injected",
      "failure_reason": null,
      "clean_row_index": 4
    },
    {
      "error_id": "INJ-SD2017-TS-005",
      "rule_id": "SD2017",
      "rule_message": "Missing values for both --VAL and --VALNF",
      "category": "TS01",
      "primitive": "blank_field",
      "domain": "TS",
      "usubjid": null,
      "row_index": 5,
      "csv_line": 7,
      "seq_value": "1",
      "variables_modified": {
        "TSVAL": {
          "original": "Final database lock",
          "injected": ""
        }
      },
      "re_derived": {},
      "expected_co_violations": [],
      "notes": null,
      "status": "injected",
      "failure_reason": null,
      "clean_row_index": 5
    },
    {
      "error_id": "INJ-SD2017-TS-006",
      "rule_id": "SD2017",
      "rule_message": "Missing values for both --VAL and --VALNF",
      "category": "TS01",
      "primitive": "blank_field",
      "domain": "TS",
      "usubjid": null,
      "row_index": 6,
      "csv_line": 8,
      "seq_value": "1",
      "variables_modified": {
        "TSVAL": {
          "original": "2026-06-01",
          "injected": ""
        }
      },
      "re_derived": {},
      "expected_co_violations": [],
      "notes": null,
      "status": "injected",
      "failure_reason": null,
      "clean_row_index": 6
    },
    {
      "error_id": "INJ-SD2017-TS-007",
      "rule_id": "SD2017",
      "rule_message": "Missing values for both --VAL and --VALNF",
      "category": "TS01",
      "primitive": "blank_field",
      "domain": "TS",
      "usubjid": null,
      "row_index": 7,
      "csv_line": 9,
      "seq_value": "1",
      "variables_modified": {
        "TSVAL": {
          "original": "N",
          "injected": ""
        }
      },
      "re_derived": {},
      "expected_co_violations": [],
      "notes": null,
      "status": "injected",
      "failure_reason": null,
      "clean_row_index": 7
    },
    {
      "error_id": "INJ-SD2017-TS-008",
      "rule_id": "SD2017",
      "rule_message": "Missing values for both --VAL and --VALNF",
      "category": "TS01",
      "primitive": "blank_field",
      "domain": "TS",
      "usubjid": null,
      "row_index": 8,
      "csv_line": 10,
      "seq_value": "1",
      "variables_modified": {
        "TSVAL": {
          "original": "USA",
          "injected": ""
        }
      },
      "re_derived": {},
      "expected_co_violations": [],
      "notes": null,
      "status": "injected",
      "failure_reason": null,
      "clean_row_index": 8
    },
    {
      "error_id": "INJ-SD2017-TS-009",
      "rule_id": "SD2017",
      "rule_message": "Missing values for both --VAL and --VALNF",
      "category": "TS01",
      "primitive": "blank_field",
      "domain": "TS",
      "usubjid": null,
      "row_index": 10,
      "csv_line": 12,
      "seq_value": "1",
      "variables_modified": {
        "TSVAL": {
          "original": "Chronic Heart Failure with Preserved Ejection Fraction (HFpEF)",
          "injected": ""
        }
      },
      "re_derived": {},
      "expected_co_violations": [],
      "notes": null,
      "status": "injected",
      "failure_reason": null,
      "clean_row_index": 10
    },
    {
      "error_id": "INJ-SD2017-TS-010",
      "rule_id": "SD2017",
      "rule_message": "Missing values for both --VAL and --VALNF",
      "category": "TS01",
      "primitive": "blank_field",
      "domain": "TS",
      "usubjid": null,
      "row_index": 11,
      "csv_line": 13,
      "seq_value": "1",
      "variables_modified": {
        "TSVAL": {
          "original": "DRUG",
          "injected": ""
        }
      },
      "re_derived": {},
      "expected_co_violations": [],
      "notes": null,
      "status": "injected",
      "failure_reason": null,
      "clean_row_index": 12
    },
    {
      "error_id": "INJ-SD2017-TS-011",
      "rule_id": "SD2017",
      "rule_message": "Missing values for both --VAL and --VALNF",
      "category": "TS01",
      "primitive": "blank_field",
      "domain": "TS",
      "usubjid": null,
      "row_index": 13,
      "csv_line": 15,
      "seq_value": "1",
      "variables_modified": {
        "TSVAL": {
          "original": "2",
          "injected": ""
        }
      },
      "re_derived": {},
      "expected_co_violations": [],
      "notes": null,
      "status": "injected",
      "failure_reason": null,
      "clean_row_index": 14
    },
    {
      "error_id": "INJ-SD2017-TS-012",
      "rule_id": "SD2017",
      "rule_message": "Missing values for both --VAL and --VALNF",
      "category": "TS01",
      "primitive": "blank_field",
      "domain": "TS",
      "usubjid": null,
      "row_index": 14,
      "csv_line": 16,
      "seq_value": "1",
      "variables_modified": {
        "TSVAL": {
          "original": "2",
          "injected": ""
        }
      },
      "re_derived": {},
      "expected_co_violations": [],
      "notes": null,
      "status": "injected",
      "failure_reason": null,
      "clean_row_index": 15
    },
    {
      "error_id": "INJ-SD2017-TS-013",
      "rule_id": "SD2017",
      "rule_message": "Missing values for both --VAL and --VALNF",
      "category": "TS01",
      "primitive": "blank_field",
      "domain": "TS",
      "usubjid": null,
      "row_index": 15,
      "csv_line": 17,
      "seq_value": "1",
      "variables_modified": {
        "TSVAL": {
          "original": "To evaluate the efficacy and safety of the investigational treatment",
          "injected": ""
        }
      },
      "re_derived": {},
      "expected_co_violations": [],
      "notes": null,
      "status": "injected",
      "failure_reason": null,
      "clean_row_index": 16
    },
    {
      "error_id": "INJ-SD2017-TS-014",
      "rule_id": "SD2017",
      "rule_message": "Missing values for both --VAL and --VALNF",
      "category": "TS01",
      "primitive": "blank_field",
      "domain": "TS",
      "usubjid": null,
      "row_index": 16,
      "csv_line": 18,
      "seq_value": "1",
      "variables_modified": {
        "TSVAL": {
          "original": "To evaluate pharmacokinetics and immunogenicity",
          "injected": ""
        }
      },
      "re_derived": {},
      "expected_co_violations": [],
      "notes": null,
      "status": "injected",
      "failure_reason": null,
      "clean_row_index": 17
    },
    {
      "error_id": "INJ-SD2017-TS-015",
      "rule_id": "SD2017",
      "rule_message": "Missing values for both --VAL and --VALNF",
      "category": "TS01",
      "primitive": "blank_field",
      "domain": "TS",
      "usubjid": null,
      "row_index": 17,
      "csv_line": 19,
      "seq_value": "1",
      "variables_modified": {
        "TSVAL": {
          "original": "N",
          "injected": ""
        }
      },
      "re_derived": {},
      "expected_co_violations": [],
      "notes": null,
      "status": "injected",
      "failure_reason": null,
      "clean_row_index": 18
    },
    {
      "error_id": "INJ-SD2017-TS-016",
      "rule_id": "SD2017",
      "rule_message": "Missing values for both --VAL and --VALNF",
      "category": "TS01",
      "primitive": "blank_field",
      "domain": "TS",
      "usubjid": null,
      "row_index": 18,
      "csv_line": 20,
      "seq_value": "1",
      "variables_modified": {
        "TSVAL": {
          "original": "Change from baseline in primary endpoint",
          "injected": ""
        }
      },
      "re_derived": {},
      "expected_co_violations": [],
      "notes": null,
      "status": "injected",
      "failure_reason": null,
      "clean_row_index": 19
    },
    {
      "error_id": "INJ-SD2017-TS-017",
      "rule_id": "SD2017",
      "rule_message": "Missing values for both --VAL and --VALNF",
      "category": "TS01",
      "primitive": "blank_field",
      "domain": "TS",
      "usubjid": null,
      "row_index": 19,
      "csv_line": 21,
      "seq_value": "1",
      "variables_modified": {
        "TSVAL": {
          "original": "MONOCLONAL ANTIBODY",
          "injected": ""
        }
      },
      "re_derived": {},
      "expected_co_violations": [],
      "notes": null,
      "status": "injected",
      "failure_reason": null,
      "clean_row_index": 20
    },
    {
      "error_id": "INJ-SD2017-TS-018",
      "rule_id": "SD2017",
      "rule_message": "Missing values for both --VAL and --VALNF",
      "category": "TS01",
      "primitive": "blank_field",
      "domain": "TS",
      "usubjid": null,
      "row_index": 20,
      "csv_line": 22,
      "seq_value": "1",
      "variables_modified": {
        "TSVAL": {
          "original": "N",
          "injected": ""
        }
      },
      "re_derived": {},
      "expected_co_violations": [],
      "notes": null,
      "status": "injected",
      "failure_reason": null,
      "clean_row_index": 21
    },
    {
      "error_id": "INJ-SD2017-TS-019",
      "rule_id": "SD2017",
      "rule_message": "Missing values for both --VAL and --VALNF",
      "category": "TS01",
      "primitive": "blank_field",
      "domain": "TS",
      "usubjid": null,
      "row_index": 21,
      "csv_line": 23,
      "seq_value": "1",
      "variables_modified": {
        "TSVAL": {
          "original": "N",
          "injected": ""
        }
      },
      "re_derived": {},
      "expected_co_violations": [],
      "notes": null,
      "status": "injected",
      "failure_reason": null,
      "clean_row_index": 22
    },
    {
      "error_id": "INJ-SD2017-TS-020",
      "rule_id": "SD2017",
      "rule_message": "Missing values for both --VAL and --VALNF",
      "category": "TS01",
      "primitive": "blank_field",
      "domain": "TS",
      "usubjid": null,
      "row_index": 22,
      "csv_line": 24,
      "seq_value": "1",
      "variables_modified": {
        "TSVAL": {
          "original": "N",
          "injected": ""
        }
      },
      "re_derived": {},
      "expected_co_violations": [],
      "notes": null,
      "status": "injected",
      "failure_reason": null,
      "clean_row_index": 23
    },
    {
      "error_id": "INJ-SD2017-TS-021",
      "rule_id": "SD2017",
      "rule_message": "Missing values for both --VAL and --VALNF",
      "category": "TS01",
      "primitive": "blank_field",
      "domain": "TS",
      "usubjid": null,
      "row_index": 23,
      "csv_line": 25,
      "seq_value": "1",
      "variables_modified": {
        "TSVAL": {
          "original": "4126",
          "injected": ""
        }
      },
      "re_derived": {},
      "expected_co_violations": [],
      "notes": null,
      "status": "injected",
      "failure_reason": null,
      "clean_row_index": 24
    },
    {
      "error_id": "INJ-SD2017-TS-022",
      "rule_id": "SD2017",
      "rule_message": "Missing values for both --VAL and --VALNF",
      "category": "TS01",
      "primitive": "blank_field",
      "domain": "TS",
      "usubjid": null,
      "row_index": 24,
      "csv_line": 26,
      "seq_value": "1",
      "variables_modified": {
        "TSVAL": {
          "original": "Y",
          "injected": ""
        }
      },
      "re_derived": {},
      "expected_co_violations": [],
      "notes": null,
      "status": "injected",
      "failure_reason": null,
      "clean_row_index": 25
    },
    {
      "error_id": "INJ-SD2017-TS-023",
      "rule_id": "SD2017",
      "rule_message": "Missing values for both --VAL and --VALNF",
      "category": "TS01",
      "primitive": "blank_field",
      "domain": "TS",
      "usubjid": null,
      "row_index": 25,
      "csv_line": 27,
      "seq_value": "1",
      "variables_modified": {
        "TSVAL": {
          "original": "N",
          "injected": ""
        }
      },
      "re_derived": {},
      "expected_co_violations": [],
      "notes": null,
      "status": "injected",
      "failure_reason": null,
      "clean_row_index": 26
    },
    {
      "error_id": "INJ-SD2017-TS-024",
      "rule_id": "SD2017",
      "rule_message": "Missing values for both --VAL and --VALNF",
      "category": "TS01",
      "primitive": "blank_field",
      "domain": "TS",
      "usubjid": null,
      "row_index": 26,
      "csv_line": 28,
      "seq_value": "1",
      "variables_modified": {
        "TSVAL": {
          "original": "NCT03057951",
          "injected": ""
        }
      },
      "re_derived": {},
      "expected_co_violations": [],
      "notes": null,
      "status": "injected",
      "failure_reason": null,
      "clean_row_index": 27
    },
    {
      "error_id": "INJ-SD2017-TS-025",
      "rule_id": "SD2017",
      "rule_message": "Missing values for both --VAL and --VALNF",
      "category": "TS01",
      "primitive": "blank_field",
      "domain": "TS",
      "usubjid": null,
      "row_index": 27,
      "csv_line": 29,
      "seq_value": "1",
      "variables_modified": {
        "TSVAL": {
          "original": "3.4",
          "injected": ""
        }
      },
      "re_derived": {},
      "expected_co_violations": [],
      "notes": null,
      "status": "injected",
      "failure_reason": null,
      "clean_row_index": 28
    },
    {
      "error_id": "INJ-SD2017-TS-026",
      "rule_id": "SD2017",
      "rule_message": "Missing values for both --VAL and --VALNF",
      "category": "TS01",
      "primitive": "blank_field",
      "domain": "TS",
      "usubjid": null,
      "row_index": 28,
      "csv_line": 30,
      "seq_value": "1",
      "variables_modified": {
        "TSVAL": {
          "original": "2.0",
          "injected": ""
        }
      },
      "re_derived": {},
      "expected_co_violations": [],
      "notes": null,
      "status": "injected",
      "failure_reason": null,
      "clean_row_index": 29
    },
    {
      "error_id": "INJ-SD2017-TS-027",
      "rule_id": "SD2017",
      "rule_message": "Missing values for both --VAL and --VALNF",
      "category": "TS01",
      "primitive": "blank_field",
      "domain": "TS",
      "usubjid": null,
      "row_index": 29,
      "csv_line": 31,
      "seq_value": "1",
      "variables_modified": {
        "TSVAL": {
          "original": "2026-07-01",
          "injected": ""
        }
      },
      "re_derived": {},
      "expected_co_violations": [],
      "notes": null,
      "status": "injected",
      "failure_reason": null,
      "clean_row_index": 30
    },
    {
      "error_id": "INJ-SD2017-TS-028",
      "rule_id": "SD2017",
      "rule_message": "Missing values for both --VAL and --VALNF",
      "category": "TS01",
      "primitive": "blank_field",
      "domain": "TS",
      "usubjid": null,
      "row_index": 30,
      "csv_line": 32,
      "seq_value": "1",
      "variables_modified": {
        "TSVAL": {
          "original": "BOTH",
          "injected": ""
        }
      },
      "re_derived": {},
      "expected_co_violations": [],
      "notes": null,
      "status": "injected",
      "failure_reason": null,
      "clean_row_index": 31
    },
    {
      "error_id": "INJ-SD2017-TS-029",
      "rule_id": "SD2017",
      "rule_message": "Missing values for both --VAL and --VALNF",
      "category": "TS01",
      "primitive": "blank_field",
      "domain": "TS",
      "usubjid": null,
      "row_index": 31,
      "csv_line": 33,
      "seq_value": "1",
      "variables_modified": {
        "TSVAL": {
          "original": "Boehringer Ingelheim",
          "injected": ""
        }
      },
      "re_derived": {},
      "expected_co_violations": [],
      "notes": null,
      "status": "injected",
      "failure_reason": null,
      "clean_row_index": 32
    },
    {
      "error_id": "INJ-SD2017-TS-030",
      "rule_id": "SD2017",
      "rule_message": "Missing values for both --VAL and --VALNF",
      "category": "TS01",
      "primitive": "blank_field",
      "domain": "TS",
      "usubjid": null,
      "row_index": 32,
      "csv_line": 34,
      "seq_value": "1",
      "variables_modified": {
        "TSVAL": {
          "original": "2024-01-15",
          "injected": ""
        }
      },
      "re_derived": {},
      "expected_co_violations": [],
      "notes": null,
      "status": "injected",
      "failure_reason": null,
      "clean_row_index": 33
    },
    {
      "error_id": "INJ-SD2017-TS-031",
      "rule_id": "SD2017",
      "rule_message": "Missing values for both --VAL and --VALNF",
      "category": "TS01",
      "primitive": "blank_field",
      "domain": "TS",
      "usubjid": null,
      "row_index": 33,
      "csv_line": 35,
      "seq_value": "1",
      "variables_modified": {
        "TSVAL": {
          "original": "Study may be stopped for safety concerns per DMC recommendation",
          "injected": ""
        }
      },
      "re_derived": {},
      "expected_co_violations": [],
      "notes": null,
      "status": "injected",
      "failure_reason": null,
      "clean_row_index": 34
    },
    {
      "error_id": "INJ-SD2017-TS-032",
      "rule_id": "SD2017",
      "rule_message": "Missing values for both --VAL and --VALNF",
      "category": "TS01",
      "primitive": "blank_field",
      "domain": "TS",
      "usubjid": null,
      "row_index": 35,
      "csv_line": 37,
      "seq_value": "1",
      "variables_modified": {
        "TSVAL": {
          "original": "DOUBLE BLIND",
          "injected": ""
        }
      },
      "re_derived": {},
      "expected_co_violations": [],
      "notes": null,
      "status": "injected",
      "failure_reason": null,
      "clean_row_index": 36
    },
    {
      "error_id": "INJ-SD2017-TS-033",
      "rule_id": "SD2017",
      "rule_message": "Missing values for both --VAL and --VALNF",
      "category": "TS01",
      "primitive": "blank_field",
      "domain": "TS",
      "usubjid": null,
      "row_index": 36,
      "csv_line": 38,
      "seq_value": "1",
      "variables_modified": {
        "TSVAL": {
          "original": "PLACEBO",
          "injected": ""
        }
      },
      "re_derived": {},
      "expected_co_violations": [],
      "notes": null,
      "status": "injected",
      "failure_reason": null,
      "clean_row_index": 37
    },
    {
      "error_id": "INJ-SD2017-TS-034",
      "rule_id": "SD2017",
      "rule_message": "Missing values for both --VAL and --VALNF",
      "category": "TS01",
      "primitive": "blank_field",
      "domain": "TS",
      "usubjid": null,
      "row_index": 38,
      "csv_line": 40,
      "seq_value": "1",
      "variables_modified": {
        "TSVAL": {
          "original": "Cardiovascular",
          "injected": ""
        }
      },
      "re_derived": {},
      "expected_co_violations": [],
      "notes": null,
      "status": "injected",
      "failure_reason": null,
      "clean_row_index": 39
    },
    {
      "error_id": "INJ-SD2017-TS-035",
      "rule_id": "SD2017",
      "rule_message": "Missing values for both --VAL and --VALNF",
      "category": "TS01",
      "primitive": "blank_field",
      "domain": "TS",
      "usubjid": null,
      "row_index": 39,
      "csv_line": 41,
      "seq_value": "1",
      "variables_modified": {
        "TSVAL": {
          "original": "TREATMENT",
          "injected": ""
        }
      },
      "re_derived": {},
      "expected_co_violations": [],
      "notes": null,
      "status": "injected",
      "failure_reason": null,
      "clean_row_index": 40
    },
    {
      "error_id": "INJ-SD2017-TS-036",
      "rule_id": "SD2017",
      "rule_message": "Missing values for both --VAL and --VALNF",
      "category": "TS01",
      "primitive": "blank_field",
      "domain": "TS",
      "usubjid": null,
      "row_index": 40,
      "csv_line": 42,
      "seq_value": "1",
      "variables_modified": {
        "TSVAL": {
          "original": "EMPEROR-Preserved: A Phase III randomised, double-blind trial to evaluate efficacy and safety of once daily empagliflozin 10 mg compared to placebo, in patients with chronic Heart Failure with preserved Ejection Fraction (HFpEF)",
          "injected": ""
        }
      },
      "re_derived": {},
      "expected_co_violations": [],
      "notes": null,
      "status": "injected",
      "failure_reason": null,
      "clean_row_index": 41
    },
    {
      "error_id": "INJ-SD2017-TS-037",
      "rule_id": "SD2017",
      "rule_message": "Missing values for both --VAL and --VALNF",
      "category": "TS01",
      "primitive": "blank_field",
      "domain": "TS",
      "usubjid": null,
      "row_index": 41,
      "csv_line": 43,
      "seq_value": "1",
      "variables_modified": {
        "TSVAL": {
          "original": "PHASE III TRIAL",
          "injected": ""
        }
      },
      "re_derived": {},
      "expected_co_violations": [],
      "notes": null,
      "status": "injected",
      "failure_reason": null,
      "clean_row_index": 42
    },
    {
      "error_id": "INJ-SD2017-TS-038",
      "rule_id": "SD2017",
      "rule_message": "Missing values for both --VAL and --VALNF",
      "category": "TS01",
      "primitive": "blank_field",
      "domain": "TS",
      "usubjid": null,
      "row_index": 42,
      "csv_line": 44,
      "seq_value": "1",
      "variables_modified": {
        "TSVAL": {
          "original": "EMPAGLIFLOZIN",
          "injected": ""
        }
      },
      "re_derived": {},
      "expected_co_violations": [],
      "notes": null,
      "status": "injected",
      "failure_reason": null,
      "clean_row_index": 43
    },
    {
      "error_id": "INJ-SD2017-TS-039",
      "rule_id": "SD2017",
      "rule_message": "Missing values for both --VAL and --VALNF",
      "category": "TS01",
      "primitive": "blank_field",
      "domain": "TS",
      "usubjid": null,
      "row_index": 43,
      "csv_line": 45,
      "seq_value": "1",
      "variables_modified": {
        "TSVAL": {
          "original": "EFFICACY",
          "injected": ""
        }
      },
      "re_derived": {},
      "expected_co_violations": [],
      "notes": null,
      "status": "injected",
      "failure_reason": null,
      "clean_row_index": 44
    },
    {
      "error_id": "INJ-SD0056-CM-001",
      "rule_id": "SD0056",
      "rule_message": "SDTM Required variable not found",
      "category": "ALL1",
      "primitive": "drop_column",
      "domain": "CM",
      "usubjid": null,
      "row_index": null,
      "csv_line": null,
      "seq_value": null,
      "variables_modified": {
        "CMSEQ": {
          "original": "present",
          "injected": "removed"
        }
      },
      "re_derived": {},
      "expected_co_violations": [],
      "notes": null,
      "status": "injected",
      "failure_reason": null,
      "clean_row_index": null
    },
    {
      "error_id": "INJ-SD1077-DV-001",
      "rule_id": "SD1077",
      "rule_message": "Regulatory Expected variable not found",
      "category": "ALL2",
      "primitive": "drop_column",
      "domain": "DV",
      "usubjid": null,
      "row_index": null,
      "csv_line": null,
      "seq_value": null,
      "variables_modified": {
        "EPOCH": {
          "original": "present",
          "injected": "removed"
        }
      },
      "re_derived": {},
      "expected_co_violations": [],
      "notes": null,
      "status": "injected",
      "failure_reason": null,
      "clean_row_index": null
    }
  ],
  "summary_by_rule": {
    "SD1220": 1,
    "SD1296": 1,
    "SD1307": 1,
    "SD2228": 1,
    "SD1151": 1,
    "SD1348": 2,
    "SD2017": 39,
    "SD0056": 1,
    "SD1077": 1
  },
  "summary_by_category": {
    "TS02I1/TS02V1": 2,
    "TS01": 41,
    "TD01": 1,
    "FND1": 2,
    "ALL1": 1,
    "ALL2": 1
  },
  "summary_by_domain": {
    "TS": 43,
    "TI": 1,
    "PP": 2,
    "CM": 1,
    "DV": 1
  },
  "summary_status": {
    "injected": 48,
    "overwritten": 0,
    "failed_self_validation": 0
  },
  "warnings": [
    "Re-derivation skipped: ConformanceLayer not importable. Derived fields (--DY, EPOCH) may not reflect injected errors."
  ]
}