STUDYID,DOMAIN,USUBJID,CMSEQ,CMTRT,CMDECOD,CMCAT,CMINDC,CMDOSE,CMDOSU,CMDOSFRQ,CMROUTE,EPOCH,CMSTDTC,CMENDTC,CMSTDY,CMENDY
GB001-2001,CM,GB001-2001-ARG_SITE01-0006,1,IBUPROFEN,IBUPROFEN,CONCOMITANT,ASTHMA,400,mg,PRN,ORAL,TREATMENT,2024-07-28,2024-08-23,125,151
GB001-2001,CM,GB001-2001-ARG_SITE01-0006,2,AMOXICILLIN,AMOXICILLIN,CONCOMITANT,UPPER RESPIRATORY TRACT INFECTION,500,mg,TID,ORAL,TREATMENT,2024-09-03,2024-09-10,162,169
GB001-2001,CM,GB001-2001-CAN_SITE01-0008,1,AMOXICILLIN,AMOXICILLIN,PRIOR,SINUSITIS,500.0,mg,TID,ORAL,SCREENING,2017-04-12,2024-12-29,-2581,238
GB001-2001,CM,GB001-2001-CAN_SITE01-0008,2,PARACETAMOL,PARACETAMOL,CONCOMITANT,NASOPHARYNGITIS,500,mg,PRN,ORAL,RUN_IN,2024-05-16,2024-06-06,11,32
GB001-2001,CM,GB001-2001-CAN_SITE01-0008,3,IBUPROFEN,IBUPROFEN,CONCOMITANT,,,,PRN,ORAL,TREATMENT,2024-10-02,2024-12-16,150,225
GB001-2001,CM,GB001-2001-CAN_SITE01-0019,1,AMOXICILLIN,AMOXICILLIN,PRIOR,SINUSITIS,500.0,mg,TID,ORAL,SCREENING,2015-02-14,2024-11-04,-3314,238
GB001-2001,CM,GB001-2001-CAN_SITE01-0019,2,PARACETAMOL,PARACETAMOL,CONCOMITANT,NASOPHARYNGITIS,500,mg,PRN,ORAL,TREATMENT,2024-04-23,2024-05-23,43,73
GB001-2001,CM,GB001-2001-DEU_SITE01-0012,1,EMOLLIENT CREAM,EMOLLIENT CREAM,PRIOR,ECZEMA,,,BID,TOPICAL,SCREENING,2010-01-18,2024-09-19,-5121,238
GB001-2001,CM,GB001-2001-DEU_SITE01-0012,2,IBUPROFEN,IBUPROFEN,CONCOMITANT,ASTHMA,400,mg,PRN,ORAL,TREATMENT,2024-02-24,2024-03-20,30,55
GB001-2001,CM,GB001-2001-DEU_SITE01-0012,3,DEXTROMETHORPHAN,DEXTROMETHORPHAN,CONCOMITANT,COUGH,30.0,mg,QID,ORAL,TREATMENT,2024-03-20,2024-04-01,55,67
GB001-2001,CM,GB001-2001-DEU_SITE01-0012,4,PARACETAMOL,PARACETAMOL,CONCOMITANT,NASOPHARYNGITIS,500,mg,PRN,ORAL,TREATMENT,2024-04-04,2024-04-08,70,74
GB001-2001,CM,GB001-2001-DEU_SITE01-0012,5,PARACETAMOL,PARACETAMOL,CONCOMITANT,SINUSITIS,500,mg,PRN,ORAL,TREATMENT,2024-04-25,2024-05-11,91,107
GB001-2001,CM,GB001-2001-DEU_SITE01-0012,6,IBUPROFEN,IBUPROFEN,CONCOMITANT,HEADACHE,400,mg,PRN,ORAL,TREATMENT,2024-05-31,2024-06-26,127,153
GB001-2001,CM,GB001-2001-DEU_SITE01-0012,7,PARACETAMOL,PARACETAMOL,CONCOMITANT,HEADACHE,500,mg,PRN,ORAL,TREATMENT,2024-06-04,2024-06-18,131,145
GB001-2001,CM,GB001-2001-DEU_SITE01-0012,8,ASPIRIN,ASPIRIN,CONCOMITANT,,,,QD,ORAL,TREATMENT,2024-06-08,2024-08-13,135,201
GB001-2001,CM,GB001-2001-DEU_SITE01-0012,9,DEXTROMETHORPHAN,DEXTROMETHORPHAN,CONCOMITANT,COUGH,30.0,mg,QID,ORAL,TREATMENT,2024-06-24,2024-07-07,151,164
GB001-2001,CM,GB001-2001-FRA_SITE01-0001,1,IBUPROFEN,IBUPROFEN,CONCOMITANT,,,,PRN,ORAL,RUN_IN,2024-04-10,2024-04-11,1,2
GB001-2001,CM,GB001-2001-MEX_SITE01-0003,1,CETIRIZINE,CETIRIZINE,PRIOR,ALLERGIC RHINITIS,10.0,mg,QD,ORAL,SCREENING,2012-02-20,2024-04-02,-4409,17
GB001-2001,CM,GB001-2001-MEX_SITE01-0003,2,ESOMEPRAZOLE,ESOMEPRAZOLE,PRIOR,GASTROESOPHAGEAL REFLUX DISEASE,40,mg,QD,ORAL,SCREENING,2022-02-17,2024-04-02,-759,17
GB001-2001,CM,GB001-2001-MEX_SITE01-0003,3,PARACETAMOL,PARACETAMOL,CONCOMITANT,NASOPHARYNGITIS,500,mg,PRN,ORAL,RUN_IN,2024-04-02,2024-04-02,17,17
GB001-2001,CM,GB001-2001-MEX_SITE01-0015,1,PARACETAMOL,PARACETAMOL,CONCOMITANT,HEADACHE,500,mg,PRN,ORAL,RUN_IN,2024-05-25,2024-05-29,26,30
GB001-2001,CM,GB001-2001-MEX_SITE01-0015,2,PARACETAMOL,PARACETAMOL,CONCOMITANT,OROPHARYNGEAL PAIN,500,mg,PRN,ORAL,TREATMENT,2024-08-29,2024-09-07,122,131
GB001-2001,CM,GB001-2001-POL_SITE01-0002,1,PARACETAMOL,PARACETAMOL,CONCOMITANT,NASOPHARYNGITIS,500,mg,PRN,ORAL,RUN_IN,2024-04-25,2024-05-08,28,41
GB001-2001,CM,GB001-2001-POL_SITE01-0002,2,METFORMIN,METFORMIN,CONCOMITANT,,,,BID,ORAL,FOLLOW-UP,2024-10-25,2024-11-21,211,238
GB001-2001,CM,GB001-2001-POL_SITE01-0004,1,DEXTROMETHORPHAN,DEXTROMETHORPHAN,CONCOMITANT,COUGH,30.0,mg,QID,ORAL,TREATMENT,2024-07-14,2024-08-04,88,109
GB001-2001,CM,GB001-2001-POL_SITE01-0004,2,PARACETAMOL,PARACETAMOL,CONCOMITANT,NASOPHARYNGITIS,500,mg,PRN,ORAL,TREATMENT,2024-09-14,2024-10-04,150,170
GB001-2001,CM,GB001-2001-POL_SITE01-0004,3,AMOXICILLIN,AMOXICILLIN,CONCOMITANT,BRONCHITIS,500.0,mg,TID,ORAL,TREATMENT,2024-09-21,2024-09-26,157,162
GB001-2001,CM,GB001-2001-POL_SITE01-0014,1,CETIRIZINE,CETIRIZINE,PRIOR,ALLERGIC RHINITIS,10.0,mg,QD,ORAL,SCREENING,2018-01-28,2024-09-28,-2198,238
GB001-2001,CM,GB001-2001-POL_SITE01-0014,2,ESOMEPRAZOLE,ESOMEPRAZOLE,PRIOR,GASTROESOPHAGEAL REFLUX DISEASE,40,mg,QD,ORAL,SCREENING,2023-01-27,2024-09-28,-373,238
GB001-2001,CM,GB001-2001-POL_SITE01-0014,3,AMOXICILLIN,AMOXICILLIN,CONCOMITANT,UPPER RESPIRATORY TRACT INFECTION,500,mg,TID,ORAL,RUN_IN,2024-02-23,2024-03-06,20,32
GB001-2001,CM,GB001-2001-USA_SITE01-0007,1,CETIRIZINE,CETIRIZINE,PRIOR,ALLERGIC RHINITIS,10.0,mg,QD,ORAL,SCREENING,2015-01-24,2024-03-31,-3298,57
GB001-2001,CM,GB001-2001-USA_SITE01-0007,2,ORLISTAT,ORLISTAT,PRIOR,OBESITY,120.0,mg,TID,ORAL,SCREENING,2016-01-24,2024-03-31,-2933,57
GB001-2001,CM,GB001-2001-USA_SITE01-0007,3,AMOXICILLIN,AMOXICILLIN,CONCOMITANT,BRONCHITIS,500.0,mg,TID,ORAL,TREATMENT,2024-03-03,2024-03-30,29,56
GB001-2001,CM,GB001-2001-USA_SITE01-0007,4,DEXTROMETHORPHAN,DEXTROMETHORPHAN,CONCOMITANT,COUGH,30.0,mg,QID,ORAL,TREATMENT,2024-03-28,2024-03-31,54,57
GB001-2001,CM,GB001-2001-USA_SITE01-0011,1,IBUPROFEN,IBUPROFEN,CONCOMITANT,BACK PAIN,400,mg,TID,ORAL,RUN_IN,2024-04-20,2024-04-23,8,11
GB001-2001,CM,GB001-2001-USA_SITE01-0011,2,ONDANSETRON,ONDANSETRON,CONCOMITANT,NAUSEA,4,mg,PRN,ORAL,TREATMENT,2024-08-27,2024-09-08,137,149
GB001-2001,CM,GB001-2001-USA_SITE01-0011,3,OMEPRAZOLE,OMEPRAZOLE,CONCOMITANT,,,,QD,ORAL,TREATMENT,2024-09-04,2024-09-21,145,162
GB001-2001,CM,GB001-2001-USA_SITE01-0011,4,METOCLOPRAMIDE,METOCLOPRAMIDE,CONCOMITANT,NAUSEA,10,mg,TID,ORAL,TREATMENT,2024-09-05,2024-09-17,146,158
GB001-2001,CM,GB001-2001-USA_SITE01-0013,1,SERTRALINE,SERTRALINE,PRIOR,DEPRESSION,50,mg,QD,ORAL,SCREENING,2013-03-20,2024-11-25,-4031,238
GB001-2001,CM,GB001-2001-USA_SITE01-0013,2,PARACETAMOL,PARACETAMOL,CONCOMITANT,NASOPHARYNGITIS,500,mg,PRN,ORAL,RUN_IN,2024-04-07,2024-05-07,6,36
GB001-2001,CM,GB001-2001-USA_SITE01-0013,3,PARACETAMOL,PARACETAMOL,CONCOMITANT,,,,PRN,ORAL,FOLLOW-UP,2024-10-30,2024-11-06,212,219
GB001-2001,CM,GB001-2001-USA_SITE03-0005,1,PARACETAMOL,PARACETAMOL,CONCOMITANT,ASTHMA,500,mg,PRN,ORAL,RUN_IN,2024-04-16,2024-05-13,13,40
GB001-2001,CM,GB001-2001-USA_SITE03-0005,2,IBUPROFEN,IBUPROFEN,CONCOMITANT,SINUSITIS,400,mg,PRN,ORAL,RUN_IN,2024-04-18,2024-04-29,15,26
GB001-2001,CM,GB001-2001-USA_SITE03-0005,3,PARACETAMOL,PARACETAMOL,CONCOMITANT,NASOPHARYNGITIS,500,mg,PRN,ORAL,RUN_IN,2024-04-21,2024-05-06,18,33
GB001-2001,CM,GB001-2001-USA_SITE03-0005,4,IBUPROFEN,IBUPROFEN,CONCOMITANT,,,,PRN,ORAL,TREATMENT,2024-05-02,2024-06-13,29,71
GB001-2001,CM,GB001-2001-USA_SITE03-0005,5,PARACETAMOL,PARACETAMOL,CONCOMITANT,NASOPHARYNGITIS,500,mg,PRN,ORAL,TREATMENT,2024-05-22,2024-06-09,49,67
GB001-2001,CM,GB001-2001-USA_SITE03-0005,6,IBUPROFEN,IBUPROFEN,CONCOMITANT,HEADACHE,400,mg,PRN,ORAL,TREATMENT,2024-05-24,2024-05-28,51,55
GB001-2001,CM,GB001-2001-USA_SITE03-0005,7,DEXTROMETHORPHAN,DEXTROMETHORPHAN,CONCOMITANT,COUGH,30.0,mg,QID,ORAL,TREATMENT,2024-06-13,2024-06-13,71,71
GB001-2001,CM,GB001-2001-USA_SITE04-0016,1,AMOXICILLIN,AMOXICILLIN,PRIOR,SINUSITIS,500.0,mg,TID,ORAL,SCREENING,2014-01-21,2024-09-27,-3665,238
GB001-2001,CM,GB001-2001-USA_SITE04-0016,2,HYDROCORTISONE,HYDROCORTISONE,PRIOR,ECZEMA,1.0,%,BID,TOPICAL,SCREENING,2023-01-19,2024-09-27,-380,238
GB001-2001,CM,GB001-2001-USA_SITE04-0016,3,PARACETAMOL,PARACETAMOL,CONCOMITANT,NASOPHARYNGITIS,500,mg,PRN,ORAL,RUN_IN,2024-02-21,2024-03-10,19,37
GB001-2001,CM,GB001-2001-USA_SITE04-0016,4,ASPIRIN,ASPIRIN,CONCOMITANT,,,,QD,ORAL,TREATMENT,2024-03-26,2024-05-08,53,96
GB001-2001,CM,GB001-2001-USA_SITE04-0016,5,IBUPROFEN,IBUPROFEN,CONCOMITANT,OROPHARYNGEAL PAIN,400,mg,PRN,ORAL,TREATMENT,2024-03-28,2024-04-26,55,84
GB001-2001,CM,GB001-2001-USA_SITE04-0016,6,DEXTROMETHORPHAN,DEXTROMETHORPHAN,CONCOMITANT,COUGH,30.0,mg,QID,ORAL,TREATMENT,2024-07-13,2024-07-19,162,168
GB001-2001,CM,GB001-2001-USA_SITE04-0018,1,ESOMEPRAZOLE,ESOMEPRAZOLE,PRIOR,GASTROESOPHAGEAL REFLUX DISEASE,40,mg,QD,ORAL,SCREENING,2010-01-29,2024-09-28,-5119,238
GB001-2001,CM,GB001-2001-USA_SITE04-0018,2,ESCITALOPRAM,ESCITALOPRAM,PRIOR,DEPRESSION,10,mg,QD,ORAL,SCREENING,2018-01-27,2024-09-28,-2199,238
GB001-2001,CM,GB001-2001-USA_SITE04-0018,3,IBUPROFEN,IBUPROFEN,CONCOMITANT,BACK PAIN,400,mg,TID,ORAL,TREATMENT,2024-03-27,2024-04-10,53,67
GB001-2001,CM,GB001-2001-USA_SITE04-0018,4,AMOXICILLIN,AMOXICILLIN,CONCOMITANT,BRONCHITIS,500.0,mg,TID,ORAL,TREATMENT,2024-04-18,2024-05-02,75,89
GB001-2001,CM,GB001-2001-USA_SITE04-0018,5,PARACETAMOL,PARACETAMOL,CONCOMITANT,UPPER RESPIRATORY TRACT INFECTION,500,mg,PRN,ORAL,TREATMENT,2024-04-19,2024-04-26,76,83
GB001-2001,CM,GB001-2001-USA_SITE04-0018,6,DEXTROMETHORPHAN,DEXTROMETHORPHAN,CONCOMITANT,COUGH,30.0,mg,QID,ORAL,TREATMENT,2024-04-27,2024-05-14,84,101
GB001-2001,CM,GB001-2001-USA_SITE04-0018,7,ONDANSETRON,ONDANSETRON,CONCOMITANT,NAUSEA,4,mg,PRN,ORAL,TREATMENT,2024-04-29,2024-05-18,86,105
GB001-2001,CM,GB001-2001-USA_SITE04-0018,8,AMOXICILLIN,AMOXICILLIN,CONCOMITANT,BRONCHITIS,500.0,mg,TID,ORAL,TREATMENT,2024-05-01,2024-05-22,88,109
