STUDYID,DOMAIN,USUBJID,DVSEQ,DVTERM,DVDECOD,DVCAT,DVSCAT,EPOCH,DVSTDTC,DVSTDY
GB001-2001,DV,GB001-2001-ARG_SITE01-0006,1,Visit WEEK 2 occurred 3 days early (Day 12 vs planned Day 15),VISIT OCCURRED OUTSIDE VISIT WINDOW,MINOR,VISIT WINDOW,RUN_IN,2024-04-06,12
GB001-2001,DV,GB001-2001-ARG_SITE01-0006,2,Missed GB001 dose on 2024-04-21,MISSED DOSE,MINOR,DOSING,RUN_IN,2024-04-21,27
GB001-2001,DV,GB001-2001-ARG_SITE01-0006,3,Visit WEEK 4 occurred 2 days late (Day 31 vs planned Day 29),VISIT OCCURRED OUTSIDE VISIT WINDOW,MINOR,VISIT WINDOW,TREATMENT,2024-04-25,31
GB001-2001,DV,GB001-2001-ARG_SITE01-0006,4,Missed GB001 dose on 2024-05-09,MISSED DOSE,MINOR,DOSING,TREATMENT,2024-05-09,45
GB001-2001,DV,GB001-2001-ARG_SITE01-0006,5,Visit WEEK 12 occurred 4 days late (Day 89 vs planned Day 85),VISIT OCCURRED OUTSIDE VISIT WINDOW,MINOR,VISIT WINDOW,TREATMENT,2024-06-22,89
GB001-2001,DV,GB001-2001-ARG_SITE01-0006,6,Missed GB001 dose on 2024-07-17,MISSED DOSE,MINOR,DOSING,TREATMENT,2024-07-17,114
GB001-2001,DV,GB001-2001-ARG_SITE01-0006,7,Missed GB001 dose on 2024-07-23,MISSED DOSE,MINOR,DOSING,TREATMENT,2024-07-23,120
GB001-2001,DV,GB001-2001-ARG_SITE01-0006,8,Missed GB001 dose on 2024-08-08,MISSED DOSE,MINOR,DOSING,TREATMENT,2024-08-08,136
GB001-2001,DV,GB001-2001-ARG_SITE01-0006,9,Missed GB001 dose on 2024-08-13,MISSED DOSE,MINOR,DOSING,TREATMENT,2024-08-13,141
GB001-2001,DV,GB001-2001-ARG_SITE01-0006,10,Visit WEEK 20 occurred 3 days late (Day 144 vs planned Day 141),VISIT OCCURRED OUTSIDE VISIT WINDOW,MINOR,VISIT WINDOW,TREATMENT,2024-08-16,144
GB001-2001,DV,GB001-2001-ARG_SITE01-0006,11,Visit WEEK 24 EOT occurred 3 days late (Day 172 vs planned Day 169),VISIT OCCURRED OUTSIDE VISIT WINDOW,MINOR,VISIT WINDOW,TREATMENT,2024-09-13,172
GB001-2001,DV,GB001-2001-CAN_SITE01-0008,1,Missed GB001 dose on 2024-05-13,MISSED DOSE,MINOR,DOSING,RUN_IN,2024-05-13,8
GB001-2001,DV,GB001-2001-CAN_SITE01-0008,2,Visit WEEK 2 occurred 3 days early (Day 12 vs planned Day 15),VISIT OCCURRED OUTSIDE VISIT WINDOW,MINOR,VISIT WINDOW,RUN_IN,2024-05-17,12
GB001-2001,DV,GB001-2001-CAN_SITE01-0008,3,Missed GB001 dose on 2024-05-25,MISSED DOSE,MINOR,DOSING,RUN_IN,2024-05-25,20
GB001-2001,DV,GB001-2001-CAN_SITE01-0008,4,Visit WEEK 8 occurred 3 days late (Day 60 vs planned Day 57),VISIT OCCURRED OUTSIDE VISIT WINDOW,MINOR,VISIT WINDOW,TREATMENT,2024-07-04,60
GB001-2001,DV,GB001-2001-CAN_SITE01-0008,5,Visit WEEK 16 occurred 2 days late (Day 115 vs planned Day 113),VISIT OCCURRED OUTSIDE VISIT WINDOW,MINOR,VISIT WINDOW,TREATMENT,2024-08-28,115
GB001-2001,DV,GB001-2001-CAN_SITE01-0008,6,Missed GB001 dose on 2024-08-28,MISSED DOSE,MINOR,DOSING,TREATMENT,2024-08-28,115
GB001-2001,DV,GB001-2001-CAN_SITE01-0008,7,Visit WEEK 20 occurred 2 days early (Day 139 vs planned Day 141),VISIT OCCURRED OUTSIDE VISIT WINDOW,MINOR,VISIT WINDOW,TREATMENT,2024-09-21,139
GB001-2001,DV,GB001-2001-CAN_SITE01-0008,8,Visit WEEK 24 EOT occurred 1 days late (Day 170 vs planned Day 169),VISIT OCCURRED OUTSIDE VISIT WINDOW,MINOR,VISIT WINDOW,TREATMENT,2024-10-22,170
GB001-2001,DV,GB001-2001-CAN_SITE01-0019,1,Visit WEEK 2 occurred 0 days late (Day 15 vs planned Day 15),VISIT OCCURRED OUTSIDE VISIT WINDOW,MINOR,VISIT WINDOW,RUN_IN,2024-03-26,15
GB001-2001,DV,GB001-2001-CAN_SITE01-0019,2,Missed PLACEBO dose on 2024-03-30,MISSED DOSE,MINOR,DOSING,RUN_IN,2024-03-30,19
GB001-2001,DV,GB001-2001-CAN_SITE01-0019,3,Missed PLACEBO dose on 2024-04-04,MISSED DOSE,MINOR,DOSING,RUN_IN,2024-04-04,24
GB001-2001,DV,GB001-2001-CAN_SITE01-0019,4,Missed PLACEBO dose on 2024-05-02,MISSED DOSE,MINOR,DOSING,TREATMENT,2024-05-02,52
GB001-2001,DV,GB001-2001-CAN_SITE01-0019,5,Missed PLACEBO dose on 2024-05-06,MISSED DOSE,MINOR,DOSING,TREATMENT,2024-05-06,56
GB001-2001,DV,GB001-2001-CAN_SITE01-0019,6,Visit WEEK 8 occurred 3 days late (Day 60 vs planned Day 57),VISIT OCCURRED OUTSIDE VISIT WINDOW,MINOR,VISIT WINDOW,TREATMENT,2024-05-10,60
GB001-2001,DV,GB001-2001-CAN_SITE01-0019,7,Missed PLACEBO dose on 2024-05-29,MISSED DOSE,MINOR,DOSING,TREATMENT,2024-05-29,79
GB001-2001,DV,GB001-2001-CAN_SITE01-0019,8,Missed PLACEBO dose on 2024-05-30,MISSED DOSE,MINOR,DOSING,TREATMENT,2024-05-30,80
GB001-2001,DV,GB001-2001-CAN_SITE01-0019,9,Missed PLACEBO dose on 2024-06-11,MISSED DOSE,MINOR,DOSING,TREATMENT,2024-06-11,92
GB001-2001,DV,GB001-2001-CAN_SITE01-0019,10,Missed PLACEBO dose on 2024-06-17,MISSED DOSE,MINOR,DOSING,TREATMENT,2024-06-17,98
GB001-2001,DV,GB001-2001-CAN_SITE01-0019,11,Visit WEEK 16 occurred 3 days late (Day 116 vs planned Day 113),VISIT OCCURRED OUTSIDE VISIT WINDOW,MINOR,VISIT WINDOW,TREATMENT,2024-07-05,116
GB001-2001,DV,GB001-2001-CAN_SITE01-0019,12,Visit WEEK 20 occurred 5 days early (Day 136 vs planned Day 141),VISIT OCCURRED OUTSIDE VISIT WINDOW,MINOR,VISIT WINDOW,TREATMENT,2024-07-25,136
GB001-2001,DV,GB001-2001-DEU_SITE01-0012,1,Visit WEEK 2 occurred 1 days late (Day 16 vs planned Day 15),VISIT OCCURRED OUTSIDE VISIT WINDOW,MINOR,VISIT WINDOW,RUN_IN,2024-02-10,16
GB001-2001,DV,GB001-2001-DEU_SITE01-0012,2,Visit WEEK 20 occurred 1 days late (Day 142 vs planned Day 141),VISIT OCCURRED OUTSIDE VISIT WINDOW,MINOR,VISIT WINDOW,TREATMENT,2024-06-15,142
GB001-2001,DV,GB001-2001-DEU_SITE01-0012,3,Visit WEEK 24 EOT occurred 2 days early (Day 167 vs planned Day 169),VISIT OCCURRED OUTSIDE VISIT WINDOW,MINOR,VISIT WINDOW,TREATMENT,2024-07-10,167
GB001-2001,DV,GB001-2001-ITA_SITE01-0017,1,Missed PLACEBO dose on 2024-03-11,MISSED DOSE,MINOR,DOSING,RUN_IN,2024-03-11,1
GB001-2001,DV,GB001-2001-ITA_SITE01-0017,2,Missed PLACEBO dose on 2024-03-12,MISSED DOSE,MINOR,DOSING,RUN_IN,2024-03-12,2
GB001-2001,DV,GB001-2001-ITA_SITE01-0017,3,Missed PLACEBO dose on 2024-03-19,MISSED DOSE,MINOR,DOSING,RUN_IN,2024-03-19,9
GB001-2001,DV,GB001-2001-ITA_SITE01-0017,4,Missed PLACEBO dose on 2024-03-20,MISSED DOSE,MINOR,DOSING,RUN_IN,2024-03-20,10
GB001-2001,DV,GB001-2001-ITA_SITE01-0017,5,Missed PLACEBO dose on 2024-03-26,MISSED DOSE,MINOR,DOSING,RUN_IN,2024-03-26,16
GB001-2001,DV,GB001-2001-ITA_SITE01-0017,6,Missed PLACEBO dose on 2024-04-04,MISSED DOSE,MINOR,DOSING,RUN_IN,2024-04-04,25
GB001-2001,DV,GB001-2001-ITA_SITE01-0017,7,Visit WEEK 4 occurred 3 days early (Day 26 vs planned Day 29),VISIT OCCURRED OUTSIDE VISIT WINDOW,MINOR,VISIT WINDOW,RUN_IN,2024-04-05,26
GB001-2001,DV,GB001-2001-ITA_SITE01-0017,8,Missed PLACEBO dose on 2024-04-26,MISSED DOSE,MINOR,DOSING,TREATMENT,2024-04-26,47
GB001-2001,DV,GB001-2001-ITA_SITE01-0017,9,Visit WEEK 8 occurred 0 days late (Day 57 vs planned Day 57),VISIT OCCURRED OUTSIDE VISIT WINDOW,MINOR,VISIT WINDOW,TREATMENT,2024-05-06,57
GB001-2001,DV,GB001-2001-ITA_SITE01-0017,10,Vital signs assessment not performed at WEEK 8,MISSED ASSESSMENT,MINOR,ASSESSMENT,TREATMENT,2024-05-06,57
GB001-2001,DV,GB001-2001-ITA_SITE01-0017,11,Missed PLACEBO dose on 2024-05-16,MISSED DOSE,MINOR,DOSING,TREATMENT,2024-05-16,67
GB001-2001,DV,GB001-2001-ITA_SITE01-0017,12,Missed PLACEBO dose on 2024-05-23,MISSED DOSE,MINOR,DOSING,TREATMENT,2024-05-23,74
GB001-2001,DV,GB001-2001-ITA_SITE01-0017,13,Missed PLACEBO dose on 2024-05-24,MISSED DOSE,MINOR,DOSING,TREATMENT,2024-05-24,75
GB001-2001,DV,GB001-2001-ITA_SITE01-0017,14,Missed PLACEBO dose on 2024-05-27,MISSED DOSE,MINOR,DOSING,TREATMENT,2024-05-27,78
GB001-2001,DV,GB001-2001-ITA_SITE01-0017,15,Missed PLACEBO dose on 2024-05-28,MISSED DOSE,MINOR,DOSING,TREATMENT,2024-05-28,79
GB001-2001,DV,GB001-2001-MEX_SITE01-0003,1,Visit WEEK 2 occurred 0 days late (Day 15 vs planned Day 15),VISIT OCCURRED OUTSIDE VISIT WINDOW,MINOR,VISIT WINDOW,RUN_IN,2024-03-31,15
GB001-2001,DV,GB001-2001-MEX_SITE01-0015,1,Missed PLACEBO dose on 2024-05-01,MISSED DOSE,MINOR,DOSING,RUN_IN,2024-05-01,2
GB001-2001,DV,GB001-2001-MEX_SITE01-0015,2,Missed PLACEBO dose on 2024-05-05,MISSED DOSE,MINOR,DOSING,RUN_IN,2024-05-05,6
GB001-2001,DV,GB001-2001-MEX_SITE01-0015,3,Missed PLACEBO dose on 2024-05-14,MISSED DOSE,MINOR,DOSING,RUN_IN,2024-05-14,15
GB001-2001,DV,GB001-2001-MEX_SITE01-0015,4,Visit WEEK 2 occurred 1 days late (Day 16 vs planned Day 15),VISIT OCCURRED OUTSIDE VISIT WINDOW,MINOR,VISIT WINDOW,RUN_IN,2024-05-15,16
GB001-2001,DV,GB001-2001-MEX_SITE01-0015,5,Missed PLACEBO dose on 2024-05-18,MISSED DOSE,MINOR,DOSING,RUN_IN,2024-05-18,19
GB001-2001,DV,GB001-2001-MEX_SITE01-0015,6,Missed PLACEBO dose on 2024-05-20,MISSED DOSE,MINOR,DOSING,RUN_IN,2024-05-20,21
GB001-2001,DV,GB001-2001-MEX_SITE01-0015,7,Visit WEEK 4 occurred 1 days early (Day 28 vs planned Day 29),VISIT OCCURRED OUTSIDE VISIT WINDOW,MINOR,VISIT WINDOW,RUN_IN,2024-05-27,28
GB001-2001,DV,GB001-2001-MEX_SITE01-0015,8,Missed PLACEBO dose on 2024-06-02,MISSED DOSE,MINOR,DOSING,TREATMENT,2024-06-02,34
GB001-2001,DV,GB001-2001-MEX_SITE01-0015,9,Missed PLACEBO dose on 2024-06-03,MISSED DOSE,MINOR,DOSING,TREATMENT,2024-06-03,35
GB001-2001,DV,GB001-2001-MEX_SITE01-0015,10,Missed PLACEBO dose on 2024-06-10,MISSED DOSE,MINOR,DOSING,TREATMENT,2024-06-10,42
GB001-2001,DV,GB001-2001-MEX_SITE01-0015,11,Missed PLACEBO dose on 2024-06-12,MISSED DOSE,MINOR,DOSING,TREATMENT,2024-06-12,44
GB001-2001,DV,GB001-2001-MEX_SITE01-0015,12,Missed PLACEBO dose on 2024-06-26,MISSED DOSE,MINOR,DOSING,TREATMENT,2024-06-26,58
GB001-2001,DV,GB001-2001-MEX_SITE01-0015,13,Missed PLACEBO dose on 2024-07-05,MISSED DOSE,MINOR,DOSING,TREATMENT,2024-07-05,67
GB001-2001,DV,GB001-2001-MEX_SITE01-0015,14,Missed PLACEBO dose on 2024-07-11,MISSED DOSE,MINOR,DOSING,TREATMENT,2024-07-11,73
GB001-2001,DV,GB001-2001-MEX_SITE01-0015,15,Missed PLACEBO dose on 2024-07-13,MISSED DOSE,MINOR,DOSING,TREATMENT,2024-07-13,75
GB001-2001,DV,GB001-2001-MEX_SITE01-0015,16,Missed PLACEBO dose on 2024-07-18,MISSED DOSE,MINOR,DOSING,TREATMENT,2024-07-18,80
GB001-2001,DV,GB001-2001-MEX_SITE01-0015,17,Visit WEEK 16 occurred 3 days late (Day 116 vs planned Day 113),VISIT OCCURRED OUTSIDE VISIT WINDOW,MINOR,VISIT WINDOW,TREATMENT,2024-08-23,116
GB001-2001,DV,GB001-2001-MEX_SITE01-0015,18,Visit WEEK 28 SAFETY FU occurred 4 days late (Day 201 vs planned Day 197),VISIT OCCURRED OUTSIDE VISIT WINDOW,MINOR,VISIT WINDOW,FOLLOW-UP,2024-11-16,201
GB001-2001,DV,GB001-2001-POL_SITE01-0004,1,Missed GB001 dose on 2024-04-19,MISSED DOSE,MINOR,DOSING,RUN_IN,2024-04-19,2
GB001-2001,DV,GB001-2001-POL_SITE01-0004,2,Missed GB001 dose on 2024-04-26,MISSED DOSE,MINOR,DOSING,RUN_IN,2024-04-26,9
GB001-2001,DV,GB001-2001-POL_SITE01-0004,3,Missed GB001 dose on 2024-04-27,MISSED DOSE,MINOR,DOSING,RUN_IN,2024-04-27,10
GB001-2001,DV,GB001-2001-POL_SITE01-0004,4,Missed GB001 dose on 2024-04-29,MISSED DOSE,MINOR,DOSING,RUN_IN,2024-04-29,12
GB001-2001,DV,GB001-2001-POL_SITE01-0004,5,Missed GB001 dose on 2024-05-18,MISSED DOSE,MINOR,DOSING,TREATMENT,2024-05-18,31
GB001-2001,DV,GB001-2001-POL_SITE01-0004,6,Missed GB001 dose on 2024-05-28,MISSED DOSE,MINOR,DOSING,TREATMENT,2024-05-28,41
GB001-2001,DV,GB001-2001-POL_SITE01-0004,7,Missed GB001 dose on 2024-05-29,MISSED DOSE,MINOR,DOSING,TREATMENT,2024-05-29,42
GB001-2001,DV,GB001-2001-POL_SITE01-0004,8,Missed GB001 dose on 2024-05-30,MISSED DOSE,MINOR,DOSING,TREATMENT,2024-05-30,43
GB001-2001,DV,GB001-2001-POL_SITE01-0004,9,Missed GB001 dose on 2024-06-09,MISSED DOSE,MINOR,DOSING,TREATMENT,2024-06-09,53
GB001-2001,DV,GB001-2001-POL_SITE01-0004,10,Missed GB001 dose on 2024-06-10,MISSED DOSE,MINOR,DOSING,TREATMENT,2024-06-10,54
GB001-2001,DV,GB001-2001-POL_SITE01-0004,11,Missed GB001 dose on 2024-06-18,MISSED DOSE,MINOR,DOSING,TREATMENT,2024-06-18,62
GB001-2001,DV,GB001-2001-POL_SITE01-0004,12,Visit WEEK 16 occurred 4 days early (Day 109 vs planned Day 113),VISIT OCCURRED OUTSIDE VISIT WINDOW,MINOR,VISIT WINDOW,TREATMENT,2024-08-04,109
GB001-2001,DV,GB001-2001-POL_SITE01-0004,13,Visit WEEK 20 occurred 5 days early (Day 136 vs planned Day 141),VISIT OCCURRED OUTSIDE VISIT WINDOW,MINOR,VISIT WINDOW,TREATMENT,2024-08-31,136
GB001-2001,DV,GB001-2001-POL_SITE01-0004,14,Vital signs assessment not performed at WEEK 28 SAFETY FU,MISSED ASSESSMENT,MINOR,ASSESSMENT,FOLLOW-UP,2024-11-05,202
GB001-2001,DV,GB001-2001-POL_SITE01-0014,1,Missed PLACEBO dose on 2024-02-10,MISSED DOSE,MINOR,DOSING,RUN_IN,2024-02-10,7
GB001-2001,DV,GB001-2001-POL_SITE01-0014,2,Missed PLACEBO dose on 2024-02-22,MISSED DOSE,MINOR,DOSING,RUN_IN,2024-02-22,19
GB001-2001,DV,GB001-2001-POL_SITE01-0014,3,Missed PLACEBO dose on 2024-02-26,MISSED DOSE,MINOR,DOSING,RUN_IN,2024-02-26,23
GB001-2001,DV,GB001-2001-POL_SITE01-0014,4,Missed PLACEBO dose on 2024-03-01,MISSED DOSE,MINOR,DOSING,RUN_IN,2024-03-01,27
GB001-2001,DV,GB001-2001-POL_SITE01-0014,5,Missed PLACEBO dose on 2024-03-11,MISSED DOSE,MINOR,DOSING,TREATMENT,2024-03-11,37
GB001-2001,DV,GB001-2001-POL_SITE01-0014,6,Missed PLACEBO dose on 2024-03-27,MISSED DOSE,MINOR,DOSING,TREATMENT,2024-03-27,53
GB001-2001,DV,GB001-2001-POL_SITE01-0014,7,Visit WEEK 8 occurred 3 days early (Day 54 vs planned Day 57),VISIT OCCURRED OUTSIDE VISIT WINDOW,MINOR,VISIT WINDOW,TREATMENT,2024-03-28,54
GB001-2001,DV,GB001-2001-POL_SITE01-0014,8,Vital signs assessment not performed at WEEK 8,MISSED ASSESSMENT,MINOR,ASSESSMENT,TREATMENT,2024-03-28,54
GB001-2001,DV,GB001-2001-POL_SITE01-0014,9,Missed PLACEBO dose on 2024-04-05,MISSED DOSE,MINOR,DOSING,TREATMENT,2024-04-05,62
GB001-2001,DV,GB001-2001-POL_SITE01-0014,10,Missed PLACEBO dose on 2024-04-11,MISSED DOSE,MINOR,DOSING,TREATMENT,2024-04-11,68
GB001-2001,DV,GB001-2001-USA_SITE01-0007,1,Missed GB001 dose on 2024-02-13,MISSED DOSE,MINOR,DOSING,RUN_IN,2024-02-13,10
GB001-2001,DV,GB001-2001-USA_SITE01-0007,2,Visit WEEK 2 occurred 1 days early (Day 14 vs planned Day 15),VISIT OCCURRED OUTSIDE VISIT WINDOW,MINOR,VISIT WINDOW,RUN_IN,2024-02-17,14
GB001-2001,DV,GB001-2001-USA_SITE01-0007,3,Missed GB001 dose on 2024-02-21,MISSED DOSE,MINOR,DOSING,RUN_IN,2024-02-21,18
GB001-2001,DV,GB001-2001-USA_SITE01-0009,1,Missed GB001 dose on 2024-03-28,MISSED DOSE,MINOR,DOSING,RUN_IN,2024-03-28,5
GB001-2001,DV,GB001-2001-USA_SITE01-0011,1,Vital signs assessment not performed at WEEK 2,MISSED ASSESSMENT,MINOR,ASSESSMENT,RUN_IN,2024-04-24,12
GB001-2001,DV,GB001-2001-USA_SITE01-0011,2,Visit WEEK 24 EOT occurred 4 days late (Day 173 vs planned Day 169),VISIT OCCURRED OUTSIDE VISIT WINDOW,MINOR,VISIT WINDOW,TREATMENT,2024-10-02,173
GB001-2001,DV,GB001-2001-USA_SITE01-0011,3,Visit WEEK 28 SAFETY FU occurred 1 days late (Day 198 vs planned Day 197),VISIT OCCURRED OUTSIDE VISIT WINDOW,MINOR,VISIT WINDOW,FOLLOW-UP,2024-10-27,198
GB001-2001,DV,GB001-2001-USA_SITE01-0013,1,Visit WEEK 2 occurred 3 days early (Day 12 vs planned Day 15),VISIT OCCURRED OUTSIDE VISIT WINDOW,MINOR,VISIT WINDOW,RUN_IN,2024-04-13,12
GB001-2001,DV,GB001-2001-USA_SITE01-0013,2,Visit WEEK 4 occurred 1 days late (Day 30 vs planned Day 29),VISIT OCCURRED OUTSIDE VISIT WINDOW,MINOR,VISIT WINDOW,TREATMENT,2024-05-01,30
GB001-2001,DV,GB001-2001-USA_SITE01-0013,3,Visit WEEK 8 occurred 5 days early (Day 52 vs planned Day 57),VISIT OCCURRED OUTSIDE VISIT WINDOW,MINOR,VISIT WINDOW,TREATMENT,2024-05-23,52
GB001-2001,DV,GB001-2001-USA_SITE01-0013,4,Visit WEEK 20 occurred 1 days late (Day 142 vs planned Day 141),VISIT OCCURRED OUTSIDE VISIT WINDOW,MINOR,VISIT WINDOW,TREATMENT,2024-08-21,142
GB001-2001,DV,GB001-2001-USA_SITE03-0005,1,Visit WEEK 2 occurred 1 days late (Day 16 vs planned Day 15),VISIT OCCURRED OUTSIDE VISIT WINDOW,MINOR,VISIT WINDOW,RUN_IN,2024-04-19,16
GB001-2001,DV,GB001-2001-USA_SITE03-0005,2,Dose modified from 60.0 to 30.0 mg,DOSE MODIFICATION,MINOR,DOSING,TREATMENT,2024-06-05,63
GB001-2001,DV,GB001-2001-USA_SITE04-0016,1,Missed PLACEBO dose on 2024-02-07,MISSED DOSE,MINOR,DOSING,RUN_IN,2024-02-07,5
GB001-2001,DV,GB001-2001-USA_SITE04-0016,2,Missed PLACEBO dose on 2024-02-10,MISSED DOSE,MINOR,DOSING,RUN_IN,2024-02-10,8
GB001-2001,DV,GB001-2001-USA_SITE04-0016,3,Missed PLACEBO dose on 2024-02-11,MISSED DOSE,MINOR,DOSING,RUN_IN,2024-02-11,9
GB001-2001,DV,GB001-2001-USA_SITE04-0016,4,Visit WEEK 2 occurred 3 days early (Day 12 vs planned Day 15),VISIT OCCURRED OUTSIDE VISIT WINDOW,MINOR,VISIT WINDOW,RUN_IN,2024-02-14,12
GB001-2001,DV,GB001-2001-USA_SITE04-0016,5,Missed PLACEBO dose on 2024-02-24,MISSED DOSE,MINOR,DOSING,RUN_IN,2024-02-24,22
GB001-2001,DV,GB001-2001-USA_SITE04-0016,6,Missed PLACEBO dose on 2024-03-27,MISSED DOSE,MINOR,DOSING,TREATMENT,2024-03-27,54
GB001-2001,DV,GB001-2001-USA_SITE04-0016,7,Missed PLACEBO dose on 2024-04-04,MISSED DOSE,MINOR,DOSING,TREATMENT,2024-04-04,62
GB001-2001,DV,GB001-2001-USA_SITE04-0016,8,Missed PLACEBO dose on 2024-04-06,MISSED DOSE,MINOR,DOSING,TREATMENT,2024-04-06,64
GB001-2001,DV,GB001-2001-USA_SITE04-0016,9,Visit WEEK 16 occurred 1 days early (Day 112 vs planned Day 113),VISIT OCCURRED OUTSIDE VISIT WINDOW,MINOR,VISIT WINDOW,TREATMENT,2024-05-24,112
GB001-2001,DV,GB001-2001-USA_SITE04-0016,10,Visit WEEK 28 SAFETY FU occurred 3 days early (Day 194 vs planned Day 197),VISIT OCCURRED OUTSIDE VISIT WINDOW,MINOR,VISIT WINDOW,TREATMENT,2024-08-14,194
GB001-2001,DV,GB001-2001-USA_SITE04-0018,1,Missed GB001 dose on 2024-02-10,MISSED DOSE,MINOR,DOSING,RUN_IN,2024-02-10,7
GB001-2001,DV,GB001-2001-USA_SITE04-0018,2,Missed GB001 dose on 2024-02-27,MISSED DOSE,MINOR,DOSING,RUN_IN,2024-02-27,24
GB001-2001,DV,GB001-2001-USA_SITE04-0018,3,Missed GB001 dose on 2024-02-28,MISSED DOSE,MINOR,DOSING,RUN_IN,2024-02-28,25
GB001-2001,DV,GB001-2001-USA_SITE04-0018,4,Missed GB001 dose on 2024-03-17,MISSED DOSE,MINOR,DOSING,TREATMENT,2024-03-17,43
GB001-2001,DV,GB001-2001-USA_SITE04-0018,5,Visit WEEK 8 occurred 3 days early (Day 54 vs planned Day 57),VISIT OCCURRED OUTSIDE VISIT WINDOW,MINOR,VISIT WINDOW,TREATMENT,2024-03-28,54
GB001-2001,DV,GB001-2001-USA_SITE04-0018,6,Missed GB001 dose on 2024-04-24,MISSED DOSE,MINOR,DOSING,TREATMENT,2024-04-24,81
GB001-2001,DV,GB001-2001-USA_SITE04-0018,7,Visit WEEK 12 occurred 2 days early (Day 83 vs planned Day 85),VISIT OCCURRED OUTSIDE VISIT WINDOW,MINOR,VISIT WINDOW,TREATMENT,2024-04-26,83
GB001-2001,DV,GB001-2001-USA_SITE04-0018,8,Missed GB001 dose on 2024-05-05,MISSED DOSE,MINOR,DOSING,TREATMENT,2024-05-05,92
GB001-2001,DV,GB001-2001-USA_SITE04-0018,9,Missed GB001 dose on 2024-05-15,MISSED DOSE,MINOR,DOSING,TREATMENT,2024-05-15,102
GB001-2001,DV,GB001-2001-USA_SITE04-0018,10,Visit WEEK 28 SAFETY FU occurred 3 days late (Day 200 vs planned Day 197),VISIT OCCURRED OUTSIDE VISIT WINDOW,MINOR,VISIT WINDOW,FOLLOW-UP,2024-08-21,200
GB001-2001,DV,GB001-2001-USA_SITE04-0020,1,Vital signs assessment not performed at RANDOMIZATION,MISSED ASSESSMENT,MINOR,ASSESSMENT,RUN_IN,2024-03-01,1
