STUDYID,DOMAIN,USUBJID,ECSEQ,ECTRT,ECMOOD,ECPRESP,ECOCCUR,ECSTAT,ECREASND,ECDOSE,ECDOSTXT,ECDOSU,ECDOSFRM,ECDOSFRQ,ECROUTE,VISITNUM,VISIT,EPOCH,ECSTDTC,ECENDTC,ECSTDY,ECENDY
GB001-2001,EC,GB001-2001-ARG_SITE01-0006,1,GB001,PERFORMED,Y,Y,,,60.0,,mg,CAPSULE,QD,ORAL,3.0,RANDOMIZATION,RUN_IN,2024-03-26,2024-03-26,1,1
GB001-2001,EC,GB001-2001-ARG_SITE01-0006,2,GB001,PERFORMED,Y,Y,,,60.0,,mg,CAPSULE,QD,ORAL,3.0,RANDOMIZATION,RUN_IN,2024-03-27,2024-03-27,2,2
GB001-2001,EC,GB001-2001-ARG_SITE01-0006,3,GB001,PERFORMED,Y,Y,,,60.0,,mg,CAPSULE,QD,ORAL,3.0,RANDOMIZATION,RUN_IN,2024-03-28,2024-03-28,3,3
GB001-2001,EC,GB001-2001-ARG_SITE01-0006,4,GB001,PERFORMED,Y,Y,,,60.0,,mg,CAPSULE,QD,ORAL,3.0,RANDOMIZATION,RUN_IN,2024-03-29,2024-03-29,4,4
GB001-2001,EC,GB001-2001-ARG_SITE01-0006,5,GB001,PERFORMED,Y,Y,,,60.0,,mg,CAPSULE,QD,ORAL,5.0,,RUN_IN,2024-03-30,2024-03-30,5,5
GB001-2001,EC,GB001-2001-ARG_SITE01-0006,6,GB001,PERFORMED,Y,Y,,,60.0,,mg,CAPSULE,QD,ORAL,6.0,,RUN_IN,2024-03-31,2024-03-31,6,6
GB001-2001,EC,GB001-2001-ARG_SITE01-0006,7,GB001,PERFORMED,Y,Y,,,60.0,,mg,CAPSULE,QD,ORAL,7.0,,RUN_IN,2024-04-01,2024-04-01,7,7
GB001-2001,EC,GB001-2001-ARG_SITE01-0006,8,GB001,PERFORMED,Y,Y,,,60.0,,mg,CAPSULE,QD,ORAL,8.0,,RUN_IN,2024-04-02,2024-04-02,8,8
GB001-2001,EC,GB001-2001-ARG_SITE01-0006,9,GB001,PERFORMED,Y,Y,,,60.0,,mg,CAPSULE,QD,ORAL,9.0,,RUN_IN,2024-04-03,2024-04-03,9,9
GB001-2001,EC,GB001-2001-ARG_SITE01-0006,10,GB001,PERFORMED,Y,Y,,,60.0,,mg,CAPSULE,QD,ORAL,10.0,,RUN_IN,2024-04-04,2024-04-04,10,10
GB001-2001,EC,GB001-2001-ARG_SITE01-0006,11,GB001,PERFORMED,Y,Y,,,60.0,,mg,CAPSULE,QD,ORAL,11.0,,RUN_IN,2024-04-05,2024-04-05,11,11
GB001-2001,EC,GB001-2001-ARG_SITE01-0006,12,GB001,PERFORMED,Y,Y,,,60.0,,mg,CAPSULE,QD,ORAL,4.0,WEEK 2,RUN_IN,2024-04-06,2024-04-06,12,12
GB001-2001,EC,GB001-2001-ARG_SITE01-0006,13,GB001,PERFORMED,Y,Y,,,60.0,,mg,CAPSULE,QD,ORAL,4.0,WEEK 2,RUN_IN,2024-04-07,2024-04-07,13,13
GB001-2001,EC,GB001-2001-ARG_SITE01-0006,14,GB001,PERFORMED,Y,Y,,,60.0,,mg,CAPSULE,QD,ORAL,4.0,WEEK 2,RUN_IN,2024-04-08,2024-04-08,14,14
GB001-2001,EC,GB001-2001-ARG_SITE01-0006,15,GB001,PERFORMED,Y,Y,,,60.0,,mg,CAPSULE,QD,ORAL,4.0,WEEK 2,RUN_IN,2024-04-09,2024-04-09,15,15
GB001-2001,EC,GB001-2001-ARG_SITE01-0006,16,GB001,PERFORMED,Y,Y,,,60.0,,mg,CAPSULE,QD,ORAL,4.0,WEEK 2,RUN_IN,2024-04-10,2024-04-10,16,16
GB001-2001,EC,GB001-2001-ARG_SITE01-0006,17,GB001,PERFORMED,Y,Y,,,60.0,,mg,CAPSULE,QD,ORAL,4.0,WEEK 2,RUN_IN,2024-04-11,2024-04-11,17,17
GB001-2001,EC,GB001-2001-ARG_SITE01-0006,18,GB001,PERFORMED,Y,Y,,,60.0,,mg,CAPSULE,QD,ORAL,4.0,WEEK 2,RUN_IN,2024-04-12,2024-04-12,18,18
GB001-2001,EC,GB001-2001-ARG_SITE01-0006,19,GB001,PERFORMED,Y,Y,,,60.0,,mg,CAPSULE,QD,ORAL,19.0,,RUN_IN,2024-04-13,2024-04-13,19,19
GB001-2001,EC,GB001-2001-ARG_SITE01-0006,20,GB001,PERFORMED,Y,Y,,,60.0,,mg,CAPSULE,QD,ORAL,20.0,,RUN_IN,2024-04-14,2024-04-14,20,20
GB001-2001,EC,GB001-2001-ARG_SITE01-0006,21,GB001,PERFORMED,Y,Y,,,60.0,,mg,CAPSULE,QD,ORAL,21.0,,RUN_IN,2024-04-15,2024-04-15,21,21
GB001-2001,EC,GB001-2001-ARG_SITE01-0006,22,GB001,PERFORMED,Y,Y,,,60.0,,mg,CAPSULE,QD,ORAL,22.0,,RUN_IN,2024-04-16,2024-04-16,22,22
GB001-2001,EC,GB001-2001-ARG_SITE01-0006,23,GB001,PERFORMED,Y,Y,,,60.0,,mg,CAPSULE,QD,ORAL,23.0,,RUN_IN,2024-04-17,2024-04-17,23,23
GB001-2001,EC,GB001-2001-ARG_SITE01-0006,24,GB001,PERFORMED,Y,Y,,,60.0,,mg,CAPSULE,QD,ORAL,24.0,,RUN_IN,2024-04-18,2024-04-18,24,24
GB001-2001,EC,GB001-2001-ARG_SITE01-0006,25,GB001,PERFORMED,Y,Y,,,60.0,,mg,CAPSULE,QD,ORAL,25.0,,RUN_IN,2024-04-19,2024-04-19,25,25
GB001-2001,EC,GB001-2001-ARG_SITE01-0006,26,GB001,PERFORMED,Y,Y,,,60.0,,mg,CAPSULE,QD,ORAL,5.0,WEEK 4,RUN_IN,2024-04-20,2024-04-20,26,26
GB001-2001,EC,GB001-2001-ARG_SITE01-0006,27,GB001,SCHEDULED,Y,,NOT DONE,SUBJECT NON-COMPLIANCE,,,mg,CAPSULE,QD,ORAL,5.0,WEEK 4,RUN_IN,2024-04-21,2024-04-21,27,27
GB001-2001,EC,GB001-2001-ARG_SITE01-0006,28,GB001,PERFORMED,Y,Y,,,60.0,,mg,CAPSULE,QD,ORAL,5.0,WEEK 4,RUN_IN,2024-04-22,2024-04-22,28,28
GB001-2001,EC,GB001-2001-ARG_SITE01-0006,29,GB001,PERFORMED,Y,Y,,,60.0,,mg,CAPSULE,QD,ORAL,5.0,WEEK 4,TREATMENT,2024-04-23,2024-04-23,29,29
GB001-2001,EC,GB001-2001-ARG_SITE01-0006,30,GB001,PERFORMED,Y,Y,,,60.0,,mg,CAPSULE,QD,ORAL,5.0,WEEK 4,TREATMENT,2024-04-24,2024-04-24,30,30
GB001-2001,EC,GB001-2001-ARG_SITE01-0006,31,GB001,PERFORMED,Y,Y,,,60.0,,mg,CAPSULE,QD,ORAL,5.0,WEEK 4,TREATMENT,2024-04-25,2024-04-25,31,31
GB001-2001,EC,GB001-2001-ARG_SITE01-0006,32,GB001,PERFORMED,Y,Y,,,60.0,,mg,CAPSULE,QD,ORAL,5.0,WEEK 4,TREATMENT,2024-04-26,2024-04-26,32,32
GB001-2001,EC,GB001-2001-ARG_SITE01-0006,33,GB001,PERFORMED,Y,Y,,,60.0,,mg,CAPSULE,QD,ORAL,33.0,,TREATMENT,2024-04-27,2024-04-27,33,33
GB001-2001,EC,GB001-2001-ARG_SITE01-0006,34,GB001,PERFORMED,Y,Y,,,60.0,,mg,CAPSULE,QD,ORAL,34.0,,TREATMENT,2024-04-28,2024-04-28,34,34
GB001-2001,EC,GB001-2001-ARG_SITE01-0006,35,GB001,PERFORMED,Y,Y,,,60.0,,mg,CAPSULE,QD,ORAL,35.0,,TREATMENT,2024-04-29,2024-04-29,35,35
GB001-2001,EC,GB001-2001-ARG_SITE01-0006,36,GB001,PERFORMED,Y,Y,,,60.0,,mg,CAPSULE,QD,ORAL,36.0,,TREATMENT,2024-04-30,2024-04-30,36,36
GB001-2001,EC,GB001-2001-ARG_SITE01-0006,37,GB001,PERFORMED,Y,Y,,,60.0,,mg,CAPSULE,QD,ORAL,37.0,,TREATMENT,2024-05-01,2024-05-01,37,37
GB001-2001,EC,GB001-2001-ARG_SITE01-0006,38,GB001,PERFORMED,Y,Y,,,60.0,,mg,CAPSULE,QD,ORAL,38.0,,TREATMENT,2024-05-02,2024-05-02,38,38
GB001-2001,EC,GB001-2001-ARG_SITE01-0006,39,GB001,PERFORMED,Y,Y,,,60.0,,mg,CAPSULE,QD,ORAL,39.0,,TREATMENT,2024-05-03,2024-05-03,39,39
GB001-2001,EC,GB001-2001-ARG_SITE01-0006,40,GB001,PERFORMED,Y,Y,,,60.0,,mg,CAPSULE,QD,ORAL,40.0,,TREATMENT,2024-05-04,2024-05-04,40,40
GB001-2001,EC,GB001-2001-ARG_SITE01-0006,41,GB001,PERFORMED,Y,Y,,,60.0,,mg,CAPSULE,QD,ORAL,41.0,,TREATMENT,2024-05-05,2024-05-05,41,41
GB001-2001,EC,GB001-2001-ARG_SITE01-0006,42,GB001,PERFORMED,Y,Y,,,60.0,,mg,CAPSULE,QD,ORAL,42.0,,TREATMENT,2024-05-06,2024-05-06,42,42
GB001-2001,EC,GB001-2001-ARG_SITE01-0006,43,GB001,PERFORMED,Y,Y,,,60.0,,mg,CAPSULE,QD,ORAL,43.0,,TREATMENT,2024-05-07,2024-05-07,43,43
GB001-2001,EC,GB001-2001-ARG_SITE01-0006,44,GB001,PERFORMED,Y,Y,,,60.0,,mg,CAPSULE,QD,ORAL,44.0,,TREATMENT,2024-05-08,2024-05-08,44,44
GB001-2001,EC,GB001-2001-ARG_SITE01-0006,45,GB001,SCHEDULED,Y,,NOT DONE,SUBJECT NON-COMPLIANCE,,,mg,CAPSULE,QD,ORAL,45.0,,TREATMENT,2024-05-09,2024-05-09,45,45
GB001-2001,EC,GB001-2001-ARG_SITE01-0006,46,GB001,PERFORMED,Y,Y,,,60.0,,mg,CAPSULE,QD,ORAL,46.0,,TREATMENT,2024-05-10,2024-05-10,46,46
GB001-2001,EC,GB001-2001-ARG_SITE01-0006,47,GB001,PERFORMED,Y,Y,,,60.0,,mg,CAPSULE,QD,ORAL,47.0,,TREATMENT,2024-05-11,2024-05-11,47,47
GB001-2001,EC,GB001-2001-ARG_SITE01-0006,48,GB001,PERFORMED,Y,Y,,,60.0,,mg,CAPSULE,QD,ORAL,48.0,,TREATMENT,2024-05-12,2024-05-12,48,48
GB001-2001,EC,GB001-2001-ARG_SITE01-0006,49,GB001,PERFORMED,Y,Y,,,60.0,,mg,CAPSULE,QD,ORAL,49.0,,TREATMENT,2024-05-13,2024-05-13,49,49
GB001-2001,EC,GB001-2001-ARG_SITE01-0006,50,GB001,PERFORMED,Y,Y,,,60.0,,mg,CAPSULE,QD,ORAL,50.0,,TREATMENT,2024-05-14,2024-05-14,50,50
GB001-2001,EC,GB001-2001-ARG_SITE01-0006,51,GB001,PERFORMED,Y,Y,,,60.0,,mg,CAPSULE,QD,ORAL,51.0,,TREATMENT,2024-05-15,2024-05-15,51,51
GB001-2001,EC,GB001-2001-ARG_SITE01-0006,52,GB001,PERFORMED,Y,Y,,,60.0,,mg,CAPSULE,QD,ORAL,52.0,,TREATMENT,2024-05-16,2024-05-16,52,52
GB001-2001,EC,GB001-2001-ARG_SITE01-0006,53,GB001,PERFORMED,Y,Y,,,60.0,,mg,CAPSULE,QD,ORAL,53.0,,TREATMENT,2024-05-17,2024-05-17,53,53
GB001-2001,EC,GB001-2001-ARG_SITE01-0006,54,GB001,PERFORMED,Y,Y,,,60.0,,mg,CAPSULE,QD,ORAL,6.0,WEEK 8,TREATMENT,2024-05-18,2024-05-18,54,54
GB001-2001,EC,GB001-2001-ARG_SITE01-0006,55,GB001,PERFORMED,Y,Y,,,60.0,,mg,CAPSULE,QD,ORAL,6.0,WEEK 8,TREATMENT,2024-05-19,2024-05-19,55,55
GB001-2001,EC,GB001-2001-ARG_SITE01-0006,56,GB001,PERFORMED,Y,Y,,,60.0,,mg,CAPSULE,QD,ORAL,6.0,WEEK 8,TREATMENT,2024-05-20,2024-05-20,56,56
GB001-2001,EC,GB001-2001-ARG_SITE01-0006,57,GB001,PERFORMED,Y,Y,,,60.0,,mg,CAPSULE,QD,ORAL,6.0,WEEK 8,TREATMENT,2024-05-21,2024-05-21,57,57
GB001-2001,EC,GB001-2001-ARG_SITE01-0006,58,GB001,PERFORMED,Y,Y,,,60.0,,mg,CAPSULE,QD,ORAL,6.0,WEEK 8,TREATMENT,2024-05-22,2024-05-22,58,58
GB001-2001,EC,GB001-2001-ARG_SITE01-0006,59,GB001,PERFORMED,Y,Y,,,60.0,,mg,CAPSULE,QD,ORAL,6.0,WEEK 8,TREATMENT,2024-05-23,2024-05-23,59,59
GB001-2001,EC,GB001-2001-ARG_SITE01-0006,60,GB001,PERFORMED,Y,Y,,,60.0,,mg,CAPSULE,QD,ORAL,6.0,WEEK 8,TREATMENT,2024-05-24,2024-05-24,60,60
GB001-2001,EC,GB001-2001-ARG_SITE01-0006,61,GB001,PERFORMED,Y,Y,,,60.0,,mg,CAPSULE,QD,ORAL,61.0,,TREATMENT,2024-05-25,2024-05-25,61,61
GB001-2001,EC,GB001-2001-ARG_SITE01-0006,62,GB001,PERFORMED,Y,Y,,,60.0,,mg,CAPSULE,QD,ORAL,62.0,,TREATMENT,2024-05-26,2024-05-26,62,62
GB001-2001,EC,GB001-2001-ARG_SITE01-0006,63,GB001,PERFORMED,Y,Y,,,60.0,,mg,CAPSULE,QD,ORAL,63.0,,TREATMENT,2024-05-27,2024-05-27,63,63
GB001-2001,EC,GB001-2001-ARG_SITE01-0006,64,GB001,PERFORMED,Y,Y,,,60.0,,mg,CAPSULE,QD,ORAL,64.0,,TREATMENT,2024-05-28,2024-05-28,64,64
GB001-2001,EC,GB001-2001-ARG_SITE01-0006,65,GB001,SCHEDULED,Y,,NOT DONE,SUBJECT NON-COMPLIANCE,,,mg,CAPSULE,QD,ORAL,65.0,,TREATMENT,2024-05-29,2024-05-29,65,65
GB001-2001,EC,GB001-2001-ARG_SITE01-0006,66,GB001,PERFORMED,Y,Y,,,60.0,,mg,CAPSULE,QD,ORAL,66.0,,TREATMENT,2024-05-30,2024-05-30,66,66
GB001-2001,EC,GB001-2001-ARG_SITE01-0006,67,GB001,PERFORMED,Y,Y,,,60.0,,mg,CAPSULE,QD,ORAL,67.0,,TREATMENT,2024-05-31,2024-05-31,67,67
GB001-2001,EC,GB001-2001-ARG_SITE01-0006,68,GB001,PERFORMED,Y,Y,,,60.0,,mg,CAPSULE,QD,ORAL,68.0,,TREATMENT,2024-06-01,2024-06-01,68,68
GB001-2001,EC,GB001-2001-ARG_SITE01-0006,69,GB001,PERFORMED,Y,Y,,,60.0,,mg,CAPSULE,QD,ORAL,69.0,,TREATMENT,2024-06-02,2024-06-02,69,69
GB001-2001,EC,GB001-2001-ARG_SITE01-0006,70,GB001,PERFORMED,Y,Y,,,60.0,,mg,CAPSULE,QD,ORAL,70.0,,TREATMENT,2024-06-03,2024-06-03,70,70
GB001-2001,EC,GB001-2001-ARG_SITE01-0006,71,GB001,PERFORMED,Y,Y,,,60.0,,mg,CAPSULE,QD,ORAL,71.0,,TREATMENT,2024-06-04,2024-06-04,71,71
GB001-2001,EC,GB001-2001-ARG_SITE01-0006,72,GB001,PERFORMED,Y,Y,,,60.0,,mg,CAPSULE,QD,ORAL,72.0,,TREATMENT,2024-06-05,2024-06-05,72,72
GB001-2001,EC,GB001-2001-ARG_SITE01-0006,73,GB001,PERFORMED,Y,Y,,,60.0,,mg,CAPSULE,QD,ORAL,73.0,,TREATMENT,2024-06-06,2024-06-06,73,73
GB001-2001,EC,GB001-2001-ARG_SITE01-0006,74,GB001,PERFORMED,Y,Y,,,60.0,,mg,CAPSULE,QD,ORAL,74.0,,TREATMENT,2024-06-07,2024-06-07,74,74
GB001-2001,EC,GB001-2001-ARG_SITE01-0006,75,GB001,PERFORMED,Y,Y,,,60.0,,mg,CAPSULE,QD,ORAL,75.0,,TREATMENT,2024-06-08,2024-06-08,75,75
GB001-2001,EC,GB001-2001-ARG_SITE01-0006,76,GB001,PERFORMED,Y,Y,,,60.0,,mg,CAPSULE,QD,ORAL,76.0,,TREATMENT,2024-06-09,2024-06-09,76,76
GB001-2001,EC,GB001-2001-ARG_SITE01-0006,77,GB001,PERFORMED,Y,Y,,,60.0,,mg,CAPSULE,QD,ORAL,77.0,,TREATMENT,2024-06-10,2024-06-10,77,77
GB001-2001,EC,GB001-2001-ARG_SITE01-0006,78,GB001,PERFORMED,Y,Y,,,60.0,,mg,CAPSULE,QD,ORAL,78.0,,TREATMENT,2024-06-11,2024-06-11,78,78
GB001-2001,EC,GB001-2001-ARG_SITE01-0006,79,GB001,PERFORMED,Y,Y,,,60.0,,mg,CAPSULE,QD,ORAL,79.0,,TREATMENT,2024-06-12,2024-06-12,79,79
GB001-2001,EC,GB001-2001-ARG_SITE01-0006,80,GB001,PERFORMED,Y,Y,,,60.0,,mg,CAPSULE,QD,ORAL,80.0,,TREATMENT,2024-06-13,2024-06-13,80,80
GB001-2001,EC,GB001-2001-ARG_SITE01-0006,81,GB001,PERFORMED,Y,Y,,,60.0,,mg,CAPSULE,QD,ORAL,81.0,,TREATMENT,2024-06-14,2024-06-14,81,81
GB001-2001,EC,GB001-2001-ARG_SITE01-0006,82,GB001,PERFORMED,Y,Y,,,60.0,,mg,CAPSULE,QD,ORAL,7.0,WEEK 12,TREATMENT,2024-06-15,2024-06-15,82,82
GB001-2001,EC,GB001-2001-ARG_SITE01-0006,83,GB001,PERFORMED,Y,Y,,,60.0,,mg,CAPSULE,QD,ORAL,7.0,WEEK 12,TREATMENT,2024-06-16,2024-06-16,83,83
GB001-2001,EC,GB001-2001-ARG_SITE01-0006,84,GB001,PERFORMED,Y,Y,,,60.0,,mg,CAPSULE,QD,ORAL,7.0,WEEK 12,TREATMENT,2024-06-17,2024-06-17,84,84
GB001-2001,EC,GB001-2001-ARG_SITE01-0006,85,GB001,PERFORMED,Y,Y,,,60.0,,mg,CAPSULE,QD,ORAL,7.0,WEEK 12,TREATMENT,2024-06-18,2024-06-18,85,85
GB001-2001,EC,GB001-2001-ARG_SITE01-0006,86,GB001,PERFORMED,Y,Y,,,60.0,,mg,CAPSULE,QD,ORAL,7.0,WEEK 12,TREATMENT,2024-06-19,2024-06-19,86,86
GB001-2001,EC,GB001-2001-ARG_SITE01-0006,87,GB001,PERFORMED,Y,Y,,,60.0,,mg,CAPSULE,QD,ORAL,7.0,WEEK 12,TREATMENT,2024-06-20,2024-06-20,87,87
GB001-2001,EC,GB001-2001-ARG_SITE01-0006,88,GB001,PERFORMED,Y,Y,,,60.0,,mg,CAPSULE,QD,ORAL,7.0,WEEK 12,TREATMENT,2024-06-21,2024-06-21,88,88
GB001-2001,EC,GB001-2001-ARG_SITE01-0006,89,GB001,PERFORMED,Y,Y,,,60.0,,mg,CAPSULE,QD,ORAL,89.0,,TREATMENT,2024-06-22,2024-06-22,89,89
GB001-2001,EC,GB001-2001-ARG_SITE01-0006,90,GB001,PERFORMED,Y,Y,,,60.0,,mg,CAPSULE,QD,ORAL,90.0,,TREATMENT,2024-06-23,2024-06-23,90,90
GB001-2001,EC,GB001-2001-ARG_SITE01-0006,91,GB001,PERFORMED,Y,Y,,,60.0,,mg,CAPSULE,QD,ORAL,91.0,,TREATMENT,2024-06-24,2024-06-24,91,91
GB001-2001,EC,GB001-2001-ARG_SITE01-0006,92,GB001,PERFORMED,Y,Y,,,60.0,,mg,CAPSULE,QD,ORAL,92.0,,TREATMENT,2024-06-25,2024-06-25,92,92
GB001-2001,EC,GB001-2001-ARG_SITE01-0006,93,GB001,PERFORMED,Y,Y,,,60.0,,mg,CAPSULE,QD,ORAL,93.0,,TREATMENT,2024-06-26,2024-06-26,93,93
GB001-2001,EC,GB001-2001-ARG_SITE01-0006,94,GB001,PERFORMED,Y,Y,,,60.0,,mg,CAPSULE,QD,ORAL,94.0,,TREATMENT,2024-06-27,2024-06-27,94,94
GB001-2001,EC,GB001-2001-ARG_SITE01-0006,95,GB001,PERFORMED,Y,Y,,,60.0,,mg,CAPSULE,QD,ORAL,95.0,,TREATMENT,2024-06-28,2024-06-28,95,95
GB001-2001,EC,GB001-2001-ARG_SITE01-0006,96,GB001,PERFORMED,Y,Y,,,60.0,,mg,CAPSULE,QD,ORAL,96.0,,TREATMENT,2024-06-29,2024-06-29,96,96
GB001-2001,EC,GB001-2001-ARG_SITE01-0006,97,GB001,PERFORMED,Y,Y,,,60.0,,mg,CAPSULE,QD,ORAL,97.0,,TREATMENT,2024-06-30,2024-06-30,97,97
GB001-2001,EC,GB001-2001-ARG_SITE01-0006,98,GB001,PERFORMED,Y,Y,,,60.0,,mg,CAPSULE,QD,ORAL,98.0,,TREATMENT,2024-07-01,2024-07-01,98,98
GB001-2001,EC,GB001-2001-ARG_SITE01-0006,99,GB001,PERFORMED,Y,Y,,,60.0,,mg,CAPSULE,QD,ORAL,99.0,,TREATMENT,2024-07-02,2024-07-02,99,99
GB001-2001,EC,GB001-2001-ARG_SITE01-0006,100,GB001,PERFORMED,Y,Y,,,60.0,,mg,CAPSULE,QD,ORAL,100.0,,TREATMENT,2024-07-03,2024-07-03,100,100
GB001-2001,EC,GB001-2001-ARG_SITE01-0006,101,GB001,PERFORMED,Y,Y,,,60.0,,mg,CAPSULE,QD,ORAL,101.0,,TREATMENT,2024-07-04,2024-07-04,101,101
GB001-2001,EC,GB001-2001-ARG_SITE01-0006,102,GB001,PERFORMED,Y,Y,,,60.0,,mg,CAPSULE,QD,ORAL,102.0,,TREATMENT,2024-07-05,2024-07-05,102,102
GB001-2001,EC,GB001-2001-ARG_SITE01-0006,103,GB001,PERFORMED,Y,Y,,,60.0,,mg,CAPSULE,QD,ORAL,103.0,,TREATMENT,2024-07-06,2024-07-06,103,103
GB001-2001,EC,GB001-2001-ARG_SITE01-0006,104,GB001,PERFORMED,Y,Y,,,60.0,,mg,CAPSULE,QD,ORAL,104.0,,TREATMENT,2024-07-07,2024-07-07,104,104
GB001-2001,EC,GB001-2001-ARG_SITE01-0006,105,GB001,PERFORMED,Y,Y,,,60.0,,mg,CAPSULE,QD,ORAL,105.0,,TREATMENT,2024-07-08,2024-07-08,105,105
GB001-2001,EC,GB001-2001-ARG_SITE01-0006,106,GB001,PERFORMED,Y,Y,,,60.0,,mg,CAPSULE,QD,ORAL,106.0,,TREATMENT,2024-07-09,2024-07-09,106,106
GB001-2001,EC,GB001-2001-ARG_SITE01-0006,107,GB001,PERFORMED,Y,Y,,,60.0,,mg,CAPSULE,QD,ORAL,107.0,,TREATMENT,2024-07-10,2024-07-10,107,107
GB001-2001,EC,GB001-2001-ARG_SITE01-0006,108,GB001,PERFORMED,Y,Y,,,60.0,,mg,CAPSULE,QD,ORAL,108.0,,TREATMENT,2024-07-11,2024-07-11,108,108
GB001-2001,EC,GB001-2001-ARG_SITE01-0006,109,GB001,PERFORMED,Y,Y,,,60.0,,mg,CAPSULE,QD,ORAL,109.0,,TREATMENT,2024-07-12,2024-07-12,109,109
GB001-2001,EC,GB001-2001-ARG_SITE01-0006,110,GB001,PERFORMED,Y,Y,,,60.0,,mg,CAPSULE,QD,ORAL,8.0,WEEK 16,TREATMENT,2024-07-13,2024-07-13,110,110
GB001-2001,EC,GB001-2001-ARG_SITE01-0006,111,GB001,PERFORMED,Y,Y,,,60.0,,mg,CAPSULE,QD,ORAL,8.0,WEEK 16,TREATMENT,2024-07-14,2024-07-14,111,111
GB001-2001,EC,GB001-2001-ARG_SITE01-0006,112,GB001,PERFORMED,Y,Y,,,60.0,,mg,CAPSULE,QD,ORAL,8.0,WEEK 16,TREATMENT,2024-07-15,2024-07-15,112,112
GB001-2001,EC,GB001-2001-ARG_SITE01-0006,113,GB001,PERFORMED,Y,Y,,,60.0,,mg,CAPSULE,QD,ORAL,8.0,WEEK 16,TREATMENT,2024-07-16,2024-07-16,113,113
GB001-2001,EC,GB001-2001-ARG_SITE01-0006,114,GB001,SCHEDULED,Y,,NOT DONE,SUBJECT NON-COMPLIANCE,,,mg,CAPSULE,QD,ORAL,8.0,WEEK 16,TREATMENT,2024-07-17,2024-07-17,114,114
GB001-2001,EC,GB001-2001-ARG_SITE01-0006,115,GB001,PERFORMED,Y,Y,,,60.0,,mg,CAPSULE,QD,ORAL,8.0,WEEK 16,TREATMENT,2024-07-18,2024-07-18,115,115
GB001-2001,EC,GB001-2001-ARG_SITE01-0006,116,GB001,PERFORMED,Y,Y,,,60.0,,mg,CAPSULE,QD,ORAL,8.0,WEEK 16,TREATMENT,2024-07-19,2024-07-19,116,116
GB001-2001,EC,GB001-2001-ARG_SITE01-0006,117,GB001,PERFORMED,Y,Y,,,60.0,,mg,CAPSULE,QD,ORAL,117.0,,TREATMENT,2024-07-20,2024-07-20,117,117
GB001-2001,EC,GB001-2001-ARG_SITE01-0006,118,GB001,PERFORMED,Y,Y,,,60.0,,mg,CAPSULE,QD,ORAL,118.0,,TREATMENT,2024-07-21,2024-07-21,118,118
GB001-2001,EC,GB001-2001-ARG_SITE01-0006,119,GB001,PERFORMED,Y,Y,,,60.0,,mg,CAPSULE,QD,ORAL,119.0,,TREATMENT,2024-07-22,2024-07-22,119,119
GB001-2001,EC,GB001-2001-ARG_SITE01-0006,120,GB001,SCHEDULED,Y,,NOT DONE,SUBJECT NON-COMPLIANCE,,,mg,CAPSULE,QD,ORAL,120.0,,TREATMENT,2024-07-23,2024-07-23,120,120
GB001-2001,EC,GB001-2001-ARG_SITE01-0006,121,GB001,PERFORMED,Y,Y,,,60.0,,mg,CAPSULE,QD,ORAL,121.0,,TREATMENT,2024-07-24,2024-07-24,121,121
GB001-2001,EC,GB001-2001-ARG_SITE01-0006,122,GB001,PERFORMED,Y,Y,,,60.0,,mg,CAPSULE,QD,ORAL,122.0,,TREATMENT,2024-07-25,2024-07-25,122,122
GB001-2001,EC,GB001-2001-ARG_SITE01-0006,123,GB001,PERFORMED,Y,Y,,,60.0,,mg,CAPSULE,QD,ORAL,123.0,,TREATMENT,2024-07-26,2024-07-26,123,123
GB001-2001,EC,GB001-2001-ARG_SITE01-0006,124,GB001,PERFORMED,Y,Y,,,60.0,,mg,CAPSULE,QD,ORAL,124.0,,TREATMENT,2024-07-27,2024-07-27,124,124
GB001-2001,EC,GB001-2001-ARG_SITE01-0006,125,GB001,PERFORMED,Y,Y,,,60.0,,mg,CAPSULE,QD,ORAL,125.0,,TREATMENT,2024-07-28,2024-07-28,125,125
GB001-2001,EC,GB001-2001-ARG_SITE01-0006,126,GB001,PERFORMED,Y,Y,,,60.0,,mg,CAPSULE,QD,ORAL,126.0,,TREATMENT,2024-07-29,2024-07-29,126,126
GB001-2001,EC,GB001-2001-ARG_SITE01-0006,127,GB001,PERFORMED,Y,Y,,,60.0,,mg,CAPSULE,QD,ORAL,127.0,,TREATMENT,2024-07-30,2024-07-30,127,127
GB001-2001,EC,GB001-2001-ARG_SITE01-0006,128,GB001,PERFORMED,Y,Y,,,60.0,,mg,CAPSULE,QD,ORAL,128.0,,TREATMENT,2024-07-31,2024-07-31,128,128
GB001-2001,EC,GB001-2001-ARG_SITE01-0006,129,GB001,PERFORMED,Y,Y,,,60.0,,mg,CAPSULE,QD,ORAL,129.0,,TREATMENT,2024-08-01,2024-08-01,129,129
GB001-2001,EC,GB001-2001-ARG_SITE01-0006,130,GB001,PERFORMED,Y,Y,,,60.0,,mg,CAPSULE,QD,ORAL,130.0,,TREATMENT,2024-08-02,2024-08-02,130,130
GB001-2001,EC,GB001-2001-ARG_SITE01-0006,131,GB001,PERFORMED,Y,Y,,,60.0,,mg,CAPSULE,QD,ORAL,131.0,,TREATMENT,2024-08-03,2024-08-03,131,131
GB001-2001,EC,GB001-2001-ARG_SITE01-0006,132,GB001,PERFORMED,Y,Y,,,60.0,,mg,CAPSULE,QD,ORAL,132.0,,TREATMENT,2024-08-04,2024-08-04,132,132
GB001-2001,EC,GB001-2001-ARG_SITE01-0006,133,GB001,PERFORMED,Y,Y,,,60.0,,mg,CAPSULE,QD,ORAL,133.0,,TREATMENT,2024-08-05,2024-08-05,133,133
GB001-2001,EC,GB001-2001-ARG_SITE01-0006,134,GB001,PERFORMED,Y,Y,,,60.0,,mg,CAPSULE,QD,ORAL,134.0,,TREATMENT,2024-08-06,2024-08-06,134,134
GB001-2001,EC,GB001-2001-ARG_SITE01-0006,135,GB001,PERFORMED,Y,Y,,,60.0,,mg,CAPSULE,QD,ORAL,135.0,,TREATMENT,2024-08-07,2024-08-07,135,135
GB001-2001,EC,GB001-2001-ARG_SITE01-0006,136,GB001,SCHEDULED,Y,,NOT DONE,SUBJECT NON-COMPLIANCE,,,mg,CAPSULE,QD,ORAL,136.0,,TREATMENT,2024-08-08,2024-08-08,136,136
GB001-2001,EC,GB001-2001-ARG_SITE01-0006,137,GB001,PERFORMED,Y,Y,,,60.0,,mg,CAPSULE,QD,ORAL,137.0,,TREATMENT,2024-08-09,2024-08-09,137,137
GB001-2001,EC,GB001-2001-ARG_SITE01-0006,138,GB001,PERFORMED,Y,Y,,,60.0,,mg,CAPSULE,QD,ORAL,9.0,WEEK 20,TREATMENT,2024-08-10,2024-08-10,138,138
GB001-2001,EC,GB001-2001-ARG_SITE01-0006,139,GB001,PERFORMED,Y,Y,,,60.0,,mg,CAPSULE,QD,ORAL,9.0,WEEK 20,TREATMENT,2024-08-11,2024-08-11,139,139
GB001-2001,EC,GB001-2001-ARG_SITE01-0006,140,GB001,PERFORMED,Y,Y,,,60.0,,mg,CAPSULE,QD,ORAL,9.0,WEEK 20,TREATMENT,2024-08-12,2024-08-12,140,140
GB001-2001,EC,GB001-2001-ARG_SITE01-0006,141,GB001,SCHEDULED,Y,,NOT DONE,SUBJECT NON-COMPLIANCE,,,mg,CAPSULE,QD,ORAL,9.0,WEEK 20,TREATMENT,2024-08-13,2024-08-13,141,141
GB001-2001,EC,GB001-2001-ARG_SITE01-0006,142,GB001,PERFORMED,Y,Y,,,60.0,,mg,CAPSULE,QD,ORAL,9.0,WEEK 20,TREATMENT,2024-08-14,2024-08-14,142,142
GB001-2001,EC,GB001-2001-ARG_SITE01-0006,143,GB001,PERFORMED,Y,Y,,,60.0,,mg,CAPSULE,QD,ORAL,9.0,WEEK 20,TREATMENT,2024-08-15,2024-08-15,143,143
GB001-2001,EC,GB001-2001-ARG_SITE01-0006,144,GB001,PERFORMED,Y,Y,,,60.0,,mg,CAPSULE,QD,ORAL,9.0,WEEK 20,TREATMENT,2024-08-16,2024-08-16,144,144
GB001-2001,EC,GB001-2001-ARG_SITE01-0006,145,GB001,PERFORMED,Y,Y,,,60.0,,mg,CAPSULE,QD,ORAL,145.0,,TREATMENT,2024-08-17,2024-08-17,145,145
GB001-2001,EC,GB001-2001-ARG_SITE01-0006,146,GB001,PERFORMED,Y,Y,,,60.0,,mg,CAPSULE,QD,ORAL,146.0,,TREATMENT,2024-08-18,2024-08-18,146,146
GB001-2001,EC,GB001-2001-ARG_SITE01-0006,147,GB001,PERFORMED,Y,Y,,,60.0,,mg,CAPSULE,QD,ORAL,147.0,,TREATMENT,2024-08-19,2024-08-19,147,147
GB001-2001,EC,GB001-2001-CAN_SITE01-0008,1,GB001,PERFORMED,Y,Y,,,20.0,,mg,CAPSULE,QD,ORAL,3.0,RANDOMIZATION,RUN_IN,2024-05-06,2024-05-06,1,1
GB001-2001,EC,GB001-2001-CAN_SITE01-0008,2,GB001,PERFORMED,Y,Y,,,20.0,,mg,CAPSULE,QD,ORAL,3.0,RANDOMIZATION,RUN_IN,2024-05-07,2024-05-07,2,2
GB001-2001,EC,GB001-2001-CAN_SITE01-0008,3,GB001,PERFORMED,Y,Y,,,20.0,,mg,CAPSULE,QD,ORAL,3.0,RANDOMIZATION,RUN_IN,2024-05-08,2024-05-08,3,3
GB001-2001,EC,GB001-2001-CAN_SITE01-0008,4,GB001,PERFORMED,Y,Y,,,20.0,,mg,CAPSULE,QD,ORAL,3.0,RANDOMIZATION,RUN_IN,2024-05-09,2024-05-09,4,4
GB001-2001,EC,GB001-2001-CAN_SITE01-0008,5,GB001,PERFORMED,Y,Y,,,20.0,,mg,CAPSULE,QD,ORAL,5.0,,RUN_IN,2024-05-10,2024-05-10,5,5
GB001-2001,EC,GB001-2001-CAN_SITE01-0008,6,GB001,PERFORMED,Y,Y,,,20.0,,mg,CAPSULE,QD,ORAL,6.0,,RUN_IN,2024-05-11,2024-05-11,6,6
GB001-2001,EC,GB001-2001-CAN_SITE01-0008,7,GB001,PERFORMED,Y,Y,,,20.0,,mg,CAPSULE,QD,ORAL,7.0,,RUN_IN,2024-05-12,2024-05-12,7,7
GB001-2001,EC,GB001-2001-CAN_SITE01-0008,8,GB001,SCHEDULED,Y,,NOT DONE,SUBJECT NON-COMPLIANCE,,,mg,CAPSULE,QD,ORAL,8.0,,RUN_IN,2024-05-13,2024-05-13,8,8
GB001-2001,EC,GB001-2001-CAN_SITE01-0008,9,GB001,PERFORMED,Y,Y,,,20.0,,mg,CAPSULE,QD,ORAL,9.0,,RUN_IN,2024-05-14,2024-05-14,9,9
GB001-2001,EC,GB001-2001-CAN_SITE01-0008,10,GB001,PERFORMED,Y,Y,,,20.0,,mg,CAPSULE,QD,ORAL,10.0,,RUN_IN,2024-05-15,2024-05-15,10,10
GB001-2001,EC,GB001-2001-CAN_SITE01-0008,11,GB001,PERFORMED,Y,Y,,,20.0,,mg,CAPSULE,QD,ORAL,11.0,,RUN_IN,2024-05-16,2024-05-16,11,11
GB001-2001,EC,GB001-2001-CAN_SITE01-0008,12,GB001,PERFORMED,Y,Y,,,20.0,,mg,CAPSULE,QD,ORAL,4.0,WEEK 2,RUN_IN,2024-05-17,2024-05-17,12,12
GB001-2001,EC,GB001-2001-CAN_SITE01-0008,13,GB001,PERFORMED,Y,Y,,,20.0,,mg,CAPSULE,QD,ORAL,4.0,WEEK 2,RUN_IN,2024-05-18,2024-05-18,13,13
GB001-2001,EC,GB001-2001-CAN_SITE01-0008,14,GB001,PERFORMED,Y,Y,,,20.0,,mg,CAPSULE,QD,ORAL,4.0,WEEK 2,RUN_IN,2024-05-19,2024-05-19,14,14
GB001-2001,EC,GB001-2001-CAN_SITE01-0008,15,GB001,PERFORMED,Y,Y,,,20.0,,mg,CAPSULE,QD,ORAL,4.0,WEEK 2,RUN_IN,2024-05-20,2024-05-20,15,15
GB001-2001,EC,GB001-2001-CAN_SITE01-0008,16,GB001,PERFORMED,Y,Y,,,20.0,,mg,CAPSULE,QD,ORAL,4.0,WEEK 2,RUN_IN,2024-05-21,2024-05-21,16,16
GB001-2001,EC,GB001-2001-CAN_SITE01-0008,17,GB001,PERFORMED,Y,Y,,,20.0,,mg,CAPSULE,QD,ORAL,4.0,WEEK 2,RUN_IN,2024-05-22,2024-05-22,17,17
GB001-2001,EC,GB001-2001-CAN_SITE01-0008,18,GB001,PERFORMED,Y,Y,,,20.0,,mg,CAPSULE,QD,ORAL,4.0,WEEK 2,RUN_IN,2024-05-23,2024-05-23,18,18
GB001-2001,EC,GB001-2001-CAN_SITE01-0008,19,GB001,PERFORMED,Y,Y,,,20.0,,mg,CAPSULE,QD,ORAL,19.0,,RUN_IN,2024-05-24,2024-05-24,19,19
GB001-2001,EC,GB001-2001-CAN_SITE01-0008,20,GB001,SCHEDULED,Y,,NOT DONE,SUBJECT NON-COMPLIANCE,,,mg,CAPSULE,QD,ORAL,20.0,,RUN_IN,2024-05-25,2024-05-25,20,20
GB001-2001,EC,GB001-2001-CAN_SITE01-0008,21,GB001,PERFORMED,Y,Y,,,20.0,,mg,CAPSULE,QD,ORAL,21.0,,RUN_IN,2024-05-26,2024-05-26,21,21
GB001-2001,EC,GB001-2001-CAN_SITE01-0008,22,GB001,PERFORMED,Y,Y,,,20.0,,mg,CAPSULE,QD,ORAL,22.0,,RUN_IN,2024-05-27,2024-05-27,22,22
GB001-2001,EC,GB001-2001-CAN_SITE01-0008,23,GB001,PERFORMED,Y,Y,,,20.0,,mg,CAPSULE,QD,ORAL,23.0,,RUN_IN,2024-05-28,2024-05-28,23,23
GB001-2001,EC,GB001-2001-CAN_SITE01-0008,24,GB001,PERFORMED,Y,Y,,,20.0,,mg,CAPSULE,QD,ORAL,24.0,,RUN_IN,2024-05-29,2024-05-29,24,24
GB001-2001,EC,GB001-2001-CAN_SITE01-0008,25,GB001,PERFORMED,Y,Y,,,20.0,,mg,CAPSULE,QD,ORAL,25.0,,RUN_IN,2024-05-30,2024-05-30,25,25
GB001-2001,EC,GB001-2001-CAN_SITE01-0008,26,GB001,PERFORMED,Y,Y,,,20.0,,mg,CAPSULE,QD,ORAL,5.0,WEEK 4,RUN_IN,2024-05-31,2024-05-31,26,26
GB001-2001,EC,GB001-2001-CAN_SITE01-0008,27,GB001,PERFORMED,Y,Y,,,20.0,,mg,CAPSULE,QD,ORAL,5.0,WEEK 4,RUN_IN,2024-06-01,2024-06-01,27,27
GB001-2001,EC,GB001-2001-CAN_SITE01-0008,28,GB001,PERFORMED,Y,Y,,,20.0,,mg,CAPSULE,QD,ORAL,5.0,WEEK 4,RUN_IN,2024-06-02,2024-06-02,28,28
GB001-2001,EC,GB001-2001-CAN_SITE01-0008,29,GB001,PERFORMED,Y,Y,,,20.0,,mg,CAPSULE,QD,ORAL,5.0,WEEK 4,TREATMENT,2024-06-03,2024-06-03,29,29
GB001-2001,EC,GB001-2001-CAN_SITE01-0008,30,GB001,PERFORMED,Y,Y,,,20.0,,mg,CAPSULE,QD,ORAL,5.0,WEEK 4,TREATMENT,2024-06-04,2024-06-04,30,30
GB001-2001,EC,GB001-2001-CAN_SITE01-0008,31,GB001,PERFORMED,Y,Y,,,20.0,,mg,CAPSULE,QD,ORAL,5.0,WEEK 4,TREATMENT,2024-06-05,2024-06-05,31,31
GB001-2001,EC,GB001-2001-CAN_SITE01-0008,32,GB001,PERFORMED,Y,Y,,,20.0,,mg,CAPSULE,QD,ORAL,5.0,WEEK 4,TREATMENT,2024-06-06,2024-06-06,32,32
GB001-2001,EC,GB001-2001-CAN_SITE01-0008,33,GB001,PERFORMED,Y,Y,,,20.0,,mg,CAPSULE,QD,ORAL,33.0,,TREATMENT,2024-06-07,2024-06-07,33,33
GB001-2001,EC,GB001-2001-CAN_SITE01-0008,34,GB001,PERFORMED,Y,Y,,,20.0,,mg,CAPSULE,QD,ORAL,34.0,,TREATMENT,2024-06-08,2024-06-08,34,34
GB001-2001,EC,GB001-2001-CAN_SITE01-0008,35,GB001,PERFORMED,Y,Y,,,20.0,,mg,CAPSULE,QD,ORAL,35.0,,TREATMENT,2024-06-09,2024-06-09,35,35
GB001-2001,EC,GB001-2001-CAN_SITE01-0008,36,GB001,PERFORMED,Y,Y,,,20.0,,mg,CAPSULE,QD,ORAL,36.0,,TREATMENT,2024-06-10,2024-06-10,36,36
GB001-2001,EC,GB001-2001-CAN_SITE01-0008,37,GB001,PERFORMED,Y,Y,,,20.0,,mg,CAPSULE,QD,ORAL,37.0,,TREATMENT,2024-06-11,2024-06-11,37,37
GB001-2001,EC,GB001-2001-CAN_SITE01-0008,38,GB001,PERFORMED,Y,Y,,,20.0,,mg,CAPSULE,QD,ORAL,38.0,,TREATMENT,2024-06-12,2024-06-12,38,38
GB001-2001,EC,GB001-2001-CAN_SITE01-0008,39,GB001,PERFORMED,Y,Y,,,20.0,,mg,CAPSULE,QD,ORAL,39.0,,TREATMENT,2024-06-13,2024-06-13,39,39
GB001-2001,EC,GB001-2001-CAN_SITE01-0008,40,GB001,PERFORMED,Y,Y,,,20.0,,mg,CAPSULE,QD,ORAL,40.0,,TREATMENT,2024-06-14,2024-06-14,40,40
GB001-2001,EC,GB001-2001-CAN_SITE01-0008,41,GB001,PERFORMED,Y,Y,,,20.0,,mg,CAPSULE,QD,ORAL,41.0,,TREATMENT,2024-06-15,2024-06-15,41,41
GB001-2001,EC,GB001-2001-CAN_SITE01-0008,42,GB001,PERFORMED,Y,Y,,,20.0,,mg,CAPSULE,QD,ORAL,42.0,,TREATMENT,2024-06-16,2024-06-16,42,42
GB001-2001,EC,GB001-2001-CAN_SITE01-0008,43,GB001,PERFORMED,Y,Y,,,20.0,,mg,CAPSULE,QD,ORAL,43.0,,TREATMENT,2024-06-17,2024-06-17,43,43
GB001-2001,EC,GB001-2001-CAN_SITE01-0008,44,GB001,PERFORMED,Y,Y,,,20.0,,mg,CAPSULE,QD,ORAL,44.0,,TREATMENT,2024-06-18,2024-06-18,44,44
GB001-2001,EC,GB001-2001-CAN_SITE01-0008,45,GB001,PERFORMED,Y,Y,,,20.0,,mg,CAPSULE,QD,ORAL,45.0,,TREATMENT,2024-06-19,2024-06-19,45,45
GB001-2001,EC,GB001-2001-CAN_SITE01-0008,46,GB001,PERFORMED,Y,Y,,,20.0,,mg,CAPSULE,QD,ORAL,46.0,,TREATMENT,2024-06-20,2024-06-20,46,46
GB001-2001,EC,GB001-2001-CAN_SITE01-0008,47,GB001,PERFORMED,Y,Y,,,20.0,,mg,CAPSULE,QD,ORAL,47.0,,TREATMENT,2024-06-21,2024-06-21,47,47
GB001-2001,EC,GB001-2001-CAN_SITE01-0008,48,GB001,PERFORMED,Y,Y,,,20.0,,mg,CAPSULE,QD,ORAL,48.0,,TREATMENT,2024-06-22,2024-06-22,48,48
GB001-2001,EC,GB001-2001-CAN_SITE01-0008,49,GB001,PERFORMED,Y,Y,,,20.0,,mg,CAPSULE,QD,ORAL,49.0,,TREATMENT,2024-06-23,2024-06-23,49,49
GB001-2001,EC,GB001-2001-CAN_SITE01-0008,50,GB001,PERFORMED,Y,Y,,,20.0,,mg,CAPSULE,QD,ORAL,50.0,,TREATMENT,2024-06-24,2024-06-24,50,50
GB001-2001,EC,GB001-2001-CAN_SITE01-0008,51,GB001,PERFORMED,Y,Y,,,20.0,,mg,CAPSULE,QD,ORAL,51.0,,TREATMENT,2024-06-25,2024-06-25,51,51
GB001-2001,EC,GB001-2001-CAN_SITE01-0008,52,GB001,PERFORMED,Y,Y,,,20.0,,mg,CAPSULE,QD,ORAL,52.0,,TREATMENT,2024-06-26,2024-06-26,52,52
GB001-2001,EC,GB001-2001-CAN_SITE01-0008,53,GB001,PERFORMED,Y,Y,,,20.0,,mg,CAPSULE,QD,ORAL,53.0,,TREATMENT,2024-06-27,2024-06-27,53,53
GB001-2001,EC,GB001-2001-CAN_SITE01-0008,54,GB001,PERFORMED,Y,Y,,,20.0,,mg,CAPSULE,QD,ORAL,6.0,WEEK 8,TREATMENT,2024-06-28,2024-06-28,54,54
GB001-2001,EC,GB001-2001-CAN_SITE01-0008,55,GB001,PERFORMED,Y,Y,,,20.0,,mg,CAPSULE,QD,ORAL,6.0,WEEK 8,TREATMENT,2024-06-29,2024-06-29,55,55
GB001-2001,EC,GB001-2001-CAN_SITE01-0008,56,GB001,PERFORMED,Y,Y,,,20.0,,mg,CAPSULE,QD,ORAL,6.0,WEEK 8,TREATMENT,2024-06-30,2024-06-30,56,56
GB001-2001,EC,GB001-2001-CAN_SITE01-0008,57,GB001,PERFORMED,Y,Y,,,20.0,,mg,CAPSULE,QD,ORAL,6.0,WEEK 8,TREATMENT,2024-07-01,2024-07-01,57,57
GB001-2001,EC,GB001-2001-CAN_SITE01-0008,58,GB001,PERFORMED,Y,Y,,,20.0,,mg,CAPSULE,QD,ORAL,6.0,WEEK 8,TREATMENT,2024-07-02,2024-07-02,58,58
GB001-2001,EC,GB001-2001-CAN_SITE01-0008,59,GB001,PERFORMED,Y,Y,,,20.0,,mg,CAPSULE,QD,ORAL,6.0,WEEK 8,TREATMENT,2024-07-03,2024-07-03,59,59
GB001-2001,EC,GB001-2001-CAN_SITE01-0008,60,GB001,PERFORMED,Y,Y,,,20.0,,mg,CAPSULE,QD,ORAL,6.0,WEEK 8,TREATMENT,2024-07-04,2024-07-04,60,60
GB001-2001,EC,GB001-2001-CAN_SITE01-0008,61,GB001,PERFORMED,Y,Y,,,20.0,,mg,CAPSULE,QD,ORAL,61.0,,TREATMENT,2024-07-05,2024-07-05,61,61
GB001-2001,EC,GB001-2001-CAN_SITE01-0008,62,GB001,PERFORMED,Y,Y,,,20.0,,mg,CAPSULE,QD,ORAL,62.0,,TREATMENT,2024-07-06,2024-07-06,62,62
GB001-2001,EC,GB001-2001-CAN_SITE01-0008,63,GB001,PERFORMED,Y,Y,,,20.0,,mg,CAPSULE,QD,ORAL,63.0,,TREATMENT,2024-07-07,2024-07-07,63,63
GB001-2001,EC,GB001-2001-CAN_SITE01-0008,64,GB001,PERFORMED,Y,Y,,,20.0,,mg,CAPSULE,QD,ORAL,64.0,,TREATMENT,2024-07-08,2024-07-08,64,64
GB001-2001,EC,GB001-2001-CAN_SITE01-0008,65,GB001,PERFORMED,Y,Y,,,20.0,,mg,CAPSULE,QD,ORAL,65.0,,TREATMENT,2024-07-09,2024-07-09,65,65
GB001-2001,EC,GB001-2001-CAN_SITE01-0008,66,GB001,PERFORMED,Y,Y,,,20.0,,mg,CAPSULE,QD,ORAL,66.0,,TREATMENT,2024-07-10,2024-07-10,66,66
GB001-2001,EC,GB001-2001-CAN_SITE01-0008,67,GB001,PERFORMED,Y,Y,,,20.0,,mg,CAPSULE,QD,ORAL,67.0,,TREATMENT,2024-07-11,2024-07-11,67,67
GB001-2001,EC,GB001-2001-CAN_SITE01-0008,68,GB001,PERFORMED,Y,Y,,,20.0,,mg,CAPSULE,QD,ORAL,68.0,,TREATMENT,2024-07-12,2024-07-12,68,68
GB001-2001,EC,GB001-2001-CAN_SITE01-0008,69,GB001,PERFORMED,Y,Y,,,20.0,,mg,CAPSULE,QD,ORAL,69.0,,TREATMENT,2024-07-13,2024-07-13,69,69
GB001-2001,EC,GB001-2001-CAN_SITE01-0008,70,GB001,PERFORMED,Y,Y,,,20.0,,mg,CAPSULE,QD,ORAL,70.0,,TREATMENT,2024-07-14,2024-07-14,70,70
GB001-2001,EC,GB001-2001-CAN_SITE01-0008,71,GB001,PERFORMED,Y,Y,,,20.0,,mg,CAPSULE,QD,ORAL,71.0,,TREATMENT,2024-07-15,2024-07-15,71,71
GB001-2001,EC,GB001-2001-CAN_SITE01-0008,72,GB001,PERFORMED,Y,Y,,,20.0,,mg,CAPSULE,QD,ORAL,72.0,,TREATMENT,2024-07-16,2024-07-16,72,72
GB001-2001,EC,GB001-2001-CAN_SITE01-0008,73,GB001,PERFORMED,Y,Y,,,20.0,,mg,CAPSULE,QD,ORAL,73.0,,TREATMENT,2024-07-17,2024-07-17,73,73
GB001-2001,EC,GB001-2001-CAN_SITE01-0008,74,GB001,PERFORMED,Y,Y,,,20.0,,mg,CAPSULE,QD,ORAL,74.0,,TREATMENT,2024-07-18,2024-07-18,74,74
GB001-2001,EC,GB001-2001-CAN_SITE01-0008,75,GB001,PERFORMED,Y,Y,,,20.0,,mg,CAPSULE,QD,ORAL,75.0,,TREATMENT,2024-07-19,2024-07-19,75,75
GB001-2001,EC,GB001-2001-CAN_SITE01-0008,76,GB001,PERFORMED,Y,Y,,,20.0,,mg,CAPSULE,QD,ORAL,76.0,,TREATMENT,2024-07-20,2024-07-20,76,76
GB001-2001,EC,GB001-2001-CAN_SITE01-0008,77,GB001,PERFORMED,Y,Y,,,20.0,,mg,CAPSULE,QD,ORAL,77.0,,TREATMENT,2024-07-21,2024-07-21,77,77
GB001-2001,EC,GB001-2001-CAN_SITE01-0008,78,GB001,PERFORMED,Y,Y,,,20.0,,mg,CAPSULE,QD,ORAL,78.0,,TREATMENT,2024-07-22,2024-07-22,78,78
GB001-2001,EC,GB001-2001-CAN_SITE01-0008,79,GB001,PERFORMED,Y,Y,,,20.0,,mg,CAPSULE,QD,ORAL,79.0,,TREATMENT,2024-07-23,2024-07-23,79,79
GB001-2001,EC,GB001-2001-CAN_SITE01-0008,80,GB001,PERFORMED,Y,Y,,,20.0,,mg,CAPSULE,QD,ORAL,80.0,,TREATMENT,2024-07-24,2024-07-24,80,80
GB001-2001,EC,GB001-2001-CAN_SITE01-0008,81,GB001,PERFORMED,Y,Y,,,20.0,,mg,CAPSULE,QD,ORAL,81.0,,TREATMENT,2024-07-25,2024-07-25,81,81
GB001-2001,EC,GB001-2001-CAN_SITE01-0008,82,GB001,PERFORMED,Y,Y,,,20.0,,mg,CAPSULE,QD,ORAL,7.0,WEEK 12,TREATMENT,2024-07-26,2024-07-26,82,82
GB001-2001,EC,GB001-2001-CAN_SITE01-0008,83,GB001,PERFORMED,Y,Y,,,20.0,,mg,CAPSULE,QD,ORAL,7.0,WEEK 12,TREATMENT,2024-07-27,2024-07-27,83,83
GB001-2001,EC,GB001-2001-CAN_SITE01-0008,84,GB001,PERFORMED,Y,Y,,,20.0,,mg,CAPSULE,QD,ORAL,7.0,WEEK 12,TREATMENT,2024-07-28,2024-07-28,84,84
GB001-2001,EC,GB001-2001-CAN_SITE01-0008,85,GB001,PERFORMED,Y,Y,,,20.0,,mg,CAPSULE,QD,ORAL,7.0,WEEK 12,TREATMENT,2024-07-29,2024-07-29,85,85
GB001-2001,EC,GB001-2001-CAN_SITE01-0008,86,GB001,PERFORMED,Y,Y,,,20.0,,mg,CAPSULE,QD,ORAL,7.0,WEEK 12,TREATMENT,2024-07-30,2024-07-30,86,86
GB001-2001,EC,GB001-2001-CAN_SITE01-0008,87,GB001,PERFORMED,Y,Y,,,20.0,,mg,CAPSULE,QD,ORAL,7.0,WEEK 12,TREATMENT,2024-07-31,2024-07-31,87,87
GB001-2001,EC,GB001-2001-CAN_SITE01-0008,88,GB001,PERFORMED,Y,Y,,,20.0,,mg,CAPSULE,QD,ORAL,7.0,WEEK 12,TREATMENT,2024-08-01,2024-08-01,88,88
GB001-2001,EC,GB001-2001-CAN_SITE01-0008,89,GB001,PERFORMED,Y,Y,,,20.0,,mg,CAPSULE,QD,ORAL,89.0,,TREATMENT,2024-08-02,2024-08-02,89,89
GB001-2001,EC,GB001-2001-CAN_SITE01-0008,90,GB001,PERFORMED,Y,Y,,,20.0,,mg,CAPSULE,QD,ORAL,90.0,,TREATMENT,2024-08-03,2024-08-03,90,90
GB001-2001,EC,GB001-2001-CAN_SITE01-0008,91,GB001,PERFORMED,Y,Y,,,20.0,,mg,CAPSULE,QD,ORAL,91.0,,TREATMENT,2024-08-04,2024-08-04,91,91
GB001-2001,EC,GB001-2001-CAN_SITE01-0008,92,GB001,PERFORMED,Y,Y,,,20.0,,mg,CAPSULE,QD,ORAL,92.0,,TREATMENT,2024-08-05,2024-08-05,92,92
GB001-2001,EC,GB001-2001-CAN_SITE01-0008,93,GB001,PERFORMED,Y,Y,,,20.0,,mg,CAPSULE,QD,ORAL,93.0,,TREATMENT,2024-08-06,2024-08-06,93,93
GB001-2001,EC,GB001-2001-CAN_SITE01-0008,94,GB001,PERFORMED,Y,Y,,,20.0,,mg,CAPSULE,QD,ORAL,94.0,,TREATMENT,2024-08-07,2024-08-07,94,94
GB001-2001,EC,GB001-2001-CAN_SITE01-0008,95,GB001,PERFORMED,Y,Y,,,20.0,,mg,CAPSULE,QD,ORAL,95.0,,TREATMENT,2024-08-08,2024-08-08,95,95
GB001-2001,EC,GB001-2001-CAN_SITE01-0008,96,GB001,PERFORMED,Y,Y,,,20.0,,mg,CAPSULE,QD,ORAL,96.0,,TREATMENT,2024-08-09,2024-08-09,96,96
GB001-2001,EC,GB001-2001-CAN_SITE01-0008,97,GB001,PERFORMED,Y,Y,,,20.0,,mg,CAPSULE,QD,ORAL,97.0,,TREATMENT,2024-08-10,2024-08-10,97,97
GB001-2001,EC,GB001-2001-CAN_SITE01-0008,98,GB001,PERFORMED,Y,Y,,,20.0,,mg,CAPSULE,QD,ORAL,98.0,,TREATMENT,2024-08-11,2024-08-11,98,98
GB001-2001,EC,GB001-2001-CAN_SITE01-0008,99,GB001,PERFORMED,Y,Y,,,20.0,,mg,CAPSULE,QD,ORAL,99.0,,TREATMENT,2024-08-12,2024-08-12,99,99
GB001-2001,EC,GB001-2001-CAN_SITE01-0008,100,GB001,PERFORMED,Y,Y,,,20.0,,mg,CAPSULE,QD,ORAL,100.0,,TREATMENT,2024-08-13,2024-08-13,100,100
GB001-2001,EC,GB001-2001-CAN_SITE01-0008,101,GB001,PERFORMED,Y,Y,,,20.0,,mg,CAPSULE,QD,ORAL,101.0,,TREATMENT,2024-08-14,2024-08-14,101,101
GB001-2001,EC,GB001-2001-CAN_SITE01-0008,102,GB001,PERFORMED,Y,Y,,,20.0,,mg,CAPSULE,QD,ORAL,102.0,,TREATMENT,2024-08-15,2024-08-15,102,102
GB001-2001,EC,GB001-2001-CAN_SITE01-0008,103,GB001,PERFORMED,Y,Y,,,20.0,,mg,CAPSULE,QD,ORAL,103.0,,TREATMENT,2024-08-16,2024-08-16,103,103
GB001-2001,EC,GB001-2001-CAN_SITE01-0008,104,GB001,PERFORMED,Y,Y,,,20.0,,mg,CAPSULE,QD,ORAL,104.0,,TREATMENT,2024-08-17,2024-08-17,104,104
GB001-2001,EC,GB001-2001-CAN_SITE01-0008,105,GB001,PERFORMED,Y,Y,,,20.0,,mg,CAPSULE,QD,ORAL,105.0,,TREATMENT,2024-08-18,2024-08-18,105,105
GB001-2001,EC,GB001-2001-CAN_SITE01-0008,106,GB001,PERFORMED,Y,Y,,,20.0,,mg,CAPSULE,QD,ORAL,106.0,,TREATMENT,2024-08-19,2024-08-19,106,106
GB001-2001,EC,GB001-2001-CAN_SITE01-0008,107,GB001,PERFORMED,Y,Y,,,20.0,,mg,CAPSULE,QD,ORAL,107.0,,TREATMENT,2024-08-20,2024-08-20,107,107
GB001-2001,EC,GB001-2001-CAN_SITE01-0008,108,GB001,PERFORMED,Y,Y,,,20.0,,mg,CAPSULE,QD,ORAL,108.0,,TREATMENT,2024-08-21,2024-08-21,108,108
GB001-2001,EC,GB001-2001-CAN_SITE01-0008,109,GB001,PERFORMED,Y,Y,,,20.0,,mg,CAPSULE,QD,ORAL,109.0,,TREATMENT,2024-08-22,2024-08-22,109,109
GB001-2001,EC,GB001-2001-CAN_SITE01-0008,110,GB001,PERFORMED,Y,Y,,,20.0,,mg,CAPSULE,QD,ORAL,8.0,WEEK 16,TREATMENT,2024-08-23,2024-08-23,110,110
GB001-2001,EC,GB001-2001-CAN_SITE01-0008,111,GB001,PERFORMED,Y,Y,,,20.0,,mg,CAPSULE,QD,ORAL,8.0,WEEK 16,TREATMENT,2024-08-24,2024-08-24,111,111
GB001-2001,EC,GB001-2001-CAN_SITE01-0008,112,GB001,PERFORMED,Y,Y,,,20.0,,mg,CAPSULE,QD,ORAL,8.0,WEEK 16,TREATMENT,2024-08-25,2024-08-25,112,112
GB001-2001,EC,GB001-2001-CAN_SITE01-0008,113,GB001,PERFORMED,Y,Y,,,20.0,,mg,CAPSULE,QD,ORAL,8.0,WEEK 16,TREATMENT,2024-08-26,2024-08-26,113,113
GB001-2001,EC,GB001-2001-CAN_SITE01-0008,114,GB001,PERFORMED,Y,Y,,,20.0,,mg,CAPSULE,QD,ORAL,8.0,WEEK 16,TREATMENT,2024-08-27,2024-08-27,114,114
GB001-2001,EC,GB001-2001-CAN_SITE01-0008,115,GB001,SCHEDULED,Y,,NOT DONE,SUBJECT NON-COMPLIANCE,,,mg,CAPSULE,QD,ORAL,8.0,WEEK 16,TREATMENT,2024-08-28,2024-08-28,115,115
GB001-2001,EC,GB001-2001-CAN_SITE01-0008,116,GB001,PERFORMED,Y,Y,,,20.0,,mg,CAPSULE,QD,ORAL,8.0,WEEK 16,TREATMENT,2024-08-29,2024-08-29,116,116
GB001-2001,EC,GB001-2001-CAN_SITE01-0008,117,GB001,PERFORMED,Y,Y,,,20.0,,mg,CAPSULE,QD,ORAL,117.0,,TREATMENT,2024-08-30,2024-08-30,117,117
GB001-2001,EC,GB001-2001-CAN_SITE01-0008,118,GB001,PERFORMED,Y,Y,,,20.0,,mg,CAPSULE,QD,ORAL,118.0,,TREATMENT,2024-08-31,2024-08-31,118,118
GB001-2001,EC,GB001-2001-CAN_SITE01-0008,119,GB001,PERFORMED,Y,Y,,,20.0,,mg,CAPSULE,QD,ORAL,119.0,,TREATMENT,2024-09-01,2024-09-01,119,119
GB001-2001,EC,GB001-2001-CAN_SITE01-0008,120,GB001,PERFORMED,Y,Y,,,20.0,,mg,CAPSULE,QD,ORAL,120.0,,TREATMENT,2024-09-02,2024-09-02,120,120
GB001-2001,EC,GB001-2001-CAN_SITE01-0008,121,GB001,PERFORMED,Y,Y,,,20.0,,mg,CAPSULE,QD,ORAL,121.0,,TREATMENT,2024-09-03,2024-09-03,121,121
GB001-2001,EC,GB001-2001-CAN_SITE01-0008,122,GB001,PERFORMED,Y,Y,,,20.0,,mg,CAPSULE,QD,ORAL,122.0,,TREATMENT,2024-09-04,2024-09-04,122,122
GB001-2001,EC,GB001-2001-CAN_SITE01-0008,123,GB001,PERFORMED,Y,Y,,,20.0,,mg,CAPSULE,QD,ORAL,123.0,,TREATMENT,2024-09-05,2024-09-05,123,123
GB001-2001,EC,GB001-2001-CAN_SITE01-0008,124,GB001,PERFORMED,Y,Y,,,20.0,,mg,CAPSULE,QD,ORAL,124.0,,TREATMENT,2024-09-06,2024-09-06,124,124
GB001-2001,EC,GB001-2001-CAN_SITE01-0008,125,GB001,PERFORMED,Y,Y,,,20.0,,mg,CAPSULE,QD,ORAL,125.0,,TREATMENT,2024-09-07,2024-09-07,125,125
GB001-2001,EC,GB001-2001-CAN_SITE01-0008,126,GB001,PERFORMED,Y,Y,,,20.0,,mg,CAPSULE,QD,ORAL,126.0,,TREATMENT,2024-09-08,2024-09-08,126,126
GB001-2001,EC,GB001-2001-CAN_SITE01-0008,127,GB001,PERFORMED,Y,Y,,,20.0,,mg,CAPSULE,QD,ORAL,127.0,,TREATMENT,2024-09-09,2024-09-09,127,127
GB001-2001,EC,GB001-2001-CAN_SITE01-0008,128,GB001,PERFORMED,Y,Y,,,20.0,,mg,CAPSULE,QD,ORAL,128.0,,TREATMENT,2024-09-10,2024-09-10,128,128
GB001-2001,EC,GB001-2001-CAN_SITE01-0008,129,GB001,PERFORMED,Y,Y,,,20.0,,mg,CAPSULE,QD,ORAL,129.0,,TREATMENT,2024-09-11,2024-09-11,129,129
GB001-2001,EC,GB001-2001-CAN_SITE01-0008,130,GB001,PERFORMED,Y,Y,,,20.0,,mg,CAPSULE,QD,ORAL,130.0,,TREATMENT,2024-09-12,2024-09-12,130,130
GB001-2001,EC,GB001-2001-CAN_SITE01-0008,131,GB001,PERFORMED,Y,Y,,,20.0,,mg,CAPSULE,QD,ORAL,131.0,,TREATMENT,2024-09-13,2024-09-13,131,131
GB001-2001,EC,GB001-2001-CAN_SITE01-0008,132,GB001,PERFORMED,Y,Y,,,20.0,,mg,CAPSULE,QD,ORAL,132.0,,TREATMENT,2024-09-14,2024-09-14,132,132
GB001-2001,EC,GB001-2001-CAN_SITE01-0019,1,PLACEBO,PERFORMED,Y,Y,,,,PLACEBO,mg,CAPSULE,QD,ORAL,3.0,RANDOMIZATION,RUN_IN,2024-03-12,2024-03-12,1,1
GB001-2001,EC,GB001-2001-CAN_SITE01-0019,2,PLACEBO,PERFORMED,Y,Y,,,,PLACEBO,mg,CAPSULE,QD,ORAL,3.0,RANDOMIZATION,RUN_IN,2024-03-13,2024-03-13,2,2
GB001-2001,EC,GB001-2001-CAN_SITE01-0019,3,PLACEBO,PERFORMED,Y,Y,,,,PLACEBO,mg,CAPSULE,QD,ORAL,3.0,RANDOMIZATION,RUN_IN,2024-03-14,2024-03-14,3,3
GB001-2001,EC,GB001-2001-CAN_SITE01-0019,4,PLACEBO,PERFORMED,Y,Y,,,,PLACEBO,mg,CAPSULE,QD,ORAL,3.0,RANDOMIZATION,RUN_IN,2024-03-15,2024-03-15,4,4
GB001-2001,EC,GB001-2001-CAN_SITE01-0019,5,PLACEBO,PERFORMED,Y,Y,,,,PLACEBO,mg,CAPSULE,QD,ORAL,5.0,,RUN_IN,2024-03-16,2024-03-16,5,5
GB001-2001,EC,GB001-2001-CAN_SITE01-0019,6,PLACEBO,PERFORMED,Y,Y,,,,PLACEBO,mg,CAPSULE,QD,ORAL,6.0,,RUN_IN,2024-03-17,2024-03-17,6,6
GB001-2001,EC,GB001-2001-CAN_SITE01-0019,7,PLACEBO,PERFORMED,Y,Y,,,,PLACEBO,mg,CAPSULE,QD,ORAL,7.0,,RUN_IN,2024-03-18,2024-03-18,7,7
GB001-2001,EC,GB001-2001-CAN_SITE01-0019,8,PLACEBO,PERFORMED,Y,Y,,,,PLACEBO,mg,CAPSULE,QD,ORAL,8.0,,RUN_IN,2024-03-19,2024-03-19,8,8
GB001-2001,EC,GB001-2001-CAN_SITE01-0019,9,PLACEBO,PERFORMED,Y,Y,,,,PLACEBO,mg,CAPSULE,QD,ORAL,9.0,,RUN_IN,2024-03-20,2024-03-20,9,9
GB001-2001,EC,GB001-2001-CAN_SITE01-0019,10,PLACEBO,PERFORMED,Y,Y,,,,PLACEBO,mg,CAPSULE,QD,ORAL,10.0,,RUN_IN,2024-03-21,2024-03-21,10,10
GB001-2001,EC,GB001-2001-CAN_SITE01-0019,11,PLACEBO,PERFORMED,Y,Y,,,,PLACEBO,mg,CAPSULE,QD,ORAL,11.0,,RUN_IN,2024-03-22,2024-03-22,11,11
GB001-2001,EC,GB001-2001-CAN_SITE01-0019,12,PLACEBO,PERFORMED,Y,Y,,,,PLACEBO,mg,CAPSULE,QD,ORAL,4.0,WEEK 2,RUN_IN,2024-03-23,2024-03-23,12,12
GB001-2001,EC,GB001-2001-CAN_SITE01-0019,13,PLACEBO,PERFORMED,Y,Y,,,,PLACEBO,mg,CAPSULE,QD,ORAL,4.0,WEEK 2,RUN_IN,2024-03-24,2024-03-24,13,13
GB001-2001,EC,GB001-2001-CAN_SITE01-0019,14,PLACEBO,PERFORMED,Y,Y,,,,PLACEBO,mg,CAPSULE,QD,ORAL,4.0,WEEK 2,RUN_IN,2024-03-25,2024-03-25,14,14
GB001-2001,EC,GB001-2001-CAN_SITE01-0019,15,PLACEBO,PERFORMED,Y,Y,,,,PLACEBO,mg,CAPSULE,QD,ORAL,4.0,WEEK 2,RUN_IN,2024-03-26,2024-03-26,15,15
GB001-2001,EC,GB001-2001-CAN_SITE01-0019,16,PLACEBO,PERFORMED,Y,Y,,,,PLACEBO,mg,CAPSULE,QD,ORAL,4.0,WEEK 2,RUN_IN,2024-03-27,2024-03-27,16,16
GB001-2001,EC,GB001-2001-CAN_SITE01-0019,17,PLACEBO,PERFORMED,Y,Y,,,,PLACEBO,mg,CAPSULE,QD,ORAL,4.0,WEEK 2,RUN_IN,2024-03-28,2024-03-28,17,17
GB001-2001,EC,GB001-2001-CAN_SITE01-0019,18,PLACEBO,PERFORMED,Y,Y,,,,PLACEBO,mg,CAPSULE,QD,ORAL,4.0,WEEK 2,RUN_IN,2024-03-29,2024-03-29,18,18
GB001-2001,EC,GB001-2001-CAN_SITE01-0019,19,PLACEBO,SCHEDULED,Y,,NOT DONE,SUBJECT NON-COMPLIANCE,,,mg,CAPSULE,QD,ORAL,19.0,,RUN_IN,2024-03-30,2024-03-30,19,19
GB001-2001,EC,GB001-2001-CAN_SITE01-0019,20,PLACEBO,PERFORMED,Y,Y,,,,PLACEBO,mg,CAPSULE,QD,ORAL,20.0,,RUN_IN,2024-03-31,2024-03-31,20,20
GB001-2001,EC,GB001-2001-CAN_SITE01-0019,21,PLACEBO,PERFORMED,Y,Y,,,,PLACEBO,mg,CAPSULE,QD,ORAL,21.0,,RUN_IN,2024-04-01,2024-04-01,21,21
GB001-2001,EC,GB001-2001-CAN_SITE01-0019,22,PLACEBO,PERFORMED,Y,Y,,,,PLACEBO,mg,CAPSULE,QD,ORAL,22.0,,RUN_IN,2024-04-02,2024-04-02,22,22
GB001-2001,EC,GB001-2001-CAN_SITE01-0019,23,PLACEBO,PERFORMED,Y,Y,,,,PLACEBO,mg,CAPSULE,QD,ORAL,23.0,,RUN_IN,2024-04-03,2024-04-03,23,23
GB001-2001,EC,GB001-2001-CAN_SITE01-0019,24,PLACEBO,SCHEDULED,Y,,NOT DONE,SUBJECT NON-COMPLIANCE,,,mg,CAPSULE,QD,ORAL,24.0,,RUN_IN,2024-04-04,2024-04-04,24,24
GB001-2001,EC,GB001-2001-CAN_SITE01-0019,25,PLACEBO,PERFORMED,Y,Y,,,,PLACEBO,mg,CAPSULE,QD,ORAL,25.0,,RUN_IN,2024-04-05,2024-04-05,25,25
GB001-2001,EC,GB001-2001-CAN_SITE01-0019,26,PLACEBO,PERFORMED,Y,Y,,,,PLACEBO,mg,CAPSULE,QD,ORAL,5.0,WEEK 4,RUN_IN,2024-04-06,2024-04-06,26,26
GB001-2001,EC,GB001-2001-CAN_SITE01-0019,27,PLACEBO,PERFORMED,Y,Y,,,,PLACEBO,mg,CAPSULE,QD,ORAL,5.0,WEEK 4,RUN_IN,2024-04-07,2024-04-07,27,27
GB001-2001,EC,GB001-2001-CAN_SITE01-0019,28,PLACEBO,PERFORMED,Y,Y,,,,PLACEBO,mg,CAPSULE,QD,ORAL,5.0,WEEK 4,RUN_IN,2024-04-08,2024-04-08,28,28
GB001-2001,EC,GB001-2001-CAN_SITE01-0019,29,PLACEBO,PERFORMED,Y,Y,,,,PLACEBO,mg,CAPSULE,QD,ORAL,5.0,WEEK 4,TREATMENT,2024-04-09,2024-04-09,29,29
GB001-2001,EC,GB001-2001-CAN_SITE01-0019,30,PLACEBO,PERFORMED,Y,Y,,,,PLACEBO,mg,CAPSULE,QD,ORAL,5.0,WEEK 4,TREATMENT,2024-04-10,2024-04-10,30,30
GB001-2001,EC,GB001-2001-CAN_SITE01-0019,31,PLACEBO,PERFORMED,Y,Y,,,,PLACEBO,mg,CAPSULE,QD,ORAL,5.0,WEEK 4,TREATMENT,2024-04-11,2024-04-11,31,31
GB001-2001,EC,GB001-2001-CAN_SITE01-0019,32,PLACEBO,PERFORMED,Y,Y,,,,PLACEBO,mg,CAPSULE,QD,ORAL,5.0,WEEK 4,TREATMENT,2024-04-12,2024-04-12,32,32
GB001-2001,EC,GB001-2001-CAN_SITE01-0019,33,PLACEBO,PERFORMED,Y,Y,,,,PLACEBO,mg,CAPSULE,QD,ORAL,33.0,,TREATMENT,2024-04-13,2024-04-13,33,33
GB001-2001,EC,GB001-2001-CAN_SITE01-0019,34,PLACEBO,PERFORMED,Y,Y,,,,PLACEBO,mg,CAPSULE,QD,ORAL,34.0,,TREATMENT,2024-04-14,2024-04-14,34,34
GB001-2001,EC,GB001-2001-CAN_SITE01-0019,35,PLACEBO,PERFORMED,Y,Y,,,,PLACEBO,mg,CAPSULE,QD,ORAL,35.0,,TREATMENT,2024-04-15,2024-04-15,35,35
GB001-2001,EC,GB001-2001-CAN_SITE01-0019,36,PLACEBO,PERFORMED,Y,Y,,,,PLACEBO,mg,CAPSULE,QD,ORAL,36.0,,TREATMENT,2024-04-16,2024-04-16,36,36
GB001-2001,EC,GB001-2001-CAN_SITE01-0019,37,PLACEBO,PERFORMED,Y,Y,,,,PLACEBO,mg,CAPSULE,QD,ORAL,37.0,,TREATMENT,2024-04-17,2024-04-17,37,37
GB001-2001,EC,GB001-2001-CAN_SITE01-0019,38,PLACEBO,PERFORMED,Y,Y,,,,PLACEBO,mg,CAPSULE,QD,ORAL,38.0,,TREATMENT,2024-04-18,2024-04-18,38,38
GB001-2001,EC,GB001-2001-CAN_SITE01-0019,39,PLACEBO,PERFORMED,Y,Y,,,,PLACEBO,mg,CAPSULE,QD,ORAL,39.0,,TREATMENT,2024-04-19,2024-04-19,39,39
GB001-2001,EC,GB001-2001-CAN_SITE01-0019,40,PLACEBO,PERFORMED,Y,Y,,,,PLACEBO,mg,CAPSULE,QD,ORAL,40.0,,TREATMENT,2024-04-20,2024-04-20,40,40
GB001-2001,EC,GB001-2001-CAN_SITE01-0019,41,PLACEBO,PERFORMED,Y,Y,,,,PLACEBO,mg,CAPSULE,QD,ORAL,41.0,,TREATMENT,2024-04-21,2024-04-21,41,41
GB001-2001,EC,GB001-2001-CAN_SITE01-0019,42,PLACEBO,PERFORMED,Y,Y,,,,PLACEBO,mg,CAPSULE,QD,ORAL,42.0,,TREATMENT,2024-04-22,2024-04-22,42,42
GB001-2001,EC,GB001-2001-CAN_SITE01-0019,43,PLACEBO,PERFORMED,Y,Y,,,,PLACEBO,mg,CAPSULE,QD,ORAL,43.0,,TREATMENT,2024-04-23,2024-04-23,43,43
GB001-2001,EC,GB001-2001-CAN_SITE01-0019,44,PLACEBO,PERFORMED,Y,Y,,,,PLACEBO,mg,CAPSULE,QD,ORAL,44.0,,TREATMENT,2024-04-24,2024-04-24,44,44
GB001-2001,EC,GB001-2001-CAN_SITE01-0019,45,PLACEBO,PERFORMED,Y,Y,,,,PLACEBO,mg,CAPSULE,QD,ORAL,45.0,,TREATMENT,2024-04-25,2024-04-25,45,45
GB001-2001,EC,GB001-2001-CAN_SITE01-0019,46,PLACEBO,PERFORMED,Y,Y,,,,PLACEBO,mg,CAPSULE,QD,ORAL,46.0,,TREATMENT,2024-04-26,2024-04-26,46,46
GB001-2001,EC,GB001-2001-CAN_SITE01-0019,47,PLACEBO,PERFORMED,Y,Y,,,,PLACEBO,mg,CAPSULE,QD,ORAL,47.0,,TREATMENT,2024-04-27,2024-04-27,47,47
GB001-2001,EC,GB001-2001-CAN_SITE01-0019,48,PLACEBO,PERFORMED,Y,Y,,,,PLACEBO,mg,CAPSULE,QD,ORAL,48.0,,TREATMENT,2024-04-28,2024-04-28,48,48
GB001-2001,EC,GB001-2001-CAN_SITE01-0019,49,PLACEBO,PERFORMED,Y,Y,,,,PLACEBO,mg,CAPSULE,QD,ORAL,49.0,,TREATMENT,2024-04-29,2024-04-29,49,49
GB001-2001,EC,GB001-2001-CAN_SITE01-0019,50,PLACEBO,PERFORMED,Y,Y,,,,PLACEBO,mg,CAPSULE,QD,ORAL,50.0,,TREATMENT,2024-04-30,2024-04-30,50,50
GB001-2001,EC,GB001-2001-CAN_SITE01-0019,51,PLACEBO,PERFORMED,Y,Y,,,,PLACEBO,mg,CAPSULE,QD,ORAL,51.0,,TREATMENT,2024-05-01,2024-05-01,51,51
GB001-2001,EC,GB001-2001-CAN_SITE01-0019,52,PLACEBO,SCHEDULED,Y,,NOT DONE,SUBJECT NON-COMPLIANCE,,,mg,CAPSULE,QD,ORAL,52.0,,TREATMENT,2024-05-02,2024-05-02,52,52
GB001-2001,EC,GB001-2001-CAN_SITE01-0019,53,PLACEBO,PERFORMED,Y,Y,,,,PLACEBO,mg,CAPSULE,QD,ORAL,53.0,,TREATMENT,2024-05-03,2024-05-03,53,53
GB001-2001,EC,GB001-2001-CAN_SITE01-0019,54,PLACEBO,PERFORMED,Y,Y,,,,PLACEBO,mg,CAPSULE,QD,ORAL,6.0,WEEK 8,TREATMENT,2024-05-04,2024-05-04,54,54
GB001-2001,EC,GB001-2001-CAN_SITE01-0019,55,PLACEBO,PERFORMED,Y,Y,,,,PLACEBO,mg,CAPSULE,QD,ORAL,6.0,WEEK 8,TREATMENT,2024-05-05,2024-05-05,55,55
GB001-2001,EC,GB001-2001-CAN_SITE01-0019,56,PLACEBO,SCHEDULED,Y,,NOT DONE,SUBJECT NON-COMPLIANCE,,,mg,CAPSULE,QD,ORAL,6.0,WEEK 8,TREATMENT,2024-05-06,2024-05-06,56,56
GB001-2001,EC,GB001-2001-CAN_SITE01-0019,57,PLACEBO,PERFORMED,Y,Y,,,,PLACEBO,mg,CAPSULE,QD,ORAL,6.0,WEEK 8,TREATMENT,2024-05-07,2024-05-07,57,57
GB001-2001,EC,GB001-2001-CAN_SITE01-0019,58,PLACEBO,PERFORMED,Y,Y,,,,PLACEBO,mg,CAPSULE,QD,ORAL,6.0,WEEK 8,TREATMENT,2024-05-08,2024-05-08,58,58
GB001-2001,EC,GB001-2001-CAN_SITE01-0019,59,PLACEBO,PERFORMED,Y,Y,,,,PLACEBO,mg,CAPSULE,QD,ORAL,6.0,WEEK 8,TREATMENT,2024-05-09,2024-05-09,59,59
GB001-2001,EC,GB001-2001-CAN_SITE01-0019,60,PLACEBO,PERFORMED,Y,Y,,,,PLACEBO,mg,CAPSULE,QD,ORAL,6.0,WEEK 8,TREATMENT,2024-05-10,2024-05-10,60,60
GB001-2001,EC,GB001-2001-CAN_SITE01-0019,61,PLACEBO,PERFORMED,Y,Y,,,,PLACEBO,mg,CAPSULE,QD,ORAL,61.0,,TREATMENT,2024-05-11,2024-05-11,61,61
GB001-2001,EC,GB001-2001-CAN_SITE01-0019,62,PLACEBO,PERFORMED,Y,Y,,,,PLACEBO,mg,CAPSULE,QD,ORAL,62.0,,TREATMENT,2024-05-12,2024-05-12,62,62
GB001-2001,EC,GB001-2001-CAN_SITE01-0019,63,PLACEBO,PERFORMED,Y,Y,,,,PLACEBO,mg,CAPSULE,QD,ORAL,63.0,,TREATMENT,2024-05-13,2024-05-13,63,63
GB001-2001,EC,GB001-2001-CAN_SITE01-0019,64,PLACEBO,PERFORMED,Y,Y,,,,PLACEBO,mg,CAPSULE,QD,ORAL,64.0,,TREATMENT,2024-05-14,2024-05-14,64,64
GB001-2001,EC,GB001-2001-CAN_SITE01-0019,65,PLACEBO,PERFORMED,Y,Y,,,,PLACEBO,mg,CAPSULE,QD,ORAL,65.0,,TREATMENT,2024-05-15,2024-05-15,65,65
GB001-2001,EC,GB001-2001-CAN_SITE01-0019,66,PLACEBO,PERFORMED,Y,Y,,,,PLACEBO,mg,CAPSULE,QD,ORAL,66.0,,TREATMENT,2024-05-16,2024-05-16,66,66
GB001-2001,EC,GB001-2001-CAN_SITE01-0019,67,PLACEBO,PERFORMED,Y,Y,,,,PLACEBO,mg,CAPSULE,QD,ORAL,67.0,,TREATMENT,2024-05-17,2024-05-17,67,67
GB001-2001,EC,GB001-2001-CAN_SITE01-0019,68,PLACEBO,PERFORMED,Y,Y,,,,PLACEBO,mg,CAPSULE,QD,ORAL,68.0,,TREATMENT,2024-05-18,2024-05-18,68,68
GB001-2001,EC,GB001-2001-CAN_SITE01-0019,69,PLACEBO,PERFORMED,Y,Y,,,,PLACEBO,mg,CAPSULE,QD,ORAL,69.0,,TREATMENT,2024-05-19,2024-05-19,69,69
GB001-2001,EC,GB001-2001-CAN_SITE01-0019,70,PLACEBO,PERFORMED,Y,Y,,,,PLACEBO,mg,CAPSULE,QD,ORAL,70.0,,TREATMENT,2024-05-20,2024-05-20,70,70
GB001-2001,EC,GB001-2001-CAN_SITE01-0019,71,PLACEBO,PERFORMED,Y,Y,,,,PLACEBO,mg,CAPSULE,QD,ORAL,71.0,,TREATMENT,2024-05-21,2024-05-21,71,71
GB001-2001,EC,GB001-2001-CAN_SITE01-0019,72,PLACEBO,PERFORMED,Y,Y,,,,PLACEBO,mg,CAPSULE,QD,ORAL,72.0,,TREATMENT,2024-05-22,2024-05-22,72,72
GB001-2001,EC,GB001-2001-CAN_SITE01-0019,73,PLACEBO,PERFORMED,Y,Y,,,,PLACEBO,mg,CAPSULE,QD,ORAL,73.0,,TREATMENT,2024-05-23,2024-05-23,73,73
GB001-2001,EC,GB001-2001-CAN_SITE01-0019,74,PLACEBO,PERFORMED,Y,Y,,,,PLACEBO,mg,CAPSULE,QD,ORAL,74.0,,TREATMENT,2024-05-24,2024-05-24,74,74
GB001-2001,EC,GB001-2001-CAN_SITE01-0019,75,PLACEBO,PERFORMED,Y,Y,,,,PLACEBO,mg,CAPSULE,QD,ORAL,75.0,,TREATMENT,2024-05-25,2024-05-25,75,75
GB001-2001,EC,GB001-2001-CAN_SITE01-0019,76,PLACEBO,PERFORMED,Y,Y,,,,PLACEBO,mg,CAPSULE,QD,ORAL,76.0,,TREATMENT,2024-05-26,2024-05-26,76,76
GB001-2001,EC,GB001-2001-CAN_SITE01-0019,77,PLACEBO,PERFORMED,Y,Y,,,,PLACEBO,mg,CAPSULE,QD,ORAL,77.0,,TREATMENT,2024-05-27,2024-05-27,77,77
GB001-2001,EC,GB001-2001-CAN_SITE01-0019,78,PLACEBO,PERFORMED,Y,Y,,,,PLACEBO,mg,CAPSULE,QD,ORAL,78.0,,TREATMENT,2024-05-28,2024-05-28,78,78
GB001-2001,EC,GB001-2001-CAN_SITE01-0019,79,PLACEBO,SCHEDULED,Y,,NOT DONE,SUBJECT NON-COMPLIANCE,,,mg,CAPSULE,QD,ORAL,79.0,,TREATMENT,2024-05-29,2024-05-29,79,79
GB001-2001,EC,GB001-2001-CAN_SITE01-0019,80,PLACEBO,SCHEDULED,Y,,NOT DONE,SUBJECT NON-COMPLIANCE,,,mg,CAPSULE,QD,ORAL,80.0,,TREATMENT,2024-05-30,2024-05-30,80,80
GB001-2001,EC,GB001-2001-CAN_SITE01-0019,81,PLACEBO,PERFORMED,Y,Y,,,,PLACEBO,mg,CAPSULE,QD,ORAL,81.0,,TREATMENT,2024-05-31,2024-05-31,81,81
GB001-2001,EC,GB001-2001-CAN_SITE01-0019,82,PLACEBO,PERFORMED,Y,Y,,,,PLACEBO,mg,CAPSULE,QD,ORAL,7.0,WEEK 12,TREATMENT,2024-06-01,2024-06-01,82,82
GB001-2001,EC,GB001-2001-CAN_SITE01-0019,83,PLACEBO,PERFORMED,Y,Y,,,,PLACEBO,mg,CAPSULE,QD,ORAL,7.0,WEEK 12,TREATMENT,2024-06-02,2024-06-02,83,83
GB001-2001,EC,GB001-2001-CAN_SITE01-0019,84,PLACEBO,PERFORMED,Y,Y,,,,PLACEBO,mg,CAPSULE,QD,ORAL,7.0,WEEK 12,TREATMENT,2024-06-03,2024-06-03,84,84
GB001-2001,EC,GB001-2001-CAN_SITE01-0019,85,PLACEBO,PERFORMED,Y,Y,,,,PLACEBO,mg,CAPSULE,QD,ORAL,7.0,WEEK 12,TREATMENT,2024-06-04,2024-06-04,85,85
GB001-2001,EC,GB001-2001-CAN_SITE01-0019,86,PLACEBO,PERFORMED,Y,Y,,,,PLACEBO,mg,CAPSULE,QD,ORAL,7.0,WEEK 12,TREATMENT,2024-06-05,2024-06-05,86,86
GB001-2001,EC,GB001-2001-CAN_SITE01-0019,87,PLACEBO,PERFORMED,Y,Y,,,,PLACEBO,mg,CAPSULE,QD,ORAL,7.0,WEEK 12,TREATMENT,2024-06-06,2024-06-06,87,87
GB001-2001,EC,GB001-2001-CAN_SITE01-0019,88,PLACEBO,PERFORMED,Y,Y,,,,PLACEBO,mg,CAPSULE,QD,ORAL,7.0,WEEK 12,TREATMENT,2024-06-07,2024-06-07,88,88
GB001-2001,EC,GB001-2001-CAN_SITE01-0019,89,PLACEBO,PERFORMED,Y,Y,,,,PLACEBO,mg,CAPSULE,QD,ORAL,89.0,,TREATMENT,2024-06-08,2024-06-08,89,89
GB001-2001,EC,GB001-2001-CAN_SITE01-0019,90,PLACEBO,PERFORMED,Y,Y,,,,PLACEBO,mg,CAPSULE,QD,ORAL,90.0,,TREATMENT,2024-06-09,2024-06-09,90,90
GB001-2001,EC,GB001-2001-CAN_SITE01-0019,91,PLACEBO,PERFORMED,Y,Y,,,,PLACEBO,mg,CAPSULE,QD,ORAL,91.0,,TREATMENT,2024-06-10,2024-06-10,91,91
GB001-2001,EC,GB001-2001-CAN_SITE01-0019,92,PLACEBO,SCHEDULED,Y,,NOT DONE,SUBJECT NON-COMPLIANCE,,,mg,CAPSULE,QD,ORAL,92.0,,TREATMENT,2024-06-11,2024-06-11,92,92
GB001-2001,EC,GB001-2001-CAN_SITE01-0019,93,PLACEBO,PERFORMED,Y,Y,,,,PLACEBO,mg,CAPSULE,QD,ORAL,93.0,,TREATMENT,2024-06-12,2024-06-12,93,93
GB001-2001,EC,GB001-2001-CAN_SITE01-0019,94,PLACEBO,PERFORMED,Y,Y,,,,PLACEBO,mg,CAPSULE,QD,ORAL,94.0,,TREATMENT,2024-06-13,2024-06-13,94,94
GB001-2001,EC,GB001-2001-CAN_SITE01-0019,95,PLACEBO,PERFORMED,Y,Y,,,,PLACEBO,mg,CAPSULE,QD,ORAL,95.0,,TREATMENT,2024-06-14,2024-06-14,95,95
GB001-2001,EC,GB001-2001-CAN_SITE01-0019,96,PLACEBO,PERFORMED,Y,Y,,,,PLACEBO,mg,CAPSULE,QD,ORAL,96.0,,TREATMENT,2024-06-15,2024-06-15,96,96
GB001-2001,EC,GB001-2001-CAN_SITE01-0019,97,PLACEBO,PERFORMED,Y,Y,,,,PLACEBO,mg,CAPSULE,QD,ORAL,97.0,,TREATMENT,2024-06-16,2024-06-16,97,97
GB001-2001,EC,GB001-2001-CAN_SITE01-0019,98,PLACEBO,SCHEDULED,Y,,NOT DONE,SUBJECT NON-COMPLIANCE,,,mg,CAPSULE,QD,ORAL,98.0,,TREATMENT,2024-06-17,2024-06-17,98,98
GB001-2001,EC,GB001-2001-CAN_SITE01-0019,99,PLACEBO,PERFORMED,Y,Y,,,,PLACEBO,mg,CAPSULE,QD,ORAL,99.0,,TREATMENT,2024-06-18,2024-06-18,99,99
GB001-2001,EC,GB001-2001-CAN_SITE01-0019,100,PLACEBO,PERFORMED,Y,Y,,,,PLACEBO,mg,CAPSULE,QD,ORAL,100.0,,TREATMENT,2024-06-19,2024-06-19,100,100
GB001-2001,EC,GB001-2001-DEU_SITE01-0012,1,PLACEBO,PERFORMED,Y,Y,,,,PLACEBO,mg,CAPSULE,QD,ORAL,3.0,RANDOMIZATION,RUN_IN,2024-01-26,2024-01-26,1,1
GB001-2001,EC,GB001-2001-DEU_SITE01-0012,2,PLACEBO,PERFORMED,Y,Y,,,,PLACEBO,mg,CAPSULE,QD,ORAL,3.0,RANDOMIZATION,RUN_IN,2024-01-27,2024-01-27,2,2
GB001-2001,EC,GB001-2001-DEU_SITE01-0012,3,PLACEBO,PERFORMED,Y,Y,,,,PLACEBO,mg,CAPSULE,QD,ORAL,3.0,RANDOMIZATION,RUN_IN,2024-01-28,2024-01-28,3,3
GB001-2001,EC,GB001-2001-DEU_SITE01-0012,4,PLACEBO,PERFORMED,Y,Y,,,,PLACEBO,mg,CAPSULE,QD,ORAL,3.0,RANDOMIZATION,RUN_IN,2024-01-29,2024-01-29,4,4
GB001-2001,EC,GB001-2001-DEU_SITE01-0012,5,PLACEBO,PERFORMED,Y,Y,,,,PLACEBO,mg,CAPSULE,QD,ORAL,5.0,,RUN_IN,2024-01-30,2024-01-30,5,5
GB001-2001,EC,GB001-2001-DEU_SITE01-0012,6,PLACEBO,PERFORMED,Y,Y,,,,PLACEBO,mg,CAPSULE,QD,ORAL,6.0,,RUN_IN,2024-01-31,2024-01-31,6,6
GB001-2001,EC,GB001-2001-DEU_SITE01-0012,7,PLACEBO,PERFORMED,Y,Y,,,,PLACEBO,mg,CAPSULE,QD,ORAL,7.0,,RUN_IN,2024-02-01,2024-02-01,7,7
GB001-2001,EC,GB001-2001-DEU_SITE01-0012,8,PLACEBO,PERFORMED,Y,Y,,,,PLACEBO,mg,CAPSULE,QD,ORAL,8.0,,RUN_IN,2024-02-02,2024-02-02,8,8
GB001-2001,EC,GB001-2001-DEU_SITE01-0012,9,PLACEBO,PERFORMED,Y,Y,,,,PLACEBO,mg,CAPSULE,QD,ORAL,9.0,,RUN_IN,2024-02-03,2024-02-03,9,9
GB001-2001,EC,GB001-2001-DEU_SITE01-0012,10,PLACEBO,PERFORMED,Y,Y,,,,PLACEBO,mg,CAPSULE,QD,ORAL,10.0,,RUN_IN,2024-02-04,2024-02-04,10,10
GB001-2001,EC,GB001-2001-DEU_SITE01-0012,11,PLACEBO,PERFORMED,Y,Y,,,,PLACEBO,mg,CAPSULE,QD,ORAL,11.0,,RUN_IN,2024-02-05,2024-02-05,11,11
GB001-2001,EC,GB001-2001-DEU_SITE01-0012,12,PLACEBO,PERFORMED,Y,Y,,,,PLACEBO,mg,CAPSULE,QD,ORAL,4.0,WEEK 2,RUN_IN,2024-02-06,2024-02-06,12,12
GB001-2001,EC,GB001-2001-DEU_SITE01-0012,13,PLACEBO,PERFORMED,Y,Y,,,,PLACEBO,mg,CAPSULE,QD,ORAL,4.0,WEEK 2,RUN_IN,2024-02-07,2024-02-07,13,13
GB001-2001,EC,GB001-2001-DEU_SITE01-0012,14,PLACEBO,PERFORMED,Y,Y,,,,PLACEBO,mg,CAPSULE,QD,ORAL,4.0,WEEK 2,RUN_IN,2024-02-08,2024-02-08,14,14
GB001-2001,EC,GB001-2001-DEU_SITE01-0012,15,PLACEBO,PERFORMED,Y,Y,,,,PLACEBO,mg,CAPSULE,QD,ORAL,4.0,WEEK 2,RUN_IN,2024-02-09,2024-02-09,15,15
GB001-2001,EC,GB001-2001-DEU_SITE01-0012,16,PLACEBO,PERFORMED,Y,Y,,,,PLACEBO,mg,CAPSULE,QD,ORAL,4.0,WEEK 2,RUN_IN,2024-02-10,2024-02-10,16,16
GB001-2001,EC,GB001-2001-DEU_SITE01-0012,17,PLACEBO,PERFORMED,Y,Y,,,,PLACEBO,mg,CAPSULE,QD,ORAL,4.0,WEEK 2,RUN_IN,2024-02-11,2024-02-11,17,17
GB001-2001,EC,GB001-2001-DEU_SITE01-0012,18,PLACEBO,PERFORMED,Y,Y,,,,PLACEBO,mg,CAPSULE,QD,ORAL,4.0,WEEK 2,RUN_IN,2024-02-12,2024-02-12,18,18
GB001-2001,EC,GB001-2001-DEU_SITE01-0012,19,PLACEBO,PERFORMED,Y,Y,,,,PLACEBO,mg,CAPSULE,QD,ORAL,19.0,,RUN_IN,2024-02-13,2024-02-13,19,19
GB001-2001,EC,GB001-2001-DEU_SITE01-0012,20,PLACEBO,PERFORMED,Y,Y,,,,PLACEBO,mg,CAPSULE,QD,ORAL,20.0,,RUN_IN,2024-02-14,2024-02-14,20,20
GB001-2001,EC,GB001-2001-DEU_SITE01-0012,21,PLACEBO,PERFORMED,Y,Y,,,,PLACEBO,mg,CAPSULE,QD,ORAL,21.0,,RUN_IN,2024-02-15,2024-02-15,21,21
GB001-2001,EC,GB001-2001-DEU_SITE01-0012,22,PLACEBO,PERFORMED,Y,Y,,,,PLACEBO,mg,CAPSULE,QD,ORAL,22.0,,RUN_IN,2024-02-16,2024-02-16,22,22
GB001-2001,EC,GB001-2001-DEU_SITE01-0012,23,PLACEBO,PERFORMED,Y,Y,,,,PLACEBO,mg,CAPSULE,QD,ORAL,23.0,,RUN_IN,2024-02-17,2024-02-17,23,23
GB001-2001,EC,GB001-2001-DEU_SITE01-0012,24,PLACEBO,PERFORMED,Y,Y,,,,PLACEBO,mg,CAPSULE,QD,ORAL,24.0,,RUN_IN,2024-02-18,2024-02-18,24,24
GB001-2001,EC,GB001-2001-DEU_SITE01-0012,25,PLACEBO,PERFORMED,Y,Y,,,,PLACEBO,mg,CAPSULE,QD,ORAL,25.0,,RUN_IN,2024-02-19,2024-02-19,25,25
GB001-2001,EC,GB001-2001-DEU_SITE01-0012,26,PLACEBO,PERFORMED,Y,Y,,,,PLACEBO,mg,CAPSULE,QD,ORAL,5.0,WEEK 4,RUN_IN,2024-02-20,2024-02-20,26,26
GB001-2001,EC,GB001-2001-DEU_SITE01-0012,27,PLACEBO,PERFORMED,Y,Y,,,,PLACEBO,mg,CAPSULE,QD,ORAL,5.0,WEEK 4,RUN_IN,2024-02-21,2024-02-21,27,27
GB001-2001,EC,GB001-2001-DEU_SITE01-0012,28,PLACEBO,PERFORMED,Y,Y,,,,PLACEBO,mg,CAPSULE,QD,ORAL,5.0,WEEK 4,RUN_IN,2024-02-22,2024-02-22,28,28
GB001-2001,EC,GB001-2001-DEU_SITE01-0012,29,PLACEBO,PERFORMED,Y,Y,,,,PLACEBO,mg,CAPSULE,QD,ORAL,5.0,WEEK 4,TREATMENT,2024-02-23,2024-02-23,29,29
GB001-2001,EC,GB001-2001-DEU_SITE01-0012,30,PLACEBO,PERFORMED,Y,Y,,,,PLACEBO,mg,CAPSULE,QD,ORAL,5.0,WEEK 4,TREATMENT,2024-02-24,2024-02-24,30,30
GB001-2001,EC,GB001-2001-DEU_SITE01-0012,31,PLACEBO,PERFORMED,Y,Y,,,,PLACEBO,mg,CAPSULE,QD,ORAL,5.0,WEEK 4,TREATMENT,2024-02-25,2024-02-25,31,31
GB001-2001,EC,GB001-2001-DEU_SITE01-0012,32,PLACEBO,PERFORMED,Y,Y,,,,PLACEBO,mg,CAPSULE,QD,ORAL,5.0,WEEK 4,TREATMENT,2024-02-26,2024-02-26,32,32
GB001-2001,EC,GB001-2001-DEU_SITE01-0012,33,PLACEBO,PERFORMED,Y,Y,,,,PLACEBO,mg,CAPSULE,QD,ORAL,33.0,,TREATMENT,2024-02-27,2024-02-27,33,33
GB001-2001,EC,GB001-2001-DEU_SITE01-0012,34,PLACEBO,PERFORMED,Y,Y,,,,PLACEBO,mg,CAPSULE,QD,ORAL,34.0,,TREATMENT,2024-02-28,2024-02-28,34,34
GB001-2001,EC,GB001-2001-DEU_SITE01-0012,35,PLACEBO,PERFORMED,Y,Y,,,,PLACEBO,mg,CAPSULE,QD,ORAL,35.0,,TREATMENT,2024-02-29,2024-02-29,35,35
GB001-2001,EC,GB001-2001-DEU_SITE01-0012,36,PLACEBO,PERFORMED,Y,Y,,,,PLACEBO,mg,CAPSULE,QD,ORAL,36.0,,TREATMENT,2024-03-01,2024-03-01,36,36
GB001-2001,EC,GB001-2001-DEU_SITE01-0012,37,PLACEBO,PERFORMED,Y,Y,,,,PLACEBO,mg,CAPSULE,QD,ORAL,37.0,,TREATMENT,2024-03-02,2024-03-02,37,37
GB001-2001,EC,GB001-2001-DEU_SITE01-0012,38,PLACEBO,PERFORMED,Y,Y,,,,PLACEBO,mg,CAPSULE,QD,ORAL,38.0,,TREATMENT,2024-03-03,2024-03-03,38,38
GB001-2001,EC,GB001-2001-DEU_SITE01-0012,39,PLACEBO,PERFORMED,Y,Y,,,,PLACEBO,mg,CAPSULE,QD,ORAL,39.0,,TREATMENT,2024-03-04,2024-03-04,39,39
GB001-2001,EC,GB001-2001-DEU_SITE01-0012,40,PLACEBO,PERFORMED,Y,Y,,,,PLACEBO,mg,CAPSULE,QD,ORAL,40.0,,TREATMENT,2024-03-05,2024-03-05,40,40
GB001-2001,EC,GB001-2001-DEU_SITE01-0012,41,PLACEBO,PERFORMED,Y,Y,,,,PLACEBO,mg,CAPSULE,QD,ORAL,41.0,,TREATMENT,2024-03-06,2024-03-06,41,41
GB001-2001,EC,GB001-2001-DEU_SITE01-0012,42,PLACEBO,PERFORMED,Y,Y,,,,PLACEBO,mg,CAPSULE,QD,ORAL,42.0,,TREATMENT,2024-03-07,2024-03-07,42,42
GB001-2001,EC,GB001-2001-DEU_SITE01-0012,43,PLACEBO,PERFORMED,Y,Y,,,,PLACEBO,mg,CAPSULE,QD,ORAL,43.0,,TREATMENT,2024-03-08,2024-03-08,43,43
GB001-2001,EC,GB001-2001-DEU_SITE01-0012,44,PLACEBO,PERFORMED,Y,Y,,,,PLACEBO,mg,CAPSULE,QD,ORAL,44.0,,TREATMENT,2024-03-09,2024-03-09,44,44
GB001-2001,EC,GB001-2001-DEU_SITE01-0012,45,PLACEBO,PERFORMED,Y,Y,,,,PLACEBO,mg,CAPSULE,QD,ORAL,45.0,,TREATMENT,2024-03-10,2024-03-10,45,45
GB001-2001,EC,GB001-2001-DEU_SITE01-0012,46,PLACEBO,PERFORMED,Y,Y,,,,PLACEBO,mg,CAPSULE,QD,ORAL,46.0,,TREATMENT,2024-03-11,2024-03-11,46,46
GB001-2001,EC,GB001-2001-DEU_SITE01-0012,47,PLACEBO,PERFORMED,Y,Y,,,,PLACEBO,mg,CAPSULE,QD,ORAL,47.0,,TREATMENT,2024-03-12,2024-03-12,47,47
GB001-2001,EC,GB001-2001-DEU_SITE01-0012,48,PLACEBO,PERFORMED,Y,Y,,,,PLACEBO,mg,CAPSULE,QD,ORAL,48.0,,TREATMENT,2024-03-13,2024-03-13,48,48
GB001-2001,EC,GB001-2001-DEU_SITE01-0012,49,PLACEBO,PERFORMED,Y,Y,,,,PLACEBO,mg,CAPSULE,QD,ORAL,49.0,,TREATMENT,2024-03-14,2024-03-14,49,49
GB001-2001,EC,GB001-2001-DEU_SITE01-0012,50,PLACEBO,PERFORMED,Y,Y,,,,PLACEBO,mg,CAPSULE,QD,ORAL,50.0,,TREATMENT,2024-03-15,2024-03-15,50,50
GB001-2001,EC,GB001-2001-DEU_SITE01-0012,51,PLACEBO,PERFORMED,Y,Y,,,,PLACEBO,mg,CAPSULE,QD,ORAL,51.0,,TREATMENT,2024-03-16,2024-03-16,51,51
GB001-2001,EC,GB001-2001-DEU_SITE01-0012,52,PLACEBO,PERFORMED,Y,Y,,,,PLACEBO,mg,CAPSULE,QD,ORAL,52.0,,TREATMENT,2024-03-17,2024-03-17,52,52
GB001-2001,EC,GB001-2001-DEU_SITE01-0012,53,PLACEBO,PERFORMED,Y,Y,,,,PLACEBO,mg,CAPSULE,QD,ORAL,53.0,,TREATMENT,2024-03-18,2024-03-18,53,53
GB001-2001,EC,GB001-2001-DEU_SITE01-0012,54,PLACEBO,PERFORMED,Y,Y,,,,PLACEBO,mg,CAPSULE,QD,ORAL,6.0,WEEK 8,TREATMENT,2024-03-19,2024-03-19,54,54
GB001-2001,EC,GB001-2001-DEU_SITE01-0012,55,PLACEBO,PERFORMED,Y,Y,,,,PLACEBO,mg,CAPSULE,QD,ORAL,6.0,WEEK 8,TREATMENT,2024-03-20,2024-03-20,55,55
GB001-2001,EC,GB001-2001-DEU_SITE01-0012,56,PLACEBO,PERFORMED,Y,Y,,,,PLACEBO,mg,CAPSULE,QD,ORAL,6.0,WEEK 8,TREATMENT,2024-03-21,2024-03-21,56,56
GB001-2001,EC,GB001-2001-DEU_SITE01-0012,57,PLACEBO,PERFORMED,Y,Y,,,,PLACEBO,mg,CAPSULE,QD,ORAL,6.0,WEEK 8,TREATMENT,2024-03-22,2024-03-22,57,57
GB001-2001,EC,GB001-2001-DEU_SITE01-0012,58,PLACEBO,PERFORMED,Y,Y,,,,PLACEBO,mg,CAPSULE,QD,ORAL,6.0,WEEK 8,TREATMENT,2024-03-23,2024-03-23,58,58
GB001-2001,EC,GB001-2001-DEU_SITE01-0012,59,PLACEBO,PERFORMED,Y,Y,,,,PLACEBO,mg,CAPSULE,QD,ORAL,6.0,WEEK 8,TREATMENT,2024-03-24,2024-03-24,59,59
GB001-2001,EC,GB001-2001-DEU_SITE01-0012,60,PLACEBO,PERFORMED,Y,Y,,,,PLACEBO,mg,CAPSULE,QD,ORAL,6.0,WEEK 8,TREATMENT,2024-03-25,2024-03-25,60,60
GB001-2001,EC,GB001-2001-DEU_SITE01-0012,61,PLACEBO,PERFORMED,Y,Y,,,,PLACEBO,mg,CAPSULE,QD,ORAL,61.0,,TREATMENT,2024-03-26,2024-03-26,61,61
GB001-2001,EC,GB001-2001-DEU_SITE01-0012,62,PLACEBO,PERFORMED,Y,Y,,,,PLACEBO,mg,CAPSULE,QD,ORAL,62.0,,TREATMENT,2024-03-27,2024-03-27,62,62
GB001-2001,EC,GB001-2001-DEU_SITE01-0012,63,PLACEBO,PERFORMED,Y,Y,,,,PLACEBO,mg,CAPSULE,QD,ORAL,63.0,,TREATMENT,2024-03-28,2024-03-28,63,63
GB001-2001,EC,GB001-2001-DEU_SITE01-0012,64,PLACEBO,PERFORMED,Y,Y,,,,PLACEBO,mg,CAPSULE,QD,ORAL,64.0,,TREATMENT,2024-03-29,2024-03-29,64,64
GB001-2001,EC,GB001-2001-DEU_SITE01-0012,65,PLACEBO,PERFORMED,Y,Y,,,,PLACEBO,mg,CAPSULE,QD,ORAL,65.0,,TREATMENT,2024-03-30,2024-03-30,65,65
GB001-2001,EC,GB001-2001-DEU_SITE01-0012,66,PLACEBO,PERFORMED,Y,Y,,,,PLACEBO,mg,CAPSULE,QD,ORAL,66.0,,TREATMENT,2024-03-31,2024-03-31,66,66
GB001-2001,EC,GB001-2001-DEU_SITE01-0012,67,PLACEBO,PERFORMED,Y,Y,,,,PLACEBO,mg,CAPSULE,QD,ORAL,67.0,,TREATMENT,2024-04-01,2024-04-01,67,67
GB001-2001,EC,GB001-2001-DEU_SITE01-0012,68,PLACEBO,PERFORMED,Y,Y,,,,PLACEBO,mg,CAPSULE,QD,ORAL,68.0,,TREATMENT,2024-04-02,2024-04-02,68,68
GB001-2001,EC,GB001-2001-DEU_SITE01-0012,69,PLACEBO,PERFORMED,Y,Y,,,,PLACEBO,mg,CAPSULE,QD,ORAL,69.0,,TREATMENT,2024-04-03,2024-04-03,69,69
GB001-2001,EC,GB001-2001-DEU_SITE01-0012,70,PLACEBO,PERFORMED,Y,Y,,,,PLACEBO,mg,CAPSULE,QD,ORAL,70.0,,TREATMENT,2024-04-04,2024-04-04,70,70
GB001-2001,EC,GB001-2001-DEU_SITE01-0012,71,PLACEBO,PERFORMED,Y,Y,,,,PLACEBO,mg,CAPSULE,QD,ORAL,71.0,,TREATMENT,2024-04-05,2024-04-05,71,71
GB001-2001,EC,GB001-2001-DEU_SITE01-0012,72,PLACEBO,PERFORMED,Y,Y,,,,PLACEBO,mg,CAPSULE,QD,ORAL,72.0,,TREATMENT,2024-04-06,2024-04-06,72,72
GB001-2001,EC,GB001-2001-DEU_SITE01-0012,73,PLACEBO,PERFORMED,Y,Y,,,,PLACEBO,mg,CAPSULE,QD,ORAL,73.0,,TREATMENT,2024-04-07,2024-04-07,73,73
GB001-2001,EC,GB001-2001-DEU_SITE01-0012,74,PLACEBO,PERFORMED,Y,Y,,,,PLACEBO,mg,CAPSULE,QD,ORAL,74.0,,TREATMENT,2024-04-08,2024-04-08,74,74
GB001-2001,EC,GB001-2001-DEU_SITE01-0012,75,PLACEBO,PERFORMED,Y,Y,,,,PLACEBO,mg,CAPSULE,QD,ORAL,75.0,,TREATMENT,2024-04-09,2024-04-09,75,75
GB001-2001,EC,GB001-2001-DEU_SITE01-0012,76,PLACEBO,PERFORMED,Y,Y,,,,PLACEBO,mg,CAPSULE,QD,ORAL,76.0,,TREATMENT,2024-04-10,2024-04-10,76,76
GB001-2001,EC,GB001-2001-DEU_SITE01-0012,77,PLACEBO,PERFORMED,Y,Y,,,,PLACEBO,mg,CAPSULE,QD,ORAL,77.0,,TREATMENT,2024-04-11,2024-04-11,77,77
GB001-2001,EC,GB001-2001-DEU_SITE01-0012,78,PLACEBO,PERFORMED,Y,Y,,,,PLACEBO,mg,CAPSULE,QD,ORAL,78.0,,TREATMENT,2024-04-12,2024-04-12,78,78
GB001-2001,EC,GB001-2001-DEU_SITE01-0012,79,PLACEBO,PERFORMED,Y,Y,,,,PLACEBO,mg,CAPSULE,QD,ORAL,79.0,,TREATMENT,2024-04-13,2024-04-13,79,79
GB001-2001,EC,GB001-2001-DEU_SITE01-0012,80,PLACEBO,PERFORMED,Y,Y,,,,PLACEBO,mg,CAPSULE,QD,ORAL,80.0,,TREATMENT,2024-04-14,2024-04-14,80,80
GB001-2001,EC,GB001-2001-DEU_SITE01-0012,81,PLACEBO,PERFORMED,Y,Y,,,,PLACEBO,mg,CAPSULE,QD,ORAL,81.0,,TREATMENT,2024-04-15,2024-04-15,81,81
GB001-2001,EC,GB001-2001-DEU_SITE01-0012,82,PLACEBO,PERFORMED,Y,Y,,,,PLACEBO,mg,CAPSULE,QD,ORAL,7.0,WEEK 12,TREATMENT,2024-04-16,2024-04-16,82,82
GB001-2001,EC,GB001-2001-DEU_SITE01-0012,83,PLACEBO,PERFORMED,Y,Y,,,,PLACEBO,mg,CAPSULE,QD,ORAL,7.0,WEEK 12,TREATMENT,2024-04-17,2024-04-17,83,83
GB001-2001,EC,GB001-2001-DEU_SITE01-0012,84,PLACEBO,PERFORMED,Y,Y,,,,PLACEBO,mg,CAPSULE,QD,ORAL,7.0,WEEK 12,TREATMENT,2024-04-18,2024-04-18,84,84
GB001-2001,EC,GB001-2001-DEU_SITE01-0012,85,PLACEBO,PERFORMED,Y,Y,,,,PLACEBO,mg,CAPSULE,QD,ORAL,7.0,WEEK 12,TREATMENT,2024-04-19,2024-04-19,85,85
GB001-2001,EC,GB001-2001-DEU_SITE01-0012,86,PLACEBO,PERFORMED,Y,Y,,,,PLACEBO,mg,CAPSULE,QD,ORAL,7.0,WEEK 12,TREATMENT,2024-04-20,2024-04-20,86,86
GB001-2001,EC,GB001-2001-DEU_SITE01-0012,87,PLACEBO,PERFORMED,Y,Y,,,,PLACEBO,mg,CAPSULE,QD,ORAL,7.0,WEEK 12,TREATMENT,2024-04-21,2024-04-21,87,87
GB001-2001,EC,GB001-2001-DEU_SITE01-0012,88,PLACEBO,PERFORMED,Y,Y,,,,PLACEBO,mg,CAPSULE,QD,ORAL,7.0,WEEK 12,TREATMENT,2024-04-22,2024-04-22,88,88
GB001-2001,EC,GB001-2001-DEU_SITE01-0012,89,PLACEBO,PERFORMED,Y,Y,,,,PLACEBO,mg,CAPSULE,QD,ORAL,89.0,,TREATMENT,2024-04-23,2024-04-23,89,89
GB001-2001,EC,GB001-2001-DEU_SITE01-0012,90,PLACEBO,PERFORMED,Y,Y,,,,PLACEBO,mg,CAPSULE,QD,ORAL,90.0,,TREATMENT,2024-04-24,2024-04-24,90,90
GB001-2001,EC,GB001-2001-DEU_SITE01-0012,91,PLACEBO,PERFORMED,Y,Y,,,,PLACEBO,mg,CAPSULE,QD,ORAL,91.0,,TREATMENT,2024-04-25,2024-04-25,91,91
GB001-2001,EC,GB001-2001-DEU_SITE01-0012,92,PLACEBO,PERFORMED,Y,Y,,,,PLACEBO,mg,CAPSULE,QD,ORAL,92.0,,TREATMENT,2024-04-26,2024-04-26,92,92
GB001-2001,EC,GB001-2001-DEU_SITE01-0012,93,PLACEBO,PERFORMED,Y,Y,,,,PLACEBO,mg,CAPSULE,QD,ORAL,93.0,,TREATMENT,2024-04-27,2024-04-27,93,93
GB001-2001,EC,GB001-2001-DEU_SITE01-0012,94,PLACEBO,PERFORMED,Y,Y,,,,PLACEBO,mg,CAPSULE,QD,ORAL,94.0,,TREATMENT,2024-04-28,2024-04-28,94,94
GB001-2001,EC,GB001-2001-DEU_SITE01-0012,95,PLACEBO,PERFORMED,Y,Y,,,,PLACEBO,mg,CAPSULE,QD,ORAL,95.0,,TREATMENT,2024-04-29,2024-04-29,95,95
GB001-2001,EC,GB001-2001-DEU_SITE01-0012,96,PLACEBO,PERFORMED,Y,Y,,,,PLACEBO,mg,CAPSULE,QD,ORAL,96.0,,TREATMENT,2024-04-30,2024-04-30,96,96
GB001-2001,EC,GB001-2001-DEU_SITE01-0012,97,PLACEBO,PERFORMED,Y,Y,,,,PLACEBO,mg,CAPSULE,QD,ORAL,97.0,,TREATMENT,2024-05-01,2024-05-01,97,97
GB001-2001,EC,GB001-2001-DEU_SITE01-0012,98,PLACEBO,PERFORMED,Y,Y,,,,PLACEBO,mg,CAPSULE,QD,ORAL,98.0,,TREATMENT,2024-05-02,2024-05-02,98,98
GB001-2001,EC,GB001-2001-DEU_SITE01-0012,99,PLACEBO,PERFORMED,Y,Y,,,,PLACEBO,mg,CAPSULE,QD,ORAL,99.0,,TREATMENT,2024-05-03,2024-05-03,99,99
GB001-2001,EC,GB001-2001-DEU_SITE01-0012,100,PLACEBO,PERFORMED,Y,Y,,,,PLACEBO,mg,CAPSULE,QD,ORAL,100.0,,TREATMENT,2024-05-04,2024-05-04,100,100
GB001-2001,EC,GB001-2001-DEU_SITE01-0012,101,PLACEBO,PERFORMED,Y,Y,,,,PLACEBO,mg,CAPSULE,QD,ORAL,101.0,,TREATMENT,2024-05-05,2024-05-05,101,101
GB001-2001,EC,GB001-2001-DEU_SITE01-0012,102,PLACEBO,PERFORMED,Y,Y,,,,PLACEBO,mg,CAPSULE,QD,ORAL,102.0,,TREATMENT,2024-05-06,2024-05-06,102,102
GB001-2001,EC,GB001-2001-DEU_SITE01-0012,103,PLACEBO,PERFORMED,Y,Y,,,,PLACEBO,mg,CAPSULE,QD,ORAL,103.0,,TREATMENT,2024-05-07,2024-05-07,103,103
GB001-2001,EC,GB001-2001-DEU_SITE01-0012,104,PLACEBO,PERFORMED,Y,Y,,,,PLACEBO,mg,CAPSULE,QD,ORAL,104.0,,TREATMENT,2024-05-08,2024-05-08,104,104
GB001-2001,EC,GB001-2001-DEU_SITE01-0012,105,PLACEBO,PERFORMED,Y,Y,,,,PLACEBO,mg,CAPSULE,QD,ORAL,105.0,,TREATMENT,2024-05-09,2024-05-09,105,105
GB001-2001,EC,GB001-2001-DEU_SITE01-0012,106,PLACEBO,PERFORMED,Y,Y,,,,PLACEBO,mg,CAPSULE,QD,ORAL,106.0,,TREATMENT,2024-05-10,2024-05-10,106,106
GB001-2001,EC,GB001-2001-DEU_SITE01-0012,107,PLACEBO,PERFORMED,Y,Y,,,,PLACEBO,mg,CAPSULE,QD,ORAL,107.0,,TREATMENT,2024-05-11,2024-05-11,107,107
GB001-2001,EC,GB001-2001-DEU_SITE01-0012,108,PLACEBO,PERFORMED,Y,Y,,,,PLACEBO,mg,CAPSULE,QD,ORAL,108.0,,TREATMENT,2024-05-12,2024-05-12,108,108
GB001-2001,EC,GB001-2001-DEU_SITE01-0012,109,PLACEBO,PERFORMED,Y,Y,,,,PLACEBO,mg,CAPSULE,QD,ORAL,109.0,,TREATMENT,2024-05-13,2024-05-13,109,109
GB001-2001,EC,GB001-2001-DEU_SITE01-0012,110,PLACEBO,PERFORMED,Y,Y,,,,PLACEBO,mg,CAPSULE,QD,ORAL,8.0,WEEK 16,TREATMENT,2024-05-14,2024-05-14,110,110
GB001-2001,EC,GB001-2001-DEU_SITE01-0012,111,PLACEBO,PERFORMED,Y,Y,,,,PLACEBO,mg,CAPSULE,QD,ORAL,8.0,WEEK 16,TREATMENT,2024-05-15,2024-05-15,111,111
GB001-2001,EC,GB001-2001-DEU_SITE01-0012,112,PLACEBO,PERFORMED,Y,Y,,,,PLACEBO,mg,CAPSULE,QD,ORAL,8.0,WEEK 16,TREATMENT,2024-05-16,2024-05-16,112,112
GB001-2001,EC,GB001-2001-DEU_SITE01-0012,113,PLACEBO,PERFORMED,Y,Y,,,,PLACEBO,mg,CAPSULE,QD,ORAL,8.0,WEEK 16,TREATMENT,2024-05-17,2024-05-17,113,113
GB001-2001,EC,GB001-2001-DEU_SITE01-0012,114,PLACEBO,PERFORMED,Y,Y,,,,PLACEBO,mg,CAPSULE,QD,ORAL,8.0,WEEK 16,TREATMENT,2024-05-18,2024-05-18,114,114
GB001-2001,EC,GB001-2001-DEU_SITE01-0012,115,PLACEBO,PERFORMED,Y,Y,,,,PLACEBO,mg,CAPSULE,QD,ORAL,8.0,WEEK 16,TREATMENT,2024-05-19,2024-05-19,115,115
GB001-2001,EC,GB001-2001-DEU_SITE01-0012,116,PLACEBO,PERFORMED,Y,Y,,,,PLACEBO,mg,CAPSULE,QD,ORAL,8.0,WEEK 16,TREATMENT,2024-05-20,2024-05-20,116,116
GB001-2001,EC,GB001-2001-DEU_SITE01-0012,117,PLACEBO,PERFORMED,Y,Y,,,,PLACEBO,mg,CAPSULE,QD,ORAL,117.0,,TREATMENT,2024-05-21,2024-05-21,117,117
GB001-2001,EC,GB001-2001-DEU_SITE01-0012,118,PLACEBO,PERFORMED,Y,Y,,,,PLACEBO,mg,CAPSULE,QD,ORAL,118.0,,TREATMENT,2024-05-22,2024-05-22,118,118
GB001-2001,EC,GB001-2001-DEU_SITE01-0012,119,PLACEBO,PERFORMED,Y,Y,,,,PLACEBO,mg,CAPSULE,QD,ORAL,119.0,,TREATMENT,2024-05-23,2024-05-23,119,119
GB001-2001,EC,GB001-2001-DEU_SITE01-0012,120,PLACEBO,PERFORMED,Y,Y,,,,PLACEBO,mg,CAPSULE,QD,ORAL,120.0,,TREATMENT,2024-05-24,2024-05-24,120,120
GB001-2001,EC,GB001-2001-DEU_SITE01-0012,121,PLACEBO,PERFORMED,Y,Y,,,,PLACEBO,mg,CAPSULE,QD,ORAL,121.0,,TREATMENT,2024-05-25,2024-05-25,121,121
GB001-2001,EC,GB001-2001-DEU_SITE01-0012,122,PLACEBO,PERFORMED,Y,Y,,,,PLACEBO,mg,CAPSULE,QD,ORAL,122.0,,TREATMENT,2024-05-26,2024-05-26,122,122
GB001-2001,EC,GB001-2001-DEU_SITE01-0012,123,PLACEBO,PERFORMED,Y,Y,,,,PLACEBO,mg,CAPSULE,QD,ORAL,123.0,,TREATMENT,2024-05-27,2024-05-27,123,123
GB001-2001,EC,GB001-2001-DEU_SITE01-0012,124,PLACEBO,PERFORMED,Y,Y,,,,PLACEBO,mg,CAPSULE,QD,ORAL,124.0,,TREATMENT,2024-05-28,2024-05-28,124,124
GB001-2001,EC,GB001-2001-DEU_SITE01-0012,125,PLACEBO,PERFORMED,Y,Y,,,,PLACEBO,mg,CAPSULE,QD,ORAL,125.0,,TREATMENT,2024-05-29,2024-05-29,125,125
GB001-2001,EC,GB001-2001-DEU_SITE01-0012,126,PLACEBO,PERFORMED,Y,Y,,,,PLACEBO,mg,CAPSULE,QD,ORAL,126.0,,TREATMENT,2024-05-30,2024-05-30,126,126
GB001-2001,EC,GB001-2001-DEU_SITE01-0012,127,PLACEBO,PERFORMED,Y,Y,,,,PLACEBO,mg,CAPSULE,QD,ORAL,127.0,,TREATMENT,2024-05-31,2024-05-31,127,127
GB001-2001,EC,GB001-2001-DEU_SITE01-0012,128,PLACEBO,PERFORMED,Y,Y,,,,PLACEBO,mg,CAPSULE,QD,ORAL,128.0,,TREATMENT,2024-06-01,2024-06-01,128,128
GB001-2001,EC,GB001-2001-DEU_SITE01-0012,129,PLACEBO,PERFORMED,Y,Y,,,,PLACEBO,mg,CAPSULE,QD,ORAL,129.0,,TREATMENT,2024-06-02,2024-06-02,129,129
GB001-2001,EC,GB001-2001-DEU_SITE01-0012,130,PLACEBO,PERFORMED,Y,Y,,,,PLACEBO,mg,CAPSULE,QD,ORAL,130.0,,TREATMENT,2024-06-03,2024-06-03,130,130
GB001-2001,EC,GB001-2001-DEU_SITE01-0012,131,PLACEBO,PERFORMED,Y,Y,,,,PLACEBO,mg,CAPSULE,QD,ORAL,131.0,,TREATMENT,2024-06-04,2024-06-04,131,131
GB001-2001,EC,GB001-2001-DEU_SITE01-0012,132,PLACEBO,PERFORMED,Y,Y,,,,PLACEBO,mg,CAPSULE,QD,ORAL,132.0,,TREATMENT,2024-06-05,2024-06-05,132,132
GB001-2001,EC,GB001-2001-DEU_SITE01-0012,133,PLACEBO,PERFORMED,Y,Y,,,,PLACEBO,mg,CAPSULE,QD,ORAL,133.0,,TREATMENT,2024-06-06,2024-06-06,133,133
GB001-2001,EC,GB001-2001-DEU_SITE01-0012,134,PLACEBO,PERFORMED,Y,Y,,,,PLACEBO,mg,CAPSULE,QD,ORAL,134.0,,TREATMENT,2024-06-07,2024-06-07,134,134
GB001-2001,EC,GB001-2001-DEU_SITE01-0012,135,PLACEBO,PERFORMED,Y,Y,,,,PLACEBO,mg,CAPSULE,QD,ORAL,135.0,,TREATMENT,2024-06-08,2024-06-08,135,135
GB001-2001,EC,GB001-2001-DEU_SITE01-0012,136,PLACEBO,PERFORMED,Y,Y,,,,PLACEBO,mg,CAPSULE,QD,ORAL,136.0,,TREATMENT,2024-06-09,2024-06-09,136,136
GB001-2001,EC,GB001-2001-DEU_SITE01-0012,137,PLACEBO,PERFORMED,Y,Y,,,,PLACEBO,mg,CAPSULE,QD,ORAL,137.0,,TREATMENT,2024-06-10,2024-06-10,137,137
GB001-2001,EC,GB001-2001-DEU_SITE01-0012,138,PLACEBO,PERFORMED,Y,Y,,,,PLACEBO,mg,CAPSULE,QD,ORAL,9.0,WEEK 20,TREATMENT,2024-06-11,2024-06-11,138,138
GB001-2001,EC,GB001-2001-DEU_SITE01-0012,139,PLACEBO,PERFORMED,Y,Y,,,,PLACEBO,mg,CAPSULE,QD,ORAL,9.0,WEEK 20,TREATMENT,2024-06-12,2024-06-12,139,139
GB001-2001,EC,GB001-2001-DEU_SITE01-0012,140,PLACEBO,PERFORMED,Y,Y,,,,PLACEBO,mg,CAPSULE,QD,ORAL,9.0,WEEK 20,TREATMENT,2024-06-13,2024-06-13,140,140
GB001-2001,EC,GB001-2001-DEU_SITE01-0012,141,PLACEBO,PERFORMED,Y,Y,,,,PLACEBO,mg,CAPSULE,QD,ORAL,9.0,WEEK 20,TREATMENT,2024-06-14,2024-06-14,141,141
GB001-2001,EC,GB001-2001-DEU_SITE01-0012,142,PLACEBO,PERFORMED,Y,Y,,,,PLACEBO,mg,CAPSULE,QD,ORAL,9.0,WEEK 20,TREATMENT,2024-06-15,2024-06-15,142,142
GB001-2001,EC,GB001-2001-DEU_SITE01-0012,143,PLACEBO,PERFORMED,Y,Y,,,,PLACEBO,mg,CAPSULE,QD,ORAL,9.0,WEEK 20,TREATMENT,2024-06-16,2024-06-16,143,143
GB001-2001,EC,GB001-2001-DEU_SITE01-0012,144,PLACEBO,PERFORMED,Y,Y,,,,PLACEBO,mg,CAPSULE,QD,ORAL,9.0,WEEK 20,TREATMENT,2024-06-17,2024-06-17,144,144
GB001-2001,EC,GB001-2001-DEU_SITE01-0012,145,PLACEBO,PERFORMED,Y,Y,,,,PLACEBO,mg,CAPSULE,QD,ORAL,145.0,,TREATMENT,2024-06-18,2024-06-18,145,145
GB001-2001,EC,GB001-2001-DEU_SITE01-0012,146,PLACEBO,PERFORMED,Y,Y,,,,PLACEBO,mg,CAPSULE,QD,ORAL,146.0,,TREATMENT,2024-06-19,2024-06-19,146,146
GB001-2001,EC,GB001-2001-DEU_SITE01-0012,147,PLACEBO,PERFORMED,Y,Y,,,,PLACEBO,mg,CAPSULE,QD,ORAL,147.0,,TREATMENT,2024-06-20,2024-06-20,147,147
GB001-2001,EC,GB001-2001-DEU_SITE01-0012,148,PLACEBO,PERFORMED,Y,Y,,,,PLACEBO,mg,CAPSULE,QD,ORAL,148.0,,TREATMENT,2024-06-21,2024-06-21,148,148
GB001-2001,EC,GB001-2001-DEU_SITE01-0012,149,PLACEBO,PERFORMED,Y,Y,,,,PLACEBO,mg,CAPSULE,QD,ORAL,149.0,,TREATMENT,2024-06-22,2024-06-22,149,149
GB001-2001,EC,GB001-2001-DEU_SITE01-0012,150,PLACEBO,PERFORMED,Y,Y,,,,PLACEBO,mg,CAPSULE,QD,ORAL,150.0,,TREATMENT,2024-06-23,2024-06-23,150,150
GB001-2001,EC,GB001-2001-DEU_SITE01-0012,151,PLACEBO,PERFORMED,Y,Y,,,,PLACEBO,mg,CAPSULE,QD,ORAL,151.0,,TREATMENT,2024-06-24,2024-06-24,151,151
GB001-2001,EC,GB001-2001-DEU_SITE01-0012,152,PLACEBO,PERFORMED,Y,Y,,,,PLACEBO,mg,CAPSULE,QD,ORAL,152.0,,TREATMENT,2024-06-25,2024-06-25,152,152
GB001-2001,EC,GB001-2001-DEU_SITE01-0012,153,PLACEBO,PERFORMED,Y,Y,,,,PLACEBO,mg,CAPSULE,QD,ORAL,153.0,,TREATMENT,2024-06-26,2024-06-26,153,153
GB001-2001,EC,GB001-2001-DEU_SITE01-0012,154,PLACEBO,PERFORMED,Y,Y,,,,PLACEBO,mg,CAPSULE,QD,ORAL,154.0,,TREATMENT,2024-06-27,2024-06-27,154,154
GB001-2001,EC,GB001-2001-DEU_SITE01-0012,155,PLACEBO,PERFORMED,Y,Y,,,,PLACEBO,mg,CAPSULE,QD,ORAL,155.0,,TREATMENT,2024-06-28,2024-06-28,155,155
GB001-2001,EC,GB001-2001-DEU_SITE01-0012,156,PLACEBO,PERFORMED,Y,Y,,,,PLACEBO,mg,CAPSULE,QD,ORAL,156.0,,TREATMENT,2024-06-29,2024-06-29,156,156
GB001-2001,EC,GB001-2001-DEU_SITE01-0012,157,PLACEBO,PERFORMED,Y,Y,,,,PLACEBO,mg,CAPSULE,QD,ORAL,157.0,,TREATMENT,2024-06-30,2024-06-30,157,157
GB001-2001,EC,GB001-2001-DEU_SITE01-0012,158,PLACEBO,PERFORMED,Y,Y,,,,PLACEBO,mg,CAPSULE,QD,ORAL,158.0,,TREATMENT,2024-07-01,2024-07-01,158,158
GB001-2001,EC,GB001-2001-DEU_SITE01-0012,159,PLACEBO,PERFORMED,Y,Y,,,,PLACEBO,mg,CAPSULE,QD,ORAL,159.0,,TREATMENT,2024-07-02,2024-07-02,159,159
GB001-2001,EC,GB001-2001-DEU_SITE01-0012,160,PLACEBO,PERFORMED,Y,Y,,,,PLACEBO,mg,CAPSULE,QD,ORAL,160.0,,TREATMENT,2024-07-03,2024-07-03,160,160
GB001-2001,EC,GB001-2001-DEU_SITE01-0012,161,PLACEBO,PERFORMED,Y,Y,,,,PLACEBO,mg,CAPSULE,QD,ORAL,161.0,,TREATMENT,2024-07-04,2024-07-04,161,161
GB001-2001,EC,GB001-2001-DEU_SITE01-0012,162,PLACEBO,PERFORMED,Y,Y,,,,PLACEBO,mg,CAPSULE,QD,ORAL,162.0,,TREATMENT,2024-07-05,2024-07-05,162,162
GB001-2001,EC,GB001-2001-DEU_SITE01-0012,163,PLACEBO,PERFORMED,Y,Y,,,,PLACEBO,mg,CAPSULE,QD,ORAL,163.0,,TREATMENT,2024-07-06,2024-07-06,163,163
GB001-2001,EC,GB001-2001-DEU_SITE01-0012,164,PLACEBO,PERFORMED,Y,Y,,,,PLACEBO,mg,CAPSULE,QD,ORAL,164.0,,TREATMENT,2024-07-07,2024-07-07,164,164
GB001-2001,EC,GB001-2001-DEU_SITE01-0012,165,PLACEBO,PERFORMED,Y,Y,,,,PLACEBO,mg,CAPSULE,QD,ORAL,165.0,,TREATMENT,2024-07-08,2024-07-08,165,165
GB001-2001,EC,GB001-2001-DEU_SITE01-0012,166,PLACEBO,PERFORMED,Y,Y,,,,PLACEBO,mg,CAPSULE,QD,ORAL,10.0,WEEK 24 EOT,TREATMENT,2024-07-09,2024-07-09,166,166
GB001-2001,EC,GB001-2001-DEU_SITE01-0012,167,PLACEBO,PERFORMED,Y,Y,,,,PLACEBO,mg,CAPSULE,QD,ORAL,10.0,WEEK 24 EOT,TREATMENT,2024-07-10,2024-07-10,167,167
GB001-2001,EC,GB001-2001-DEU_SITE01-0012,168,PLACEBO,PERFORMED,Y,Y,,,,PLACEBO,mg,CAPSULE,QD,ORAL,10.0,WEEK 24 EOT,TREATMENT,2024-07-11,2024-07-11,168,168
GB001-2001,EC,GB001-2001-FRA_SITE01-0001,1,GB001,PERFORMED,Y,Y,,,40.0,,mg,CAPSULE,QD,ORAL,3.0,RANDOMIZATION,RUN_IN,2024-04-10,2024-04-10,1,1
GB001-2001,EC,GB001-2001-FRA_SITE01-0001,2,GB001,PERFORMED,Y,Y,,,40.0,,mg,CAPSULE,QD,ORAL,3.0,RANDOMIZATION,RUN_IN,2024-04-11,2024-04-11,2,2
GB001-2001,EC,GB001-2001-ITA_SITE01-0017,1,PLACEBO,SCHEDULED,Y,,NOT DONE,SUBJECT NON-COMPLIANCE,,,mg,CAPSULE,QD,ORAL,3.0,RANDOMIZATION,RUN_IN,2024-03-11,2024-03-11,1,1
GB001-2001,EC,GB001-2001-ITA_SITE01-0017,2,PLACEBO,SCHEDULED,Y,,NOT DONE,SUBJECT NON-COMPLIANCE,,,mg,CAPSULE,QD,ORAL,3.0,RANDOMIZATION,RUN_IN,2024-03-12,2024-03-12,2,2
GB001-2001,EC,GB001-2001-ITA_SITE01-0017,3,PLACEBO,PERFORMED,Y,Y,,,,PLACEBO,mg,CAPSULE,QD,ORAL,3.0,RANDOMIZATION,RUN_IN,2024-03-13,2024-03-13,3,3
GB001-2001,EC,GB001-2001-ITA_SITE01-0017,4,PLACEBO,PERFORMED,Y,Y,,,,PLACEBO,mg,CAPSULE,QD,ORAL,3.0,RANDOMIZATION,RUN_IN,2024-03-14,2024-03-14,4,4
GB001-2001,EC,GB001-2001-ITA_SITE01-0017,5,PLACEBO,PERFORMED,Y,Y,,,,PLACEBO,mg,CAPSULE,QD,ORAL,5.0,,RUN_IN,2024-03-15,2024-03-15,5,5
GB001-2001,EC,GB001-2001-ITA_SITE01-0017,6,PLACEBO,PERFORMED,Y,Y,,,,PLACEBO,mg,CAPSULE,QD,ORAL,6.0,,RUN_IN,2024-03-16,2024-03-16,6,6
GB001-2001,EC,GB001-2001-ITA_SITE01-0017,7,PLACEBO,PERFORMED,Y,Y,,,,PLACEBO,mg,CAPSULE,QD,ORAL,7.0,,RUN_IN,2024-03-17,2024-03-17,7,7
GB001-2001,EC,GB001-2001-ITA_SITE01-0017,8,PLACEBO,PERFORMED,Y,Y,,,,PLACEBO,mg,CAPSULE,QD,ORAL,8.0,,RUN_IN,2024-03-18,2024-03-18,8,8
GB001-2001,EC,GB001-2001-ITA_SITE01-0017,9,PLACEBO,SCHEDULED,Y,,NOT DONE,SUBJECT NON-COMPLIANCE,,,mg,CAPSULE,QD,ORAL,9.0,,RUN_IN,2024-03-19,2024-03-19,9,9
GB001-2001,EC,GB001-2001-ITA_SITE01-0017,10,PLACEBO,SCHEDULED,Y,,NOT DONE,SUBJECT NON-COMPLIANCE,,,mg,CAPSULE,QD,ORAL,10.0,,RUN_IN,2024-03-20,2024-03-20,10,10
GB001-2001,EC,GB001-2001-ITA_SITE01-0017,11,PLACEBO,PERFORMED,Y,Y,,,,PLACEBO,mg,CAPSULE,QD,ORAL,11.0,,RUN_IN,2024-03-21,2024-03-21,11,11
GB001-2001,EC,GB001-2001-ITA_SITE01-0017,12,PLACEBO,PERFORMED,Y,Y,,,,PLACEBO,mg,CAPSULE,QD,ORAL,4.0,WEEK 2,RUN_IN,2024-03-22,2024-03-22,12,12
GB001-2001,EC,GB001-2001-ITA_SITE01-0017,13,PLACEBO,PERFORMED,Y,Y,,,,PLACEBO,mg,CAPSULE,QD,ORAL,4.0,WEEK 2,RUN_IN,2024-03-23,2024-03-23,13,13
GB001-2001,EC,GB001-2001-ITA_SITE01-0017,14,PLACEBO,PERFORMED,Y,Y,,,,PLACEBO,mg,CAPSULE,QD,ORAL,4.0,WEEK 2,RUN_IN,2024-03-24,2024-03-24,14,14
GB001-2001,EC,GB001-2001-ITA_SITE01-0017,15,PLACEBO,PERFORMED,Y,Y,,,,PLACEBO,mg,CAPSULE,QD,ORAL,4.0,WEEK 2,RUN_IN,2024-03-25,2024-03-25,15,15
GB001-2001,EC,GB001-2001-ITA_SITE01-0017,16,PLACEBO,SCHEDULED,Y,,NOT DONE,SUBJECT NON-COMPLIANCE,,,mg,CAPSULE,QD,ORAL,4.0,WEEK 2,RUN_IN,2024-03-26,2024-03-26,16,16
GB001-2001,EC,GB001-2001-ITA_SITE01-0017,17,PLACEBO,PERFORMED,Y,Y,,,,PLACEBO,mg,CAPSULE,QD,ORAL,4.0,WEEK 2,RUN_IN,2024-03-27,2024-03-27,17,17
GB001-2001,EC,GB001-2001-ITA_SITE01-0017,18,PLACEBO,PERFORMED,Y,Y,,,,PLACEBO,mg,CAPSULE,QD,ORAL,4.0,WEEK 2,RUN_IN,2024-03-28,2024-03-28,18,18
GB001-2001,EC,GB001-2001-ITA_SITE01-0017,19,PLACEBO,PERFORMED,Y,Y,,,,PLACEBO,mg,CAPSULE,QD,ORAL,19.0,,RUN_IN,2024-03-29,2024-03-29,19,19
GB001-2001,EC,GB001-2001-ITA_SITE01-0017,20,PLACEBO,PERFORMED,Y,Y,,,,PLACEBO,mg,CAPSULE,QD,ORAL,20.0,,RUN_IN,2024-03-30,2024-03-30,20,20
GB001-2001,EC,GB001-2001-ITA_SITE01-0017,21,PLACEBO,PERFORMED,Y,Y,,,,PLACEBO,mg,CAPSULE,QD,ORAL,21.0,,RUN_IN,2024-03-31,2024-03-31,21,21
GB001-2001,EC,GB001-2001-ITA_SITE01-0017,22,PLACEBO,PERFORMED,Y,Y,,,,PLACEBO,mg,CAPSULE,QD,ORAL,22.0,,RUN_IN,2024-04-01,2024-04-01,22,22
GB001-2001,EC,GB001-2001-ITA_SITE01-0017,23,PLACEBO,PERFORMED,Y,Y,,,,PLACEBO,mg,CAPSULE,QD,ORAL,23.0,,RUN_IN,2024-04-02,2024-04-02,23,23
GB001-2001,EC,GB001-2001-ITA_SITE01-0017,24,PLACEBO,PERFORMED,Y,Y,,,,PLACEBO,mg,CAPSULE,QD,ORAL,24.0,,RUN_IN,2024-04-03,2024-04-03,24,24
GB001-2001,EC,GB001-2001-ITA_SITE01-0017,25,PLACEBO,SCHEDULED,Y,,NOT DONE,SUBJECT NON-COMPLIANCE,,,mg,CAPSULE,QD,ORAL,25.0,,RUN_IN,2024-04-04,2024-04-04,25,25
GB001-2001,EC,GB001-2001-ITA_SITE01-0017,26,PLACEBO,PERFORMED,Y,Y,,,,PLACEBO,mg,CAPSULE,QD,ORAL,5.0,WEEK 4,RUN_IN,2024-04-05,2024-04-05,26,26
GB001-2001,EC,GB001-2001-ITA_SITE01-0017,27,PLACEBO,PERFORMED,Y,Y,,,,PLACEBO,mg,CAPSULE,QD,ORAL,5.0,WEEK 4,RUN_IN,2024-04-06,2024-04-06,27,27
GB001-2001,EC,GB001-2001-ITA_SITE01-0017,28,PLACEBO,PERFORMED,Y,Y,,,,PLACEBO,mg,CAPSULE,QD,ORAL,5.0,WEEK 4,RUN_IN,2024-04-07,2024-04-07,28,28
GB001-2001,EC,GB001-2001-ITA_SITE01-0017,29,PLACEBO,PERFORMED,Y,Y,,,,PLACEBO,mg,CAPSULE,QD,ORAL,5.0,WEEK 4,TREATMENT,2024-04-08,2024-04-08,29,29
GB001-2001,EC,GB001-2001-ITA_SITE01-0017,30,PLACEBO,PERFORMED,Y,Y,,,,PLACEBO,mg,CAPSULE,QD,ORAL,5.0,WEEK 4,TREATMENT,2024-04-09,2024-04-09,30,30
GB001-2001,EC,GB001-2001-ITA_SITE01-0017,31,PLACEBO,PERFORMED,Y,Y,,,,PLACEBO,mg,CAPSULE,QD,ORAL,5.0,WEEK 4,TREATMENT,2024-04-10,2024-04-10,31,31
GB001-2001,EC,GB001-2001-ITA_SITE01-0017,32,PLACEBO,PERFORMED,Y,Y,,,,PLACEBO,mg,CAPSULE,QD,ORAL,5.0,WEEK 4,TREATMENT,2024-04-11,2024-04-11,32,32
GB001-2001,EC,GB001-2001-ITA_SITE01-0017,33,PLACEBO,PERFORMED,Y,Y,,,,PLACEBO,mg,CAPSULE,QD,ORAL,33.0,,TREATMENT,2024-04-12,2024-04-12,33,33
GB001-2001,EC,GB001-2001-ITA_SITE01-0017,34,PLACEBO,PERFORMED,Y,Y,,,,PLACEBO,mg,CAPSULE,QD,ORAL,34.0,,TREATMENT,2024-04-13,2024-04-13,34,34
GB001-2001,EC,GB001-2001-ITA_SITE01-0017,35,PLACEBO,PERFORMED,Y,Y,,,,PLACEBO,mg,CAPSULE,QD,ORAL,35.0,,TREATMENT,2024-04-14,2024-04-14,35,35
GB001-2001,EC,GB001-2001-ITA_SITE01-0017,36,PLACEBO,PERFORMED,Y,Y,,,,PLACEBO,mg,CAPSULE,QD,ORAL,36.0,,TREATMENT,2024-04-15,2024-04-15,36,36
GB001-2001,EC,GB001-2001-ITA_SITE01-0017,37,PLACEBO,PERFORMED,Y,Y,,,,PLACEBO,mg,CAPSULE,QD,ORAL,37.0,,TREATMENT,2024-04-16,2024-04-16,37,37
GB001-2001,EC,GB001-2001-ITA_SITE01-0017,38,PLACEBO,PERFORMED,Y,Y,,,,PLACEBO,mg,CAPSULE,QD,ORAL,38.0,,TREATMENT,2024-04-17,2024-04-17,38,38
GB001-2001,EC,GB001-2001-ITA_SITE01-0017,39,PLACEBO,PERFORMED,Y,Y,,,,PLACEBO,mg,CAPSULE,QD,ORAL,39.0,,TREATMENT,2024-04-18,2024-04-18,39,39
GB001-2001,EC,GB001-2001-ITA_SITE01-0017,40,PLACEBO,PERFORMED,Y,Y,,,,PLACEBO,mg,CAPSULE,QD,ORAL,40.0,,TREATMENT,2024-04-19,2024-04-19,40,40
GB001-2001,EC,GB001-2001-ITA_SITE01-0017,41,PLACEBO,PERFORMED,Y,Y,,,,PLACEBO,mg,CAPSULE,QD,ORAL,41.0,,TREATMENT,2024-04-20,2024-04-20,41,41
GB001-2001,EC,GB001-2001-ITA_SITE01-0017,42,PLACEBO,PERFORMED,Y,Y,,,,PLACEBO,mg,CAPSULE,QD,ORAL,42.0,,TREATMENT,2024-04-21,2024-04-21,42,42
GB001-2001,EC,GB001-2001-ITA_SITE01-0017,43,PLACEBO,PERFORMED,Y,Y,,,,PLACEBO,mg,CAPSULE,QD,ORAL,43.0,,TREATMENT,2024-04-22,2024-04-22,43,43
GB001-2001,EC,GB001-2001-ITA_SITE01-0017,44,PLACEBO,PERFORMED,Y,Y,,,,PLACEBO,mg,CAPSULE,QD,ORAL,44.0,,TREATMENT,2024-04-23,2024-04-23,44,44
GB001-2001,EC,GB001-2001-ITA_SITE01-0017,45,PLACEBO,PERFORMED,Y,Y,,,,PLACEBO,mg,CAPSULE,QD,ORAL,45.0,,TREATMENT,2024-04-24,2024-04-24,45,45
GB001-2001,EC,GB001-2001-ITA_SITE01-0017,46,PLACEBO,PERFORMED,Y,Y,,,,PLACEBO,mg,CAPSULE,QD,ORAL,46.0,,TREATMENT,2024-04-25,2024-04-25,46,46
GB001-2001,EC,GB001-2001-ITA_SITE01-0017,47,PLACEBO,SCHEDULED,Y,,NOT DONE,SUBJECT NON-COMPLIANCE,,,mg,CAPSULE,QD,ORAL,47.0,,TREATMENT,2024-04-26,2024-04-26,47,47
GB001-2001,EC,GB001-2001-ITA_SITE01-0017,48,PLACEBO,PERFORMED,Y,Y,,,,PLACEBO,mg,CAPSULE,QD,ORAL,48.0,,TREATMENT,2024-04-27,2024-04-27,48,48
GB001-2001,EC,GB001-2001-ITA_SITE01-0017,49,PLACEBO,PERFORMED,Y,Y,,,,PLACEBO,mg,CAPSULE,QD,ORAL,49.0,,TREATMENT,2024-04-28,2024-04-28,49,49
GB001-2001,EC,GB001-2001-ITA_SITE01-0017,50,PLACEBO,PERFORMED,Y,Y,,,,PLACEBO,mg,CAPSULE,QD,ORAL,50.0,,TREATMENT,2024-04-29,2024-04-29,50,50
GB001-2001,EC,GB001-2001-ITA_SITE01-0017,51,PLACEBO,PERFORMED,Y,Y,,,,PLACEBO,mg,CAPSULE,QD,ORAL,51.0,,TREATMENT,2024-04-30,2024-04-30,51,51
GB001-2001,EC,GB001-2001-ITA_SITE01-0017,52,PLACEBO,PERFORMED,Y,Y,,,,PLACEBO,mg,CAPSULE,QD,ORAL,52.0,,TREATMENT,2024-05-01,2024-05-01,52,52
GB001-2001,EC,GB001-2001-ITA_SITE01-0017,53,PLACEBO,PERFORMED,Y,Y,,,,PLACEBO,mg,CAPSULE,QD,ORAL,53.0,,TREATMENT,2024-05-02,2024-05-02,53,53
GB001-2001,EC,GB001-2001-ITA_SITE01-0017,54,PLACEBO,PERFORMED,Y,Y,,,,PLACEBO,mg,CAPSULE,QD,ORAL,6.0,WEEK 8,TREATMENT,2024-05-03,2024-05-03,54,54
GB001-2001,EC,GB001-2001-ITA_SITE01-0017,55,PLACEBO,PERFORMED,Y,Y,,,,PLACEBO,mg,CAPSULE,QD,ORAL,6.0,WEEK 8,TREATMENT,2024-05-04,2024-05-04,55,55
GB001-2001,EC,GB001-2001-ITA_SITE01-0017,56,PLACEBO,PERFORMED,Y,Y,,,,PLACEBO,mg,CAPSULE,QD,ORAL,6.0,WEEK 8,TREATMENT,2024-05-05,2024-05-05,56,56
GB001-2001,EC,GB001-2001-ITA_SITE01-0017,57,PLACEBO,PERFORMED,Y,Y,,,,PLACEBO,mg,CAPSULE,QD,ORAL,6.0,WEEK 8,TREATMENT,2024-05-06,2024-05-06,57,57
GB001-2001,EC,GB001-2001-ITA_SITE01-0017,58,PLACEBO,PERFORMED,Y,Y,,,,PLACEBO,mg,CAPSULE,QD,ORAL,6.0,WEEK 8,TREATMENT,2024-05-07,2024-05-07,58,58
GB001-2001,EC,GB001-2001-ITA_SITE01-0017,59,PLACEBO,PERFORMED,Y,Y,,,,PLACEBO,mg,CAPSULE,QD,ORAL,6.0,WEEK 8,TREATMENT,2024-05-08,2024-05-08,59,59
GB001-2001,EC,GB001-2001-ITA_SITE01-0017,60,PLACEBO,PERFORMED,Y,Y,,,,PLACEBO,mg,CAPSULE,QD,ORAL,6.0,WEEK 8,TREATMENT,2024-05-09,2024-05-09,60,60
GB001-2001,EC,GB001-2001-ITA_SITE01-0017,61,PLACEBO,PERFORMED,Y,Y,,,,PLACEBO,mg,CAPSULE,QD,ORAL,61.0,,TREATMENT,2024-05-10,2024-05-10,61,61
GB001-2001,EC,GB001-2001-ITA_SITE01-0017,62,PLACEBO,PERFORMED,Y,Y,,,,PLACEBO,mg,CAPSULE,QD,ORAL,62.0,,TREATMENT,2024-05-11,2024-05-11,62,62
GB001-2001,EC,GB001-2001-ITA_SITE01-0017,63,PLACEBO,PERFORMED,Y,Y,,,,PLACEBO,mg,CAPSULE,QD,ORAL,63.0,,TREATMENT,2024-05-12,2024-05-12,63,63
GB001-2001,EC,GB001-2001-ITA_SITE01-0017,64,PLACEBO,PERFORMED,Y,Y,,,,PLACEBO,mg,CAPSULE,QD,ORAL,64.0,,TREATMENT,2024-05-13,2024-05-13,64,64
GB001-2001,EC,GB001-2001-ITA_SITE01-0017,65,PLACEBO,PERFORMED,Y,Y,,,,PLACEBO,mg,CAPSULE,QD,ORAL,65.0,,TREATMENT,2024-05-14,2024-05-14,65,65
GB001-2001,EC,GB001-2001-ITA_SITE01-0017,66,PLACEBO,PERFORMED,Y,Y,,,,PLACEBO,mg,CAPSULE,QD,ORAL,66.0,,TREATMENT,2024-05-15,2024-05-15,66,66
GB001-2001,EC,GB001-2001-ITA_SITE01-0017,67,PLACEBO,SCHEDULED,Y,,NOT DONE,SUBJECT NON-COMPLIANCE,,,mg,CAPSULE,QD,ORAL,67.0,,TREATMENT,2024-05-16,2024-05-16,67,67
GB001-2001,EC,GB001-2001-ITA_SITE01-0017,68,PLACEBO,PERFORMED,Y,Y,,,,PLACEBO,mg,CAPSULE,QD,ORAL,68.0,,TREATMENT,2024-05-17,2024-05-17,68,68
GB001-2001,EC,GB001-2001-ITA_SITE01-0017,69,PLACEBO,PERFORMED,Y,Y,,,,PLACEBO,mg,CAPSULE,QD,ORAL,69.0,,TREATMENT,2024-05-18,2024-05-18,69,69
GB001-2001,EC,GB001-2001-ITA_SITE01-0017,70,PLACEBO,PERFORMED,Y,Y,,,,PLACEBO,mg,CAPSULE,QD,ORAL,70.0,,TREATMENT,2024-05-19,2024-05-19,70,70
GB001-2001,EC,GB001-2001-ITA_SITE01-0017,71,PLACEBO,PERFORMED,Y,Y,,,,PLACEBO,mg,CAPSULE,QD,ORAL,71.0,,TREATMENT,2024-05-20,2024-05-20,71,71
GB001-2001,EC,GB001-2001-ITA_SITE01-0017,72,PLACEBO,PERFORMED,Y,Y,,,,PLACEBO,mg,CAPSULE,QD,ORAL,72.0,,TREATMENT,2024-05-21,2024-05-21,72,72
GB001-2001,EC,GB001-2001-ITA_SITE01-0017,73,PLACEBO,PERFORMED,Y,Y,,,,PLACEBO,mg,CAPSULE,QD,ORAL,73.0,,TREATMENT,2024-05-22,2024-05-22,73,73
GB001-2001,EC,GB001-2001-ITA_SITE01-0017,74,PLACEBO,SCHEDULED,Y,,NOT DONE,SUBJECT NON-COMPLIANCE,,,mg,CAPSULE,QD,ORAL,74.0,,TREATMENT,2024-05-23,2024-05-23,74,74
GB001-2001,EC,GB001-2001-ITA_SITE01-0017,75,PLACEBO,SCHEDULED,Y,,NOT DONE,SUBJECT NON-COMPLIANCE,,,mg,CAPSULE,QD,ORAL,75.0,,TREATMENT,2024-05-24,2024-05-24,75,75
GB001-2001,EC,GB001-2001-ITA_SITE01-0017,76,PLACEBO,PERFORMED,Y,Y,,,,PLACEBO,mg,CAPSULE,QD,ORAL,76.0,,TREATMENT,2024-05-25,2024-05-25,76,76
GB001-2001,EC,GB001-2001-ITA_SITE01-0017,77,PLACEBO,PERFORMED,Y,Y,,,,PLACEBO,mg,CAPSULE,QD,ORAL,77.0,,TREATMENT,2024-05-26,2024-05-26,77,77
GB001-2001,EC,GB001-2001-ITA_SITE01-0017,78,PLACEBO,SCHEDULED,Y,,NOT DONE,SUBJECT NON-COMPLIANCE,,,mg,CAPSULE,QD,ORAL,78.0,,TREATMENT,2024-05-27,2024-05-27,78,78
GB001-2001,EC,GB001-2001-ITA_SITE01-0017,79,PLACEBO,SCHEDULED,Y,,NOT DONE,SUBJECT NON-COMPLIANCE,,,mg,CAPSULE,QD,ORAL,79.0,,TREATMENT,2024-05-28,2024-05-28,79,79
GB001-2001,EC,GB001-2001-ITA_SITE01-0017,80,PLACEBO,PERFORMED,Y,Y,,,,PLACEBO,mg,CAPSULE,QD,ORAL,80.0,,TREATMENT,2024-05-29,2024-05-29,80,80
GB001-2001,EC,GB001-2001-ITA_SITE01-0017,81,PLACEBO,PERFORMED,Y,Y,,,,PLACEBO,mg,CAPSULE,QD,ORAL,81.0,,TREATMENT,2024-05-30,2024-05-30,81,81
GB001-2001,EC,GB001-2001-ITA_SITE01-0017,82,PLACEBO,PERFORMED,Y,Y,,,,PLACEBO,mg,CAPSULE,QD,ORAL,7.0,WEEK 12,TREATMENT,2024-05-31,2024-05-31,82,82
GB001-2001,EC,GB001-2001-ITA_SITE01-0017,83,PLACEBO,PERFORMED,Y,Y,,,,PLACEBO,mg,CAPSULE,QD,ORAL,7.0,WEEK 12,TREATMENT,2024-06-01,2024-06-01,83,83
GB001-2001,EC,GB001-2001-ITA_SITE01-0017,84,PLACEBO,PERFORMED,Y,Y,,,,PLACEBO,mg,CAPSULE,QD,ORAL,7.0,WEEK 12,TREATMENT,2024-06-02,2024-06-02,84,84
GB001-2001,EC,GB001-2001-ITA_SITE01-0017,85,PLACEBO,PERFORMED,Y,Y,,,,PLACEBO,mg,CAPSULE,QD,ORAL,7.0,WEEK 12,TREATMENT,2024-06-03,2024-06-03,85,85
GB001-2001,EC,GB001-2001-ITA_SITE01-0017,86,PLACEBO,PERFORMED,Y,Y,,,,PLACEBO,mg,CAPSULE,QD,ORAL,7.0,WEEK 12,TREATMENT,2024-06-04,2024-06-04,86,86
GB001-2001,EC,GB001-2001-ITA_SITE01-0017,87,PLACEBO,PERFORMED,Y,Y,,,,PLACEBO,mg,CAPSULE,QD,ORAL,7.0,WEEK 12,TREATMENT,2024-06-05,2024-06-05,87,87
GB001-2001,EC,GB001-2001-ITA_SITE01-0017,88,PLACEBO,PERFORMED,Y,Y,,,,PLACEBO,mg,CAPSULE,QD,ORAL,7.0,WEEK 12,TREATMENT,2024-06-06,2024-06-06,88,88
GB001-2001,EC,GB001-2001-ITA_SITE01-0017,89,PLACEBO,PERFORMED,Y,Y,,,,PLACEBO,mg,CAPSULE,QD,ORAL,89.0,,TREATMENT,2024-06-07,2024-06-07,89,89
GB001-2001,EC,GB001-2001-ITA_SITE01-0017,90,PLACEBO,PERFORMED,Y,Y,,,,PLACEBO,mg,CAPSULE,QD,ORAL,90.0,,TREATMENT,2024-06-08,2024-06-08,90,90
GB001-2001,EC,GB001-2001-ITA_SITE01-0017,91,PLACEBO,PERFORMED,Y,Y,,,,PLACEBO,mg,CAPSULE,QD,ORAL,91.0,,TREATMENT,2024-06-09,2024-06-09,91,91
GB001-2001,EC,GB001-2001-ITA_SITE01-0017,92,PLACEBO,PERFORMED,Y,Y,,,,PLACEBO,mg,CAPSULE,QD,ORAL,92.0,,TREATMENT,2024-06-10,2024-06-10,92,92
GB001-2001,EC,GB001-2001-ITA_SITE01-0017,93,PLACEBO,PERFORMED,Y,Y,,,,PLACEBO,mg,CAPSULE,QD,ORAL,93.0,,TREATMENT,2024-06-11,2024-06-11,93,93
GB001-2001,EC,GB001-2001-ITA_SITE01-0017,94,PLACEBO,PERFORMED,Y,Y,,,,PLACEBO,mg,CAPSULE,QD,ORAL,94.0,,TREATMENT,2024-06-12,2024-06-12,94,94
GB001-2001,EC,GB001-2001-ITA_SITE01-0017,95,PLACEBO,PERFORMED,Y,Y,,,,PLACEBO,mg,CAPSULE,QD,ORAL,95.0,,TREATMENT,2024-06-13,2024-06-13,95,95
GB001-2001,EC,GB001-2001-ITA_SITE01-0017,96,PLACEBO,PERFORMED,Y,Y,,,,PLACEBO,mg,CAPSULE,QD,ORAL,96.0,,TREATMENT,2024-06-14,2024-06-14,96,96
GB001-2001,EC,GB001-2001-ITA_SITE01-0017,97,PLACEBO,PERFORMED,Y,Y,,,,PLACEBO,mg,CAPSULE,QD,ORAL,97.0,,TREATMENT,2024-06-15,2024-06-15,97,97
GB001-2001,EC,GB001-2001-ITA_SITE01-0017,98,PLACEBO,PERFORMED,Y,Y,,,,PLACEBO,mg,CAPSULE,QD,ORAL,98.0,,TREATMENT,2024-06-16,2024-06-16,98,98
GB001-2001,EC,GB001-2001-ITA_SITE01-0017,99,PLACEBO,PERFORMED,Y,Y,,,,PLACEBO,mg,CAPSULE,QD,ORAL,99.0,,TREATMENT,2024-06-17,2024-06-17,99,99
GB001-2001,EC,GB001-2001-ITA_SITE01-0017,100,PLACEBO,PERFORMED,Y,Y,,,,PLACEBO,mg,CAPSULE,QD,ORAL,100.0,,TREATMENT,2024-06-18,2024-06-18,100,100
GB001-2001,EC,GB001-2001-MEX_SITE01-0003,1,GB001,PERFORMED,Y,Y,,,60.0,,mg,CAPSULE,QD,ORAL,3.0,RANDOMIZATION,RUN_IN,2024-03-17,2024-03-17,1,1
GB001-2001,EC,GB001-2001-MEX_SITE01-0003,2,GB001,PERFORMED,Y,Y,,,60.0,,mg,CAPSULE,QD,ORAL,3.0,RANDOMIZATION,RUN_IN,2024-03-18,2024-03-18,2,2
GB001-2001,EC,GB001-2001-MEX_SITE01-0003,3,GB001,PERFORMED,Y,Y,,,60.0,,mg,CAPSULE,QD,ORAL,3.0,RANDOMIZATION,RUN_IN,2024-03-19,2024-03-19,3,3
GB001-2001,EC,GB001-2001-MEX_SITE01-0003,4,GB001,PERFORMED,Y,Y,,,60.0,,mg,CAPSULE,QD,ORAL,3.0,RANDOMIZATION,RUN_IN,2024-03-20,2024-03-20,4,4
GB001-2001,EC,GB001-2001-MEX_SITE01-0003,5,GB001,PERFORMED,Y,Y,,,60.0,,mg,CAPSULE,QD,ORAL,5.0,,RUN_IN,2024-03-21,2024-03-21,5,5
GB001-2001,EC,GB001-2001-MEX_SITE01-0003,6,GB001,PERFORMED,Y,Y,,,60.0,,mg,CAPSULE,QD,ORAL,6.0,,RUN_IN,2024-03-22,2024-03-22,6,6
GB001-2001,EC,GB001-2001-MEX_SITE01-0003,7,GB001,PERFORMED,Y,Y,,,60.0,,mg,CAPSULE,QD,ORAL,7.0,,RUN_IN,2024-03-23,2024-03-23,7,7
GB001-2001,EC,GB001-2001-MEX_SITE01-0003,8,GB001,PERFORMED,Y,Y,,,60.0,,mg,CAPSULE,QD,ORAL,8.0,,RUN_IN,2024-03-24,2024-03-24,8,8
GB001-2001,EC,GB001-2001-MEX_SITE01-0003,9,GB001,PERFORMED,Y,Y,,,60.0,,mg,CAPSULE,QD,ORAL,9.0,,RUN_IN,2024-03-25,2024-03-25,9,9
GB001-2001,EC,GB001-2001-MEX_SITE01-0003,10,GB001,PERFORMED,Y,Y,,,60.0,,mg,CAPSULE,QD,ORAL,10.0,,RUN_IN,2024-03-26,2024-03-26,10,10
GB001-2001,EC,GB001-2001-MEX_SITE01-0003,11,GB001,PERFORMED,Y,Y,,,60.0,,mg,CAPSULE,QD,ORAL,11.0,,RUN_IN,2024-03-27,2024-03-27,11,11
GB001-2001,EC,GB001-2001-MEX_SITE01-0003,12,GB001,PERFORMED,Y,Y,,,60.0,,mg,CAPSULE,QD,ORAL,4.0,WEEK 2,RUN_IN,2024-03-28,2024-03-28,12,12
GB001-2001,EC,GB001-2001-MEX_SITE01-0003,13,GB001,PERFORMED,Y,Y,,,60.0,,mg,CAPSULE,QD,ORAL,4.0,WEEK 2,RUN_IN,2024-03-29,2024-03-29,13,13
GB001-2001,EC,GB001-2001-MEX_SITE01-0003,14,GB001,PERFORMED,Y,Y,,,60.0,,mg,CAPSULE,QD,ORAL,4.0,WEEK 2,RUN_IN,2024-03-30,2024-03-30,14,14
GB001-2001,EC,GB001-2001-MEX_SITE01-0003,15,GB001,PERFORMED,Y,Y,,,60.0,,mg,CAPSULE,QD,ORAL,4.0,WEEK 2,RUN_IN,2024-03-31,2024-03-31,15,15
GB001-2001,EC,GB001-2001-MEX_SITE01-0003,16,GB001,PERFORMED,Y,Y,,,60.0,,mg,CAPSULE,QD,ORAL,4.0,WEEK 2,RUN_IN,2024-04-01,2024-04-01,16,16
GB001-2001,EC,GB001-2001-MEX_SITE01-0003,17,GB001,PERFORMED,Y,Y,,,60.0,,mg,CAPSULE,QD,ORAL,4.0,WEEK 2,RUN_IN,2024-04-02,2024-04-02,17,17
GB001-2001,EC,GB001-2001-MEX_SITE01-0015,1,PLACEBO,PERFORMED,Y,Y,,,,PLACEBO,mg,CAPSULE,QD,ORAL,3.0,RANDOMIZATION,RUN_IN,2024-04-30,2024-04-30,1,1
GB001-2001,EC,GB001-2001-MEX_SITE01-0015,2,PLACEBO,SCHEDULED,Y,,NOT DONE,SUBJECT NON-COMPLIANCE,,,mg,CAPSULE,QD,ORAL,3.0,RANDOMIZATION,RUN_IN,2024-05-01,2024-05-01,2,2
GB001-2001,EC,GB001-2001-MEX_SITE01-0015,3,PLACEBO,PERFORMED,Y,Y,,,,PLACEBO,mg,CAPSULE,QD,ORAL,3.0,RANDOMIZATION,RUN_IN,2024-05-02,2024-05-02,3,3
GB001-2001,EC,GB001-2001-MEX_SITE01-0015,4,PLACEBO,PERFORMED,Y,Y,,,,PLACEBO,mg,CAPSULE,QD,ORAL,3.0,RANDOMIZATION,RUN_IN,2024-05-03,2024-05-03,4,4
GB001-2001,EC,GB001-2001-MEX_SITE01-0015,5,PLACEBO,SCHEDULED,Y,,NOT DONE,SUBJECT NON-COMPLIANCE,,,mg,CAPSULE,QD,ORAL,5.0,,RUN_IN,2024-05-04,2024-05-04,5,5
GB001-2001,EC,GB001-2001-MEX_SITE01-0015,6,PLACEBO,SCHEDULED,Y,,NOT DONE,SUBJECT NON-COMPLIANCE,,,mg,CAPSULE,QD,ORAL,6.0,,RUN_IN,2024-05-05,2024-05-05,6,6
GB001-2001,EC,GB001-2001-MEX_SITE01-0015,7,PLACEBO,PERFORMED,Y,Y,,,,PLACEBO,mg,CAPSULE,QD,ORAL,7.0,,RUN_IN,2024-05-06,2024-05-06,7,7
GB001-2001,EC,GB001-2001-MEX_SITE01-0015,8,PLACEBO,PERFORMED,Y,Y,,,,PLACEBO,mg,CAPSULE,QD,ORAL,8.0,,RUN_IN,2024-05-07,2024-05-07,8,8
GB001-2001,EC,GB001-2001-MEX_SITE01-0015,9,PLACEBO,PERFORMED,Y,Y,,,,PLACEBO,mg,CAPSULE,QD,ORAL,9.0,,RUN_IN,2024-05-08,2024-05-08,9,9
GB001-2001,EC,GB001-2001-MEX_SITE01-0015,10,PLACEBO,PERFORMED,Y,Y,,,,PLACEBO,mg,CAPSULE,QD,ORAL,10.0,,RUN_IN,2024-05-09,2024-05-09,10,10
GB001-2001,EC,GB001-2001-MEX_SITE01-0015,11,PLACEBO,PERFORMED,Y,Y,,,,PLACEBO,mg,CAPSULE,QD,ORAL,11.0,,RUN_IN,2024-05-10,2024-05-10,11,11
GB001-2001,EC,GB001-2001-MEX_SITE01-0015,12,PLACEBO,PERFORMED,Y,Y,,,,PLACEBO,mg,CAPSULE,QD,ORAL,4.0,WEEK 2,RUN_IN,2024-05-11,2024-05-11,12,12
GB001-2001,EC,GB001-2001-MEX_SITE01-0015,13,PLACEBO,PERFORMED,Y,Y,,,,PLACEBO,mg,CAPSULE,QD,ORAL,4.0,WEEK 2,RUN_IN,2024-05-12,2024-05-12,13,13
GB001-2001,EC,GB001-2001-MEX_SITE01-0015,14,PLACEBO,PERFORMED,Y,Y,,,,PLACEBO,mg,CAPSULE,QD,ORAL,4.0,WEEK 2,RUN_IN,2024-05-13,2024-05-13,14,14
GB001-2001,EC,GB001-2001-MEX_SITE01-0015,15,PLACEBO,SCHEDULED,Y,,NOT DONE,SUBJECT NON-COMPLIANCE,,,mg,CAPSULE,QD,ORAL,4.0,WEEK 2,RUN_IN,2024-05-14,2024-05-14,15,15
GB001-2001,EC,GB001-2001-MEX_SITE01-0015,16,PLACEBO,PERFORMED,Y,Y,,,,PLACEBO,mg,CAPSULE,QD,ORAL,4.0,WEEK 2,RUN_IN,2024-05-15,2024-05-15,16,16
GB001-2001,EC,GB001-2001-MEX_SITE01-0015,17,PLACEBO,PERFORMED,Y,Y,,,,PLACEBO,mg,CAPSULE,QD,ORAL,4.0,WEEK 2,RUN_IN,2024-05-16,2024-05-16,17,17
GB001-2001,EC,GB001-2001-MEX_SITE01-0015,18,PLACEBO,PERFORMED,Y,Y,,,,PLACEBO,mg,CAPSULE,QD,ORAL,4.0,WEEK 2,RUN_IN,2024-05-17,2024-05-17,18,18
GB001-2001,EC,GB001-2001-MEX_SITE01-0015,19,PLACEBO,SCHEDULED,Y,,NOT DONE,SUBJECT NON-COMPLIANCE,,,mg,CAPSULE,QD,ORAL,19.0,,RUN_IN,2024-05-18,2024-05-18,19,19
GB001-2001,EC,GB001-2001-MEX_SITE01-0015,20,PLACEBO,PERFORMED,Y,Y,,,,PLACEBO,mg,CAPSULE,QD,ORAL,20.0,,RUN_IN,2024-05-19,2024-05-19,20,20
GB001-2001,EC,GB001-2001-MEX_SITE01-0015,21,PLACEBO,SCHEDULED,Y,,NOT DONE,SUBJECT NON-COMPLIANCE,,,mg,CAPSULE,QD,ORAL,21.0,,RUN_IN,2024-05-20,2024-05-20,21,21
GB001-2001,EC,GB001-2001-MEX_SITE01-0015,22,PLACEBO,PERFORMED,Y,Y,,,,PLACEBO,mg,CAPSULE,QD,ORAL,22.0,,RUN_IN,2024-05-21,2024-05-21,22,22
GB001-2001,EC,GB001-2001-MEX_SITE01-0015,23,PLACEBO,PERFORMED,Y,Y,,,,PLACEBO,mg,CAPSULE,QD,ORAL,23.0,,RUN_IN,2024-05-22,2024-05-22,23,23
GB001-2001,EC,GB001-2001-MEX_SITE01-0015,24,PLACEBO,PERFORMED,Y,Y,,,,PLACEBO,mg,CAPSULE,QD,ORAL,24.0,,RUN_IN,2024-05-23,2024-05-23,24,24
GB001-2001,EC,GB001-2001-MEX_SITE01-0015,25,PLACEBO,PERFORMED,Y,Y,,,,PLACEBO,mg,CAPSULE,QD,ORAL,25.0,,RUN_IN,2024-05-24,2024-05-24,25,25
GB001-2001,EC,GB001-2001-MEX_SITE01-0015,26,PLACEBO,PERFORMED,Y,Y,,,,PLACEBO,mg,CAPSULE,QD,ORAL,5.0,WEEK 4,RUN_IN,2024-05-25,2024-05-25,26,26
GB001-2001,EC,GB001-2001-MEX_SITE01-0015,27,PLACEBO,PERFORMED,Y,Y,,,,PLACEBO,mg,CAPSULE,QD,ORAL,5.0,WEEK 4,RUN_IN,2024-05-26,2024-05-26,27,27
GB001-2001,EC,GB001-2001-MEX_SITE01-0015,28,PLACEBO,PERFORMED,Y,Y,,,,PLACEBO,mg,CAPSULE,QD,ORAL,5.0,WEEK 4,RUN_IN,2024-05-27,2024-05-27,28,28
GB001-2001,EC,GB001-2001-MEX_SITE01-0015,29,PLACEBO,PERFORMED,Y,Y,,,,PLACEBO,mg,CAPSULE,QD,ORAL,5.0,WEEK 4,TREATMENT,2024-05-28,2024-05-28,29,29
GB001-2001,EC,GB001-2001-MEX_SITE01-0015,30,PLACEBO,PERFORMED,Y,Y,,,,PLACEBO,mg,CAPSULE,QD,ORAL,5.0,WEEK 4,TREATMENT,2024-05-29,2024-05-29,30,30
GB001-2001,EC,GB001-2001-MEX_SITE01-0015,31,PLACEBO,PERFORMED,Y,Y,,,,PLACEBO,mg,CAPSULE,QD,ORAL,5.0,WEEK 4,TREATMENT,2024-05-30,2024-05-30,31,31
GB001-2001,EC,GB001-2001-MEX_SITE01-0015,32,PLACEBO,PERFORMED,Y,Y,,,,PLACEBO,mg,CAPSULE,QD,ORAL,5.0,WEEK 4,TREATMENT,2024-05-31,2024-05-31,32,32
GB001-2001,EC,GB001-2001-MEX_SITE01-0015,33,PLACEBO,PERFORMED,Y,Y,,,,PLACEBO,mg,CAPSULE,QD,ORAL,33.0,,TREATMENT,2024-06-01,2024-06-01,33,33
GB001-2001,EC,GB001-2001-MEX_SITE01-0015,34,PLACEBO,SCHEDULED,Y,,NOT DONE,SUBJECT NON-COMPLIANCE,,,mg,CAPSULE,QD,ORAL,34.0,,TREATMENT,2024-06-02,2024-06-02,34,34
GB001-2001,EC,GB001-2001-MEX_SITE01-0015,35,PLACEBO,SCHEDULED,Y,,NOT DONE,SUBJECT NON-COMPLIANCE,,,mg,CAPSULE,QD,ORAL,35.0,,TREATMENT,2024-06-03,2024-06-03,35,35
GB001-2001,EC,GB001-2001-MEX_SITE01-0015,36,PLACEBO,PERFORMED,Y,Y,,,,PLACEBO,mg,CAPSULE,QD,ORAL,36.0,,TREATMENT,2024-06-04,2024-06-04,36,36
GB001-2001,EC,GB001-2001-MEX_SITE01-0015,37,PLACEBO,PERFORMED,Y,Y,,,,PLACEBO,mg,CAPSULE,QD,ORAL,37.0,,TREATMENT,2024-06-05,2024-06-05,37,37
GB001-2001,EC,GB001-2001-MEX_SITE01-0015,38,PLACEBO,PERFORMED,Y,Y,,,,PLACEBO,mg,CAPSULE,QD,ORAL,38.0,,TREATMENT,2024-06-06,2024-06-06,38,38
GB001-2001,EC,GB001-2001-MEX_SITE01-0015,39,PLACEBO,PERFORMED,Y,Y,,,,PLACEBO,mg,CAPSULE,QD,ORAL,39.0,,TREATMENT,2024-06-07,2024-06-07,39,39
GB001-2001,EC,GB001-2001-MEX_SITE01-0015,40,PLACEBO,PERFORMED,Y,Y,,,,PLACEBO,mg,CAPSULE,QD,ORAL,40.0,,TREATMENT,2024-06-08,2024-06-08,40,40
GB001-2001,EC,GB001-2001-MEX_SITE01-0015,41,PLACEBO,PERFORMED,Y,Y,,,,PLACEBO,mg,CAPSULE,QD,ORAL,41.0,,TREATMENT,2024-06-09,2024-06-09,41,41
GB001-2001,EC,GB001-2001-MEX_SITE01-0015,42,PLACEBO,SCHEDULED,Y,,NOT DONE,SUBJECT NON-COMPLIANCE,,,mg,CAPSULE,QD,ORAL,42.0,,TREATMENT,2024-06-10,2024-06-10,42,42
GB001-2001,EC,GB001-2001-MEX_SITE01-0015,43,PLACEBO,PERFORMED,Y,Y,,,,PLACEBO,mg,CAPSULE,QD,ORAL,43.0,,TREATMENT,2024-06-11,2024-06-11,43,43
GB001-2001,EC,GB001-2001-MEX_SITE01-0015,44,PLACEBO,SCHEDULED,Y,,NOT DONE,SUBJECT NON-COMPLIANCE,,,mg,CAPSULE,QD,ORAL,44.0,,TREATMENT,2024-06-12,2024-06-12,44,44
GB001-2001,EC,GB001-2001-MEX_SITE01-0015,45,PLACEBO,PERFORMED,Y,Y,,,,PLACEBO,mg,CAPSULE,QD,ORAL,45.0,,TREATMENT,2024-06-13,2024-06-13,45,45
GB001-2001,EC,GB001-2001-MEX_SITE01-0015,46,PLACEBO,PERFORMED,Y,Y,,,,PLACEBO,mg,CAPSULE,QD,ORAL,46.0,,TREATMENT,2024-06-14,2024-06-14,46,46
GB001-2001,EC,GB001-2001-MEX_SITE01-0015,47,PLACEBO,PERFORMED,Y,Y,,,,PLACEBO,mg,CAPSULE,QD,ORAL,47.0,,TREATMENT,2024-06-15,2024-06-15,47,47
GB001-2001,EC,GB001-2001-MEX_SITE01-0015,48,PLACEBO,PERFORMED,Y,Y,,,,PLACEBO,mg,CAPSULE,QD,ORAL,48.0,,TREATMENT,2024-06-16,2024-06-16,48,48
GB001-2001,EC,GB001-2001-MEX_SITE01-0015,49,PLACEBO,PERFORMED,Y,Y,,,,PLACEBO,mg,CAPSULE,QD,ORAL,49.0,,TREATMENT,2024-06-17,2024-06-17,49,49
GB001-2001,EC,GB001-2001-MEX_SITE01-0015,50,PLACEBO,PERFORMED,Y,Y,,,,PLACEBO,mg,CAPSULE,QD,ORAL,50.0,,TREATMENT,2024-06-18,2024-06-18,50,50
GB001-2001,EC,GB001-2001-MEX_SITE01-0015,51,PLACEBO,PERFORMED,Y,Y,,,,PLACEBO,mg,CAPSULE,QD,ORAL,51.0,,TREATMENT,2024-06-19,2024-06-19,51,51
GB001-2001,EC,GB001-2001-MEX_SITE01-0015,52,PLACEBO,PERFORMED,Y,Y,,,,PLACEBO,mg,CAPSULE,QD,ORAL,52.0,,TREATMENT,2024-06-20,2024-06-20,52,52
GB001-2001,EC,GB001-2001-MEX_SITE01-0015,53,PLACEBO,PERFORMED,Y,Y,,,,PLACEBO,mg,CAPSULE,QD,ORAL,53.0,,TREATMENT,2024-06-21,2024-06-21,53,53
GB001-2001,EC,GB001-2001-MEX_SITE01-0015,54,PLACEBO,PERFORMED,Y,Y,,,,PLACEBO,mg,CAPSULE,QD,ORAL,6.0,WEEK 8,TREATMENT,2024-06-22,2024-06-22,54,54
GB001-2001,EC,GB001-2001-MEX_SITE01-0015,55,PLACEBO,PERFORMED,Y,Y,,,,PLACEBO,mg,CAPSULE,QD,ORAL,6.0,WEEK 8,TREATMENT,2024-06-23,2024-06-23,55,55
GB001-2001,EC,GB001-2001-MEX_SITE01-0015,56,PLACEBO,PERFORMED,Y,Y,,,,PLACEBO,mg,CAPSULE,QD,ORAL,6.0,WEEK 8,TREATMENT,2024-06-24,2024-06-24,56,56
GB001-2001,EC,GB001-2001-MEX_SITE01-0015,57,PLACEBO,PERFORMED,Y,Y,,,,PLACEBO,mg,CAPSULE,QD,ORAL,6.0,WEEK 8,TREATMENT,2024-06-25,2024-06-25,57,57
GB001-2001,EC,GB001-2001-MEX_SITE01-0015,58,PLACEBO,SCHEDULED,Y,,NOT DONE,SUBJECT NON-COMPLIANCE,,,mg,CAPSULE,QD,ORAL,6.0,WEEK 8,TREATMENT,2024-06-26,2024-06-26,58,58
GB001-2001,EC,GB001-2001-MEX_SITE01-0015,59,PLACEBO,PERFORMED,Y,Y,,,,PLACEBO,mg,CAPSULE,QD,ORAL,6.0,WEEK 8,TREATMENT,2024-06-27,2024-06-27,59,59
GB001-2001,EC,GB001-2001-MEX_SITE01-0015,60,PLACEBO,PERFORMED,Y,Y,,,,PLACEBO,mg,CAPSULE,QD,ORAL,6.0,WEEK 8,TREATMENT,2024-06-28,2024-06-28,60,60
GB001-2001,EC,GB001-2001-MEX_SITE01-0015,61,PLACEBO,PERFORMED,Y,Y,,,,PLACEBO,mg,CAPSULE,QD,ORAL,61.0,,TREATMENT,2024-06-29,2024-06-29,61,61
GB001-2001,EC,GB001-2001-MEX_SITE01-0015,62,PLACEBO,PERFORMED,Y,Y,,,,PLACEBO,mg,CAPSULE,QD,ORAL,62.0,,TREATMENT,2024-06-30,2024-06-30,62,62
GB001-2001,EC,GB001-2001-MEX_SITE01-0015,63,PLACEBO,PERFORMED,Y,Y,,,,PLACEBO,mg,CAPSULE,QD,ORAL,63.0,,TREATMENT,2024-07-01,2024-07-01,63,63
GB001-2001,EC,GB001-2001-MEX_SITE01-0015,64,PLACEBO,PERFORMED,Y,Y,,,,PLACEBO,mg,CAPSULE,QD,ORAL,64.0,,TREATMENT,2024-07-02,2024-07-02,64,64
GB001-2001,EC,GB001-2001-MEX_SITE01-0015,65,PLACEBO,PERFORMED,Y,Y,,,,PLACEBO,mg,CAPSULE,QD,ORAL,65.0,,TREATMENT,2024-07-03,2024-07-03,65,65
GB001-2001,EC,GB001-2001-MEX_SITE01-0015,66,PLACEBO,PERFORMED,Y,Y,,,,PLACEBO,mg,CAPSULE,QD,ORAL,66.0,,TREATMENT,2024-07-04,2024-07-04,66,66
GB001-2001,EC,GB001-2001-MEX_SITE01-0015,67,PLACEBO,SCHEDULED,Y,,NOT DONE,SUBJECT NON-COMPLIANCE,,,mg,CAPSULE,QD,ORAL,67.0,,TREATMENT,2024-07-05,2024-07-05,67,67
GB001-2001,EC,GB001-2001-MEX_SITE01-0015,68,PLACEBO,PERFORMED,Y,Y,,,,PLACEBO,mg,CAPSULE,QD,ORAL,68.0,,TREATMENT,2024-07-06,2024-07-06,68,68
GB001-2001,EC,GB001-2001-MEX_SITE01-0015,69,PLACEBO,PERFORMED,Y,Y,,,,PLACEBO,mg,CAPSULE,QD,ORAL,69.0,,TREATMENT,2024-07-07,2024-07-07,69,69
GB001-2001,EC,GB001-2001-MEX_SITE01-0015,70,PLACEBO,PERFORMED,Y,Y,,,,PLACEBO,mg,CAPSULE,QD,ORAL,70.0,,TREATMENT,2024-07-08,2024-07-08,70,70
GB001-2001,EC,GB001-2001-MEX_SITE01-0015,71,PLACEBO,PERFORMED,Y,Y,,,,PLACEBO,mg,CAPSULE,QD,ORAL,71.0,,TREATMENT,2024-07-09,2024-07-09,71,71
GB001-2001,EC,GB001-2001-MEX_SITE01-0015,72,PLACEBO,PERFORMED,Y,Y,,,,PLACEBO,mg,CAPSULE,QD,ORAL,72.0,,TREATMENT,2024-07-10,2024-07-10,72,72
GB001-2001,EC,GB001-2001-MEX_SITE01-0015,73,PLACEBO,SCHEDULED,Y,,NOT DONE,SUBJECT NON-COMPLIANCE,,,mg,CAPSULE,QD,ORAL,73.0,,TREATMENT,2024-07-11,2024-07-11,73,73
GB001-2001,EC,GB001-2001-MEX_SITE01-0015,74,PLACEBO,PERFORMED,Y,Y,,,,PLACEBO,mg,CAPSULE,QD,ORAL,74.0,,TREATMENT,2024-07-12,2024-07-12,74,74
GB001-2001,EC,GB001-2001-MEX_SITE01-0015,75,PLACEBO,SCHEDULED,Y,,NOT DONE,SUBJECT NON-COMPLIANCE,,,mg,CAPSULE,QD,ORAL,75.0,,TREATMENT,2024-07-13,2024-07-13,75,75
GB001-2001,EC,GB001-2001-MEX_SITE01-0015,76,PLACEBO,PERFORMED,Y,Y,,,,PLACEBO,mg,CAPSULE,QD,ORAL,76.0,,TREATMENT,2024-07-14,2024-07-14,76,76
GB001-2001,EC,GB001-2001-MEX_SITE01-0015,77,PLACEBO,PERFORMED,Y,Y,,,,PLACEBO,mg,CAPSULE,QD,ORAL,77.0,,TREATMENT,2024-07-15,2024-07-15,77,77
GB001-2001,EC,GB001-2001-MEX_SITE01-0015,78,PLACEBO,PERFORMED,Y,Y,,,,PLACEBO,mg,CAPSULE,QD,ORAL,78.0,,TREATMENT,2024-07-16,2024-07-16,78,78
GB001-2001,EC,GB001-2001-MEX_SITE01-0015,79,PLACEBO,PERFORMED,Y,Y,,,,PLACEBO,mg,CAPSULE,QD,ORAL,79.0,,TREATMENT,2024-07-17,2024-07-17,79,79
GB001-2001,EC,GB001-2001-MEX_SITE01-0015,80,PLACEBO,SCHEDULED,Y,,NOT DONE,SUBJECT NON-COMPLIANCE,,,mg,CAPSULE,QD,ORAL,80.0,,TREATMENT,2024-07-18,2024-07-18,80,80
GB001-2001,EC,GB001-2001-MEX_SITE01-0015,81,PLACEBO,PERFORMED,Y,Y,,,,PLACEBO,mg,CAPSULE,QD,ORAL,81.0,,TREATMENT,2024-07-19,2024-07-19,81,81
GB001-2001,EC,GB001-2001-MEX_SITE01-0015,82,PLACEBO,PERFORMED,Y,Y,,,,PLACEBO,mg,CAPSULE,QD,ORAL,7.0,WEEK 12,TREATMENT,2024-07-20,2024-07-20,82,82
GB001-2001,EC,GB001-2001-MEX_SITE01-0015,83,PLACEBO,PERFORMED,Y,Y,,,,PLACEBO,mg,CAPSULE,QD,ORAL,7.0,WEEK 12,TREATMENT,2024-07-21,2024-07-21,83,83
GB001-2001,EC,GB001-2001-MEX_SITE01-0015,84,PLACEBO,PERFORMED,Y,Y,,,,PLACEBO,mg,CAPSULE,QD,ORAL,7.0,WEEK 12,TREATMENT,2024-07-22,2024-07-22,84,84
GB001-2001,EC,GB001-2001-MEX_SITE01-0015,85,PLACEBO,PERFORMED,Y,Y,,,,PLACEBO,mg,CAPSULE,QD,ORAL,7.0,WEEK 12,TREATMENT,2024-07-23,2024-07-23,85,85
GB001-2001,EC,GB001-2001-MEX_SITE01-0015,86,PLACEBO,PERFORMED,Y,Y,,,,PLACEBO,mg,CAPSULE,QD,ORAL,7.0,WEEK 12,TREATMENT,2024-07-24,2024-07-24,86,86
GB001-2001,EC,GB001-2001-MEX_SITE01-0015,87,PLACEBO,PERFORMED,Y,Y,,,,PLACEBO,mg,CAPSULE,QD,ORAL,7.0,WEEK 12,TREATMENT,2024-07-25,2024-07-25,87,87
GB001-2001,EC,GB001-2001-MEX_SITE01-0015,88,PLACEBO,PERFORMED,Y,Y,,,,PLACEBO,mg,CAPSULE,QD,ORAL,7.0,WEEK 12,TREATMENT,2024-07-26,2024-07-26,88,88
GB001-2001,EC,GB001-2001-MEX_SITE01-0015,89,PLACEBO,PERFORMED,Y,Y,,,,PLACEBO,mg,CAPSULE,QD,ORAL,89.0,,TREATMENT,2024-07-27,2024-07-27,89,89
GB001-2001,EC,GB001-2001-MEX_SITE01-0015,90,PLACEBO,PERFORMED,Y,Y,,,,PLACEBO,mg,CAPSULE,QD,ORAL,90.0,,TREATMENT,2024-07-28,2024-07-28,90,90
GB001-2001,EC,GB001-2001-MEX_SITE01-0015,91,PLACEBO,PERFORMED,Y,Y,,,,PLACEBO,mg,CAPSULE,QD,ORAL,91.0,,TREATMENT,2024-07-29,2024-07-29,91,91
GB001-2001,EC,GB001-2001-MEX_SITE01-0015,92,PLACEBO,PERFORMED,Y,Y,,,,PLACEBO,mg,CAPSULE,QD,ORAL,92.0,,TREATMENT,2024-07-30,2024-07-30,92,92
GB001-2001,EC,GB001-2001-MEX_SITE01-0015,93,PLACEBO,PERFORMED,Y,Y,,,,PLACEBO,mg,CAPSULE,QD,ORAL,93.0,,TREATMENT,2024-07-31,2024-07-31,93,93
GB001-2001,EC,GB001-2001-MEX_SITE01-0015,94,PLACEBO,PERFORMED,Y,Y,,,,PLACEBO,mg,CAPSULE,QD,ORAL,94.0,,TREATMENT,2024-08-01,2024-08-01,94,94
GB001-2001,EC,GB001-2001-MEX_SITE01-0015,95,PLACEBO,PERFORMED,Y,Y,,,,PLACEBO,mg,CAPSULE,QD,ORAL,95.0,,TREATMENT,2024-08-02,2024-08-02,95,95
GB001-2001,EC,GB001-2001-MEX_SITE01-0015,96,PLACEBO,PERFORMED,Y,Y,,,,PLACEBO,mg,CAPSULE,QD,ORAL,96.0,,TREATMENT,2024-08-03,2024-08-03,96,96
GB001-2001,EC,GB001-2001-MEX_SITE01-0015,97,PLACEBO,PERFORMED,Y,Y,,,,PLACEBO,mg,CAPSULE,QD,ORAL,97.0,,TREATMENT,2024-08-04,2024-08-04,97,97
GB001-2001,EC,GB001-2001-MEX_SITE01-0015,98,PLACEBO,SCHEDULED,Y,,NOT DONE,SUBJECT NON-COMPLIANCE,,,mg,CAPSULE,QD,ORAL,98.0,,TREATMENT,2024-08-05,2024-08-05,98,98
GB001-2001,EC,GB001-2001-MEX_SITE01-0015,99,PLACEBO,PERFORMED,Y,Y,,,,PLACEBO,mg,CAPSULE,QD,ORAL,99.0,,TREATMENT,2024-08-06,2024-08-06,99,99
GB001-2001,EC,GB001-2001-MEX_SITE01-0015,100,PLACEBO,PERFORMED,Y,Y,,,,PLACEBO,mg,CAPSULE,QD,ORAL,100.0,,TREATMENT,2024-08-07,2024-08-07,100,100
GB001-2001,EC,GB001-2001-MEX_SITE01-0015,101,PLACEBO,PERFORMED,Y,Y,,,,PLACEBO,mg,CAPSULE,QD,ORAL,101.0,,TREATMENT,2024-08-08,2024-08-08,101,101
GB001-2001,EC,GB001-2001-MEX_SITE01-0015,102,PLACEBO,PERFORMED,Y,Y,,,,PLACEBO,mg,CAPSULE,QD,ORAL,102.0,,TREATMENT,2024-08-09,2024-08-09,102,102
GB001-2001,EC,GB001-2001-MEX_SITE01-0015,103,PLACEBO,PERFORMED,Y,Y,,,,PLACEBO,mg,CAPSULE,QD,ORAL,103.0,,TREATMENT,2024-08-10,2024-08-10,103,103
GB001-2001,EC,GB001-2001-POL_SITE01-0002,1,GB001,PERFORMED,Y,Y,,,60.0,,mg,CAPSULE,QD,ORAL,3.0,RANDOMIZATION,RUN_IN,2024-03-29,2024-03-29,1,1
GB001-2001,EC,GB001-2001-POL_SITE01-0002,2,GB001,PERFORMED,Y,Y,,,60.0,,mg,CAPSULE,QD,ORAL,3.0,RANDOMIZATION,RUN_IN,2024-03-30,2024-03-30,2,2
GB001-2001,EC,GB001-2001-POL_SITE01-0002,3,GB001,PERFORMED,Y,Y,,,60.0,,mg,CAPSULE,QD,ORAL,3.0,RANDOMIZATION,RUN_IN,2024-03-31,2024-03-31,3,3
GB001-2001,EC,GB001-2001-POL_SITE01-0002,4,GB001,PERFORMED,Y,Y,,,60.0,,mg,CAPSULE,QD,ORAL,3.0,RANDOMIZATION,RUN_IN,2024-04-01,2024-04-01,4,4
GB001-2001,EC,GB001-2001-POL_SITE01-0002,5,GB001,PERFORMED,Y,Y,,,60.0,,mg,CAPSULE,QD,ORAL,5.0,,RUN_IN,2024-04-02,2024-04-02,5,5
GB001-2001,EC,GB001-2001-POL_SITE01-0002,6,GB001,PERFORMED,Y,Y,,,60.0,,mg,CAPSULE,QD,ORAL,6.0,,RUN_IN,2024-04-03,2024-04-03,6,6
GB001-2001,EC,GB001-2001-POL_SITE01-0002,7,GB001,PERFORMED,Y,Y,,,60.0,,mg,CAPSULE,QD,ORAL,7.0,,RUN_IN,2024-04-04,2024-04-04,7,7
GB001-2001,EC,GB001-2001-POL_SITE01-0002,8,GB001,PERFORMED,Y,Y,,,60.0,,mg,CAPSULE,QD,ORAL,8.0,,RUN_IN,2024-04-05,2024-04-05,8,8
GB001-2001,EC,GB001-2001-POL_SITE01-0002,9,GB001,PERFORMED,Y,Y,,,60.0,,mg,CAPSULE,QD,ORAL,9.0,,RUN_IN,2024-04-06,2024-04-06,9,9
GB001-2001,EC,GB001-2001-POL_SITE01-0002,10,GB001,PERFORMED,Y,Y,,,60.0,,mg,CAPSULE,QD,ORAL,10.0,,RUN_IN,2024-04-07,2024-04-07,10,10
GB001-2001,EC,GB001-2001-POL_SITE01-0002,11,GB001,PERFORMED,Y,Y,,,60.0,,mg,CAPSULE,QD,ORAL,11.0,,RUN_IN,2024-04-08,2024-04-08,11,11
GB001-2001,EC,GB001-2001-POL_SITE01-0002,12,GB001,PERFORMED,Y,Y,,,60.0,,mg,CAPSULE,QD,ORAL,4.0,WEEK 2,RUN_IN,2024-04-09,2024-04-09,12,12
GB001-2001,EC,GB001-2001-POL_SITE01-0002,13,GB001,PERFORMED,Y,Y,,,60.0,,mg,CAPSULE,QD,ORAL,4.0,WEEK 2,RUN_IN,2024-04-10,2024-04-10,13,13
GB001-2001,EC,GB001-2001-POL_SITE01-0002,14,GB001,PERFORMED,Y,Y,,,60.0,,mg,CAPSULE,QD,ORAL,4.0,WEEK 2,RUN_IN,2024-04-11,2024-04-11,14,14
GB001-2001,EC,GB001-2001-POL_SITE01-0002,15,GB001,PERFORMED,Y,Y,,,60.0,,mg,CAPSULE,QD,ORAL,4.0,WEEK 2,RUN_IN,2024-04-12,2024-04-12,15,15
GB001-2001,EC,GB001-2001-POL_SITE01-0002,16,GB001,PERFORMED,Y,Y,,,60.0,,mg,CAPSULE,QD,ORAL,4.0,WEEK 2,RUN_IN,2024-04-13,2024-04-13,16,16
GB001-2001,EC,GB001-2001-POL_SITE01-0002,17,GB001,PERFORMED,Y,Y,,,60.0,,mg,CAPSULE,QD,ORAL,4.0,WEEK 2,RUN_IN,2024-04-14,2024-04-14,17,17
GB001-2001,EC,GB001-2001-POL_SITE01-0002,18,GB001,PERFORMED,Y,Y,,,60.0,,mg,CAPSULE,QD,ORAL,4.0,WEEK 2,RUN_IN,2024-04-15,2024-04-15,18,18
GB001-2001,EC,GB001-2001-POL_SITE01-0002,19,GB001,PERFORMED,Y,Y,,,60.0,,mg,CAPSULE,QD,ORAL,19.0,,RUN_IN,2024-04-16,2024-04-16,19,19
GB001-2001,EC,GB001-2001-POL_SITE01-0002,20,GB001,PERFORMED,Y,Y,,,60.0,,mg,CAPSULE,QD,ORAL,20.0,,RUN_IN,2024-04-17,2024-04-17,20,20
GB001-2001,EC,GB001-2001-POL_SITE01-0002,21,GB001,PERFORMED,Y,Y,,,60.0,,mg,CAPSULE,QD,ORAL,21.0,,RUN_IN,2024-04-18,2024-04-18,21,21
GB001-2001,EC,GB001-2001-POL_SITE01-0002,22,GB001,PERFORMED,Y,Y,,,60.0,,mg,CAPSULE,QD,ORAL,22.0,,RUN_IN,2024-04-19,2024-04-19,22,22
GB001-2001,EC,GB001-2001-POL_SITE01-0002,23,GB001,PERFORMED,Y,Y,,,60.0,,mg,CAPSULE,QD,ORAL,23.0,,RUN_IN,2024-04-20,2024-04-20,23,23
GB001-2001,EC,GB001-2001-POL_SITE01-0002,24,GB001,PERFORMED,Y,Y,,,60.0,,mg,CAPSULE,QD,ORAL,24.0,,RUN_IN,2024-04-21,2024-04-21,24,24
GB001-2001,EC,GB001-2001-POL_SITE01-0002,25,GB001,PERFORMED,Y,Y,,,60.0,,mg,CAPSULE,QD,ORAL,25.0,,RUN_IN,2024-04-22,2024-04-22,25,25
GB001-2001,EC,GB001-2001-POL_SITE01-0002,26,GB001,PERFORMED,Y,Y,,,60.0,,mg,CAPSULE,QD,ORAL,5.0,WEEK 4,RUN_IN,2024-04-23,2024-04-23,26,26
GB001-2001,EC,GB001-2001-POL_SITE01-0002,27,GB001,PERFORMED,Y,Y,,,60.0,,mg,CAPSULE,QD,ORAL,5.0,WEEK 4,RUN_IN,2024-04-24,2024-04-24,27,27
GB001-2001,EC,GB001-2001-POL_SITE01-0002,28,GB001,PERFORMED,Y,Y,,,60.0,,mg,CAPSULE,QD,ORAL,5.0,WEEK 4,RUN_IN,2024-04-25,2024-04-25,28,28
GB001-2001,EC,GB001-2001-POL_SITE01-0002,29,GB001,PERFORMED,Y,Y,,,60.0,,mg,CAPSULE,QD,ORAL,5.0,WEEK 4,TREATMENT,2024-04-26,2024-04-26,29,29
GB001-2001,EC,GB001-2001-POL_SITE01-0002,30,GB001,PERFORMED,Y,Y,,,60.0,,mg,CAPSULE,QD,ORAL,5.0,WEEK 4,TREATMENT,2024-04-27,2024-04-27,30,30
GB001-2001,EC,GB001-2001-POL_SITE01-0002,31,GB001,PERFORMED,Y,Y,,,60.0,,mg,CAPSULE,QD,ORAL,5.0,WEEK 4,TREATMENT,2024-04-28,2024-04-28,31,31
GB001-2001,EC,GB001-2001-POL_SITE01-0002,32,GB001,PERFORMED,Y,Y,,,60.0,,mg,CAPSULE,QD,ORAL,5.0,WEEK 4,TREATMENT,2024-04-29,2024-04-29,32,32
GB001-2001,EC,GB001-2001-POL_SITE01-0002,33,GB001,PERFORMED,Y,Y,,,60.0,,mg,CAPSULE,QD,ORAL,33.0,,TREATMENT,2024-04-30,2024-04-30,33,33
GB001-2001,EC,GB001-2001-POL_SITE01-0002,34,GB001,PERFORMED,Y,Y,,,60.0,,mg,CAPSULE,QD,ORAL,34.0,,TREATMENT,2024-05-01,2024-05-01,34,34
GB001-2001,EC,GB001-2001-POL_SITE01-0002,35,GB001,PERFORMED,Y,Y,,,60.0,,mg,CAPSULE,QD,ORAL,35.0,,TREATMENT,2024-05-02,2024-05-02,35,35
GB001-2001,EC,GB001-2001-POL_SITE01-0002,36,GB001,PERFORMED,Y,Y,,,60.0,,mg,CAPSULE,QD,ORAL,36.0,,TREATMENT,2024-05-03,2024-05-03,36,36
GB001-2001,EC,GB001-2001-POL_SITE01-0002,37,GB001,PERFORMED,Y,Y,,,60.0,,mg,CAPSULE,QD,ORAL,37.0,,TREATMENT,2024-05-04,2024-05-04,37,37
GB001-2001,EC,GB001-2001-POL_SITE01-0002,38,GB001,PERFORMED,Y,Y,,,60.0,,mg,CAPSULE,QD,ORAL,38.0,,TREATMENT,2024-05-05,2024-05-05,38,38
GB001-2001,EC,GB001-2001-POL_SITE01-0002,39,GB001,PERFORMED,Y,Y,,,60.0,,mg,CAPSULE,QD,ORAL,39.0,,TREATMENT,2024-05-06,2024-05-06,39,39
GB001-2001,EC,GB001-2001-POL_SITE01-0002,40,GB001,PERFORMED,Y,Y,,,60.0,,mg,CAPSULE,QD,ORAL,40.0,,TREATMENT,2024-05-07,2024-05-07,40,40
GB001-2001,EC,GB001-2001-POL_SITE01-0002,41,GB001,PERFORMED,Y,Y,,,60.0,,mg,CAPSULE,QD,ORAL,41.0,,TREATMENT,2024-05-08,2024-05-08,41,41
GB001-2001,EC,GB001-2001-POL_SITE01-0002,42,GB001,PERFORMED,Y,Y,,,60.0,,mg,CAPSULE,QD,ORAL,42.0,,TREATMENT,2024-05-09,2024-05-09,42,42
GB001-2001,EC,GB001-2001-POL_SITE01-0002,43,GB001,PERFORMED,Y,Y,,,60.0,,mg,CAPSULE,QD,ORAL,43.0,,TREATMENT,2024-05-10,2024-05-10,43,43
GB001-2001,EC,GB001-2001-POL_SITE01-0002,44,GB001,PERFORMED,Y,Y,,,60.0,,mg,CAPSULE,QD,ORAL,44.0,,TREATMENT,2024-05-11,2024-05-11,44,44
GB001-2001,EC,GB001-2001-POL_SITE01-0002,45,GB001,PERFORMED,Y,Y,,,60.0,,mg,CAPSULE,QD,ORAL,45.0,,TREATMENT,2024-05-12,2024-05-12,45,45
GB001-2001,EC,GB001-2001-POL_SITE01-0002,46,GB001,PERFORMED,Y,Y,,,60.0,,mg,CAPSULE,QD,ORAL,46.0,,TREATMENT,2024-05-13,2024-05-13,46,46
GB001-2001,EC,GB001-2001-POL_SITE01-0002,47,GB001,PERFORMED,Y,Y,,,60.0,,mg,CAPSULE,QD,ORAL,47.0,,TREATMENT,2024-05-14,2024-05-14,47,47
GB001-2001,EC,GB001-2001-POL_SITE01-0002,48,GB001,PERFORMED,Y,Y,,,60.0,,mg,CAPSULE,QD,ORAL,48.0,,TREATMENT,2024-05-15,2024-05-15,48,48
GB001-2001,EC,GB001-2001-POL_SITE01-0002,49,GB001,PERFORMED,Y,Y,,,60.0,,mg,CAPSULE,QD,ORAL,49.0,,TREATMENT,2024-05-16,2024-05-16,49,49
GB001-2001,EC,GB001-2001-POL_SITE01-0002,50,GB001,PERFORMED,Y,Y,,,60.0,,mg,CAPSULE,QD,ORAL,50.0,,TREATMENT,2024-05-17,2024-05-17,50,50
GB001-2001,EC,GB001-2001-POL_SITE01-0002,51,GB001,PERFORMED,Y,Y,,,60.0,,mg,CAPSULE,QD,ORAL,51.0,,TREATMENT,2024-05-18,2024-05-18,51,51
GB001-2001,EC,GB001-2001-POL_SITE01-0002,52,GB001,PERFORMED,Y,Y,,,60.0,,mg,CAPSULE,QD,ORAL,52.0,,TREATMENT,2024-05-19,2024-05-19,52,52
GB001-2001,EC,GB001-2001-POL_SITE01-0002,53,GB001,PERFORMED,Y,Y,,,60.0,,mg,CAPSULE,QD,ORAL,53.0,,TREATMENT,2024-05-20,2024-05-20,53,53
GB001-2001,EC,GB001-2001-POL_SITE01-0002,54,GB001,PERFORMED,Y,Y,,,60.0,,mg,CAPSULE,QD,ORAL,6.0,WEEK 8,TREATMENT,2024-05-21,2024-05-21,54,54
GB001-2001,EC,GB001-2001-POL_SITE01-0002,55,GB001,PERFORMED,Y,Y,,,60.0,,mg,CAPSULE,QD,ORAL,6.0,WEEK 8,TREATMENT,2024-05-22,2024-05-22,55,55
GB001-2001,EC,GB001-2001-POL_SITE01-0002,56,GB001,PERFORMED,Y,Y,,,60.0,,mg,CAPSULE,QD,ORAL,6.0,WEEK 8,TREATMENT,2024-05-23,2024-05-23,56,56
GB001-2001,EC,GB001-2001-POL_SITE01-0002,57,GB001,PERFORMED,Y,Y,,,60.0,,mg,CAPSULE,QD,ORAL,6.0,WEEK 8,TREATMENT,2024-05-24,2024-05-24,57,57
GB001-2001,EC,GB001-2001-POL_SITE01-0002,58,GB001,PERFORMED,Y,Y,,,60.0,,mg,CAPSULE,QD,ORAL,6.0,WEEK 8,TREATMENT,2024-05-25,2024-05-25,58,58
GB001-2001,EC,GB001-2001-POL_SITE01-0002,59,GB001,PERFORMED,Y,Y,,,60.0,,mg,CAPSULE,QD,ORAL,6.0,WEEK 8,TREATMENT,2024-05-26,2024-05-26,59,59
GB001-2001,EC,GB001-2001-POL_SITE01-0002,60,GB001,PERFORMED,Y,Y,,,60.0,,mg,CAPSULE,QD,ORAL,6.0,WEEK 8,TREATMENT,2024-05-27,2024-05-27,60,60
GB001-2001,EC,GB001-2001-POL_SITE01-0002,61,GB001,PERFORMED,Y,Y,,,60.0,,mg,CAPSULE,QD,ORAL,61.0,,TREATMENT,2024-05-28,2024-05-28,61,61
GB001-2001,EC,GB001-2001-POL_SITE01-0002,62,GB001,PERFORMED,Y,Y,,,60.0,,mg,CAPSULE,QD,ORAL,62.0,,TREATMENT,2024-05-29,2024-05-29,62,62
GB001-2001,EC,GB001-2001-POL_SITE01-0002,63,GB001,PERFORMED,Y,Y,,,60.0,,mg,CAPSULE,QD,ORAL,63.0,,TREATMENT,2024-05-30,2024-05-30,63,63
GB001-2001,EC,GB001-2001-POL_SITE01-0002,64,GB001,PERFORMED,Y,Y,,,60.0,,mg,CAPSULE,QD,ORAL,64.0,,TREATMENT,2024-05-31,2024-05-31,64,64
GB001-2001,EC,GB001-2001-POL_SITE01-0002,65,GB001,PERFORMED,Y,Y,,,60.0,,mg,CAPSULE,QD,ORAL,65.0,,TREATMENT,2024-06-01,2024-06-01,65,65
GB001-2001,EC,GB001-2001-POL_SITE01-0002,66,GB001,PERFORMED,Y,Y,,,60.0,,mg,CAPSULE,QD,ORAL,66.0,,TREATMENT,2024-06-02,2024-06-02,66,66
GB001-2001,EC,GB001-2001-POL_SITE01-0002,67,GB001,PERFORMED,Y,Y,,,60.0,,mg,CAPSULE,QD,ORAL,67.0,,TREATMENT,2024-06-03,2024-06-03,67,67
GB001-2001,EC,GB001-2001-POL_SITE01-0002,68,GB001,PERFORMED,Y,Y,,,60.0,,mg,CAPSULE,QD,ORAL,68.0,,TREATMENT,2024-06-04,2024-06-04,68,68
GB001-2001,EC,GB001-2001-POL_SITE01-0002,69,GB001,PERFORMED,Y,Y,,,60.0,,mg,CAPSULE,QD,ORAL,69.0,,TREATMENT,2024-06-05,2024-06-05,69,69
GB001-2001,EC,GB001-2001-POL_SITE01-0002,70,GB001,PERFORMED,Y,Y,,,60.0,,mg,CAPSULE,QD,ORAL,70.0,,TREATMENT,2024-06-06,2024-06-06,70,70
GB001-2001,EC,GB001-2001-POL_SITE01-0002,71,GB001,PERFORMED,Y,Y,,,60.0,,mg,CAPSULE,QD,ORAL,71.0,,TREATMENT,2024-06-07,2024-06-07,71,71
GB001-2001,EC,GB001-2001-POL_SITE01-0002,72,GB001,PERFORMED,Y,Y,,,60.0,,mg,CAPSULE,QD,ORAL,72.0,,TREATMENT,2024-06-08,2024-06-08,72,72
GB001-2001,EC,GB001-2001-POL_SITE01-0002,73,GB001,PERFORMED,Y,Y,,,60.0,,mg,CAPSULE,QD,ORAL,73.0,,TREATMENT,2024-06-09,2024-06-09,73,73
GB001-2001,EC,GB001-2001-POL_SITE01-0002,74,GB001,PERFORMED,Y,Y,,,60.0,,mg,CAPSULE,QD,ORAL,74.0,,TREATMENT,2024-06-10,2024-06-10,74,74
GB001-2001,EC,GB001-2001-POL_SITE01-0002,75,GB001,PERFORMED,Y,Y,,,60.0,,mg,CAPSULE,QD,ORAL,75.0,,TREATMENT,2024-06-11,2024-06-11,75,75
GB001-2001,EC,GB001-2001-POL_SITE01-0002,76,GB001,PERFORMED,Y,Y,,,60.0,,mg,CAPSULE,QD,ORAL,76.0,,TREATMENT,2024-06-12,2024-06-12,76,76
GB001-2001,EC,GB001-2001-POL_SITE01-0002,77,GB001,PERFORMED,Y,Y,,,60.0,,mg,CAPSULE,QD,ORAL,77.0,,TREATMENT,2024-06-13,2024-06-13,77,77
GB001-2001,EC,GB001-2001-POL_SITE01-0002,78,GB001,PERFORMED,Y,Y,,,60.0,,mg,CAPSULE,QD,ORAL,78.0,,TREATMENT,2024-06-14,2024-06-14,78,78
GB001-2001,EC,GB001-2001-POL_SITE01-0002,79,GB001,PERFORMED,Y,Y,,,60.0,,mg,CAPSULE,QD,ORAL,79.0,,TREATMENT,2024-06-15,2024-06-15,79,79
GB001-2001,EC,GB001-2001-POL_SITE01-0002,80,GB001,PERFORMED,Y,Y,,,60.0,,mg,CAPSULE,QD,ORAL,80.0,,TREATMENT,2024-06-16,2024-06-16,80,80
GB001-2001,EC,GB001-2001-POL_SITE01-0002,81,GB001,PERFORMED,Y,Y,,,60.0,,mg,CAPSULE,QD,ORAL,81.0,,TREATMENT,2024-06-17,2024-06-17,81,81
GB001-2001,EC,GB001-2001-POL_SITE01-0002,82,GB001,PERFORMED,Y,Y,,,60.0,,mg,CAPSULE,QD,ORAL,7.0,WEEK 12,TREATMENT,2024-06-18,2024-06-18,82,82
GB001-2001,EC,GB001-2001-POL_SITE01-0002,83,GB001,PERFORMED,Y,Y,,,60.0,,mg,CAPSULE,QD,ORAL,7.0,WEEK 12,TREATMENT,2024-06-19,2024-06-19,83,83
GB001-2001,EC,GB001-2001-POL_SITE01-0002,84,GB001,PERFORMED,Y,Y,,,60.0,,mg,CAPSULE,QD,ORAL,7.0,WEEK 12,TREATMENT,2024-06-20,2024-06-20,84,84
GB001-2001,EC,GB001-2001-POL_SITE01-0002,85,GB001,PERFORMED,Y,Y,,,60.0,,mg,CAPSULE,QD,ORAL,7.0,WEEK 12,TREATMENT,2024-06-21,2024-06-21,85,85
GB001-2001,EC,GB001-2001-POL_SITE01-0002,86,GB001,PERFORMED,Y,Y,,,60.0,,mg,CAPSULE,QD,ORAL,7.0,WEEK 12,TREATMENT,2024-06-22,2024-06-22,86,86
GB001-2001,EC,GB001-2001-POL_SITE01-0002,87,GB001,PERFORMED,Y,Y,,,60.0,,mg,CAPSULE,QD,ORAL,7.0,WEEK 12,TREATMENT,2024-06-23,2024-06-23,87,87
GB001-2001,EC,GB001-2001-POL_SITE01-0002,88,GB001,PERFORMED,Y,Y,,,60.0,,mg,CAPSULE,QD,ORAL,7.0,WEEK 12,TREATMENT,2024-06-24,2024-06-24,88,88
GB001-2001,EC,GB001-2001-POL_SITE01-0002,89,GB001,PERFORMED,Y,Y,,,60.0,,mg,CAPSULE,QD,ORAL,89.0,,TREATMENT,2024-06-25,2024-06-25,89,89
GB001-2001,EC,GB001-2001-POL_SITE01-0002,90,GB001,PERFORMED,Y,Y,,,60.0,,mg,CAPSULE,QD,ORAL,90.0,,TREATMENT,2024-06-26,2024-06-26,90,90
GB001-2001,EC,GB001-2001-POL_SITE01-0002,91,GB001,PERFORMED,Y,Y,,,60.0,,mg,CAPSULE,QD,ORAL,91.0,,TREATMENT,2024-06-27,2024-06-27,91,91
GB001-2001,EC,GB001-2001-POL_SITE01-0002,92,GB001,PERFORMED,Y,Y,,,60.0,,mg,CAPSULE,QD,ORAL,92.0,,TREATMENT,2024-06-28,2024-06-28,92,92
GB001-2001,EC,GB001-2001-POL_SITE01-0002,93,GB001,PERFORMED,Y,Y,,,60.0,,mg,CAPSULE,QD,ORAL,93.0,,TREATMENT,2024-06-29,2024-06-29,93,93
GB001-2001,EC,GB001-2001-POL_SITE01-0002,94,GB001,PERFORMED,Y,Y,,,60.0,,mg,CAPSULE,QD,ORAL,94.0,,TREATMENT,2024-06-30,2024-06-30,94,94
GB001-2001,EC,GB001-2001-POL_SITE01-0002,95,GB001,PERFORMED,Y,Y,,,60.0,,mg,CAPSULE,QD,ORAL,95.0,,TREATMENT,2024-07-01,2024-07-01,95,95
GB001-2001,EC,GB001-2001-POL_SITE01-0002,96,GB001,PERFORMED,Y,Y,,,60.0,,mg,CAPSULE,QD,ORAL,96.0,,TREATMENT,2024-07-02,2024-07-02,96,96
GB001-2001,EC,GB001-2001-POL_SITE01-0002,97,GB001,PERFORMED,Y,Y,,,60.0,,mg,CAPSULE,QD,ORAL,97.0,,TREATMENT,2024-07-03,2024-07-03,97,97
GB001-2001,EC,GB001-2001-POL_SITE01-0002,98,GB001,PERFORMED,Y,Y,,,60.0,,mg,CAPSULE,QD,ORAL,98.0,,TREATMENT,2024-07-04,2024-07-04,98,98
GB001-2001,EC,GB001-2001-POL_SITE01-0002,99,GB001,PERFORMED,Y,Y,,,60.0,,mg,CAPSULE,QD,ORAL,99.0,,TREATMENT,2024-07-05,2024-07-05,99,99
GB001-2001,EC,GB001-2001-POL_SITE01-0002,100,GB001,PERFORMED,Y,Y,,,60.0,,mg,CAPSULE,QD,ORAL,100.0,,TREATMENT,2024-07-06,2024-07-06,100,100
GB001-2001,EC,GB001-2001-POL_SITE01-0002,101,GB001,PERFORMED,Y,Y,,,60.0,,mg,CAPSULE,QD,ORAL,101.0,,TREATMENT,2024-07-07,2024-07-07,101,101
GB001-2001,EC,GB001-2001-POL_SITE01-0002,102,GB001,PERFORMED,Y,Y,,,60.0,,mg,CAPSULE,QD,ORAL,102.0,,TREATMENT,2024-07-08,2024-07-08,102,102
GB001-2001,EC,GB001-2001-POL_SITE01-0002,103,GB001,PERFORMED,Y,Y,,,60.0,,mg,CAPSULE,QD,ORAL,103.0,,TREATMENT,2024-07-09,2024-07-09,103,103
GB001-2001,EC,GB001-2001-POL_SITE01-0002,104,GB001,PERFORMED,Y,Y,,,60.0,,mg,CAPSULE,QD,ORAL,104.0,,TREATMENT,2024-07-10,2024-07-10,104,104
GB001-2001,EC,GB001-2001-POL_SITE01-0002,105,GB001,PERFORMED,Y,Y,,,60.0,,mg,CAPSULE,QD,ORAL,105.0,,TREATMENT,2024-07-11,2024-07-11,105,105
GB001-2001,EC,GB001-2001-POL_SITE01-0002,106,GB001,PERFORMED,Y,Y,,,60.0,,mg,CAPSULE,QD,ORAL,106.0,,TREATMENT,2024-07-12,2024-07-12,106,106
GB001-2001,EC,GB001-2001-POL_SITE01-0002,107,GB001,PERFORMED,Y,Y,,,60.0,,mg,CAPSULE,QD,ORAL,107.0,,TREATMENT,2024-07-13,2024-07-13,107,107
GB001-2001,EC,GB001-2001-POL_SITE01-0002,108,GB001,PERFORMED,Y,Y,,,60.0,,mg,CAPSULE,QD,ORAL,108.0,,TREATMENT,2024-07-14,2024-07-14,108,108
GB001-2001,EC,GB001-2001-POL_SITE01-0002,109,GB001,PERFORMED,Y,Y,,,60.0,,mg,CAPSULE,QD,ORAL,109.0,,TREATMENT,2024-07-15,2024-07-15,109,109
GB001-2001,EC,GB001-2001-POL_SITE01-0002,110,GB001,PERFORMED,Y,Y,,,60.0,,mg,CAPSULE,QD,ORAL,8.0,WEEK 16,TREATMENT,2024-07-16,2024-07-16,110,110
GB001-2001,EC,GB001-2001-POL_SITE01-0002,111,GB001,PERFORMED,Y,Y,,,60.0,,mg,CAPSULE,QD,ORAL,8.0,WEEK 16,TREATMENT,2024-07-17,2024-07-17,111,111
GB001-2001,EC,GB001-2001-POL_SITE01-0002,112,GB001,PERFORMED,Y,Y,,,60.0,,mg,CAPSULE,QD,ORAL,8.0,WEEK 16,TREATMENT,2024-07-18,2024-07-18,112,112
GB001-2001,EC,GB001-2001-POL_SITE01-0002,113,GB001,PERFORMED,Y,Y,,,60.0,,mg,CAPSULE,QD,ORAL,8.0,WEEK 16,TREATMENT,2024-07-19,2024-07-19,113,113
GB001-2001,EC,GB001-2001-POL_SITE01-0002,114,GB001,PERFORMED,Y,Y,,,60.0,,mg,CAPSULE,QD,ORAL,8.0,WEEK 16,TREATMENT,2024-07-20,2024-07-20,114,114
GB001-2001,EC,GB001-2001-POL_SITE01-0002,115,GB001,PERFORMED,Y,Y,,,60.0,,mg,CAPSULE,QD,ORAL,8.0,WEEK 16,TREATMENT,2024-07-21,2024-07-21,115,115
GB001-2001,EC,GB001-2001-POL_SITE01-0002,116,GB001,PERFORMED,Y,Y,,,60.0,,mg,CAPSULE,QD,ORAL,8.0,WEEK 16,TREATMENT,2024-07-22,2024-07-22,116,116
GB001-2001,EC,GB001-2001-POL_SITE01-0002,117,GB001,PERFORMED,Y,Y,,,60.0,,mg,CAPSULE,QD,ORAL,117.0,,TREATMENT,2024-07-23,2024-07-23,117,117
GB001-2001,EC,GB001-2001-POL_SITE01-0002,118,GB001,PERFORMED,Y,Y,,,60.0,,mg,CAPSULE,QD,ORAL,118.0,,TREATMENT,2024-07-24,2024-07-24,118,118
GB001-2001,EC,GB001-2001-POL_SITE01-0002,119,GB001,PERFORMED,Y,Y,,,60.0,,mg,CAPSULE,QD,ORAL,119.0,,TREATMENT,2024-07-25,2024-07-25,119,119
GB001-2001,EC,GB001-2001-POL_SITE01-0002,120,GB001,PERFORMED,Y,Y,,,60.0,,mg,CAPSULE,QD,ORAL,120.0,,TREATMENT,2024-07-26,2024-07-26,120,120
GB001-2001,EC,GB001-2001-POL_SITE01-0002,121,GB001,PERFORMED,Y,Y,,,60.0,,mg,CAPSULE,QD,ORAL,121.0,,TREATMENT,2024-07-27,2024-07-27,121,121
GB001-2001,EC,GB001-2001-POL_SITE01-0002,122,GB001,PERFORMED,Y,Y,,,60.0,,mg,CAPSULE,QD,ORAL,122.0,,TREATMENT,2024-07-28,2024-07-28,122,122
GB001-2001,EC,GB001-2001-POL_SITE01-0002,123,GB001,PERFORMED,Y,Y,,,60.0,,mg,CAPSULE,QD,ORAL,123.0,,TREATMENT,2024-07-29,2024-07-29,123,123
GB001-2001,EC,GB001-2001-POL_SITE01-0002,124,GB001,PERFORMED,Y,Y,,,60.0,,mg,CAPSULE,QD,ORAL,124.0,,TREATMENT,2024-07-30,2024-07-30,124,124
GB001-2001,EC,GB001-2001-POL_SITE01-0002,125,GB001,PERFORMED,Y,Y,,,60.0,,mg,CAPSULE,QD,ORAL,125.0,,TREATMENT,2024-07-31,2024-07-31,125,125
GB001-2001,EC,GB001-2001-POL_SITE01-0002,126,GB001,PERFORMED,Y,Y,,,60.0,,mg,CAPSULE,QD,ORAL,126.0,,TREATMENT,2024-08-01,2024-08-01,126,126
GB001-2001,EC,GB001-2001-POL_SITE01-0002,127,GB001,PERFORMED,Y,Y,,,60.0,,mg,CAPSULE,QD,ORAL,127.0,,TREATMENT,2024-08-02,2024-08-02,127,127
GB001-2001,EC,GB001-2001-POL_SITE01-0002,128,GB001,PERFORMED,Y,Y,,,60.0,,mg,CAPSULE,QD,ORAL,128.0,,TREATMENT,2024-08-03,2024-08-03,128,128
GB001-2001,EC,GB001-2001-POL_SITE01-0002,129,GB001,PERFORMED,Y,Y,,,60.0,,mg,CAPSULE,QD,ORAL,129.0,,TREATMENT,2024-08-04,2024-08-04,129,129
GB001-2001,EC,GB001-2001-POL_SITE01-0002,130,GB001,PERFORMED,Y,Y,,,60.0,,mg,CAPSULE,QD,ORAL,130.0,,TREATMENT,2024-08-05,2024-08-05,130,130
GB001-2001,EC,GB001-2001-POL_SITE01-0002,131,GB001,PERFORMED,Y,Y,,,60.0,,mg,CAPSULE,QD,ORAL,131.0,,TREATMENT,2024-08-06,2024-08-06,131,131
GB001-2001,EC,GB001-2001-POL_SITE01-0002,132,GB001,PERFORMED,Y,Y,,,60.0,,mg,CAPSULE,QD,ORAL,132.0,,TREATMENT,2024-08-07,2024-08-07,132,132
GB001-2001,EC,GB001-2001-POL_SITE01-0002,133,GB001,PERFORMED,Y,Y,,,60.0,,mg,CAPSULE,QD,ORAL,133.0,,TREATMENT,2024-08-08,2024-08-08,133,133
GB001-2001,EC,GB001-2001-POL_SITE01-0002,134,GB001,PERFORMED,Y,Y,,,60.0,,mg,CAPSULE,QD,ORAL,134.0,,TREATMENT,2024-08-09,2024-08-09,134,134
GB001-2001,EC,GB001-2001-POL_SITE01-0002,135,GB001,PERFORMED,Y,Y,,,60.0,,mg,CAPSULE,QD,ORAL,135.0,,TREATMENT,2024-08-10,2024-08-10,135,135
GB001-2001,EC,GB001-2001-POL_SITE01-0002,136,GB001,PERFORMED,Y,Y,,,60.0,,mg,CAPSULE,QD,ORAL,136.0,,TREATMENT,2024-08-11,2024-08-11,136,136
GB001-2001,EC,GB001-2001-POL_SITE01-0002,137,GB001,PERFORMED,Y,Y,,,60.0,,mg,CAPSULE,QD,ORAL,137.0,,TREATMENT,2024-08-12,2024-08-12,137,137
GB001-2001,EC,GB001-2001-POL_SITE01-0002,138,GB001,PERFORMED,Y,Y,,,60.0,,mg,CAPSULE,QD,ORAL,9.0,WEEK 20,TREATMENT,2024-08-13,2024-08-13,138,138
GB001-2001,EC,GB001-2001-POL_SITE01-0002,139,GB001,PERFORMED,Y,Y,,,60.0,,mg,CAPSULE,QD,ORAL,9.0,WEEK 20,TREATMENT,2024-08-14,2024-08-14,139,139
GB001-2001,EC,GB001-2001-POL_SITE01-0002,140,GB001,PERFORMED,Y,Y,,,60.0,,mg,CAPSULE,QD,ORAL,9.0,WEEK 20,TREATMENT,2024-08-15,2024-08-15,140,140
GB001-2001,EC,GB001-2001-POL_SITE01-0002,141,GB001,PERFORMED,Y,Y,,,60.0,,mg,CAPSULE,QD,ORAL,9.0,WEEK 20,TREATMENT,2024-08-16,2024-08-16,141,141
GB001-2001,EC,GB001-2001-POL_SITE01-0002,142,GB001,PERFORMED,Y,Y,,,60.0,,mg,CAPSULE,QD,ORAL,9.0,WEEK 20,TREATMENT,2024-08-17,2024-08-17,142,142
GB001-2001,EC,GB001-2001-POL_SITE01-0002,143,GB001,PERFORMED,Y,Y,,,60.0,,mg,CAPSULE,QD,ORAL,9.0,WEEK 20,TREATMENT,2024-08-18,2024-08-18,143,143
GB001-2001,EC,GB001-2001-POL_SITE01-0002,144,GB001,PERFORMED,Y,Y,,,60.0,,mg,CAPSULE,QD,ORAL,9.0,WEEK 20,TREATMENT,2024-08-19,2024-08-19,144,144
GB001-2001,EC,GB001-2001-POL_SITE01-0002,145,GB001,PERFORMED,Y,Y,,,60.0,,mg,CAPSULE,QD,ORAL,145.0,,TREATMENT,2024-08-20,2024-08-20,145,145
GB001-2001,EC,GB001-2001-POL_SITE01-0002,146,GB001,PERFORMED,Y,Y,,,60.0,,mg,CAPSULE,QD,ORAL,146.0,,TREATMENT,2024-08-21,2024-08-21,146,146
GB001-2001,EC,GB001-2001-POL_SITE01-0002,147,GB001,PERFORMED,Y,Y,,,60.0,,mg,CAPSULE,QD,ORAL,147.0,,TREATMENT,2024-08-22,2024-08-22,147,147
GB001-2001,EC,GB001-2001-POL_SITE01-0002,148,GB001,PERFORMED,Y,Y,,,60.0,,mg,CAPSULE,QD,ORAL,148.0,,TREATMENT,2024-08-23,2024-08-23,148,148
GB001-2001,EC,GB001-2001-POL_SITE01-0002,149,GB001,PERFORMED,Y,Y,,,60.0,,mg,CAPSULE,QD,ORAL,149.0,,TREATMENT,2024-08-24,2024-08-24,149,149
GB001-2001,EC,GB001-2001-POL_SITE01-0002,150,GB001,PERFORMED,Y,Y,,,60.0,,mg,CAPSULE,QD,ORAL,150.0,,TREATMENT,2024-08-25,2024-08-25,150,150
GB001-2001,EC,GB001-2001-POL_SITE01-0002,151,GB001,PERFORMED,Y,Y,,,60.0,,mg,CAPSULE,QD,ORAL,151.0,,TREATMENT,2024-08-26,2024-08-26,151,151
GB001-2001,EC,GB001-2001-POL_SITE01-0002,152,GB001,PERFORMED,Y,Y,,,60.0,,mg,CAPSULE,QD,ORAL,152.0,,TREATMENT,2024-08-27,2024-08-27,152,152
GB001-2001,EC,GB001-2001-POL_SITE01-0002,153,GB001,PERFORMED,Y,Y,,,60.0,,mg,CAPSULE,QD,ORAL,153.0,,TREATMENT,2024-08-28,2024-08-28,153,153
GB001-2001,EC,GB001-2001-POL_SITE01-0002,154,GB001,PERFORMED,Y,Y,,,60.0,,mg,CAPSULE,QD,ORAL,154.0,,TREATMENT,2024-08-29,2024-08-29,154,154
GB001-2001,EC,GB001-2001-POL_SITE01-0002,155,GB001,PERFORMED,Y,Y,,,60.0,,mg,CAPSULE,QD,ORAL,155.0,,TREATMENT,2024-08-30,2024-08-30,155,155
GB001-2001,EC,GB001-2001-POL_SITE01-0002,156,GB001,PERFORMED,Y,Y,,,60.0,,mg,CAPSULE,QD,ORAL,156.0,,TREATMENT,2024-08-31,2024-08-31,156,156
GB001-2001,EC,GB001-2001-POL_SITE01-0002,157,GB001,PERFORMED,Y,Y,,,60.0,,mg,CAPSULE,QD,ORAL,157.0,,TREATMENT,2024-09-01,2024-09-01,157,157
GB001-2001,EC,GB001-2001-POL_SITE01-0002,158,GB001,PERFORMED,Y,Y,,,60.0,,mg,CAPSULE,QD,ORAL,158.0,,TREATMENT,2024-09-02,2024-09-02,158,158
GB001-2001,EC,GB001-2001-POL_SITE01-0002,159,GB001,PERFORMED,Y,Y,,,60.0,,mg,CAPSULE,QD,ORAL,159.0,,TREATMENT,2024-09-03,2024-09-03,159,159
GB001-2001,EC,GB001-2001-POL_SITE01-0002,160,GB001,PERFORMED,Y,Y,,,60.0,,mg,CAPSULE,QD,ORAL,160.0,,TREATMENT,2024-09-04,2024-09-04,160,160
GB001-2001,EC,GB001-2001-POL_SITE01-0002,161,GB001,PERFORMED,Y,Y,,,60.0,,mg,CAPSULE,QD,ORAL,161.0,,TREATMENT,2024-09-05,2024-09-05,161,161
GB001-2001,EC,GB001-2001-POL_SITE01-0002,162,GB001,PERFORMED,Y,Y,,,60.0,,mg,CAPSULE,QD,ORAL,162.0,,TREATMENT,2024-09-06,2024-09-06,162,162
GB001-2001,EC,GB001-2001-POL_SITE01-0002,163,GB001,PERFORMED,Y,Y,,,60.0,,mg,CAPSULE,QD,ORAL,163.0,,TREATMENT,2024-09-07,2024-09-07,163,163
GB001-2001,EC,GB001-2001-POL_SITE01-0002,164,GB001,PERFORMED,Y,Y,,,60.0,,mg,CAPSULE,QD,ORAL,164.0,,TREATMENT,2024-09-08,2024-09-08,164,164
GB001-2001,EC,GB001-2001-POL_SITE01-0002,165,GB001,PERFORMED,Y,Y,,,60.0,,mg,CAPSULE,QD,ORAL,165.0,,TREATMENT,2024-09-09,2024-09-09,165,165
GB001-2001,EC,GB001-2001-POL_SITE01-0002,166,GB001,PERFORMED,Y,Y,,,60.0,,mg,CAPSULE,QD,ORAL,10.0,WEEK 24 EOT,TREATMENT,2024-09-10,2024-09-10,166,166
GB001-2001,EC,GB001-2001-POL_SITE01-0002,167,GB001,PERFORMED,Y,Y,,,60.0,,mg,CAPSULE,QD,ORAL,10.0,WEEK 24 EOT,TREATMENT,2024-09-11,2024-09-11,167,167
GB001-2001,EC,GB001-2001-POL_SITE01-0002,168,GB001,PERFORMED,Y,Y,,,60.0,,mg,CAPSULE,QD,ORAL,10.0,WEEK 24 EOT,TREATMENT,2024-09-12,2024-09-12,168,168
GB001-2001,EC,GB001-2001-POL_SITE01-0004,1,GB001,PERFORMED,Y,Y,,,40.0,,mg,CAPSULE,QD,ORAL,3.0,RANDOMIZATION,RUN_IN,2024-04-18,2024-04-18,1,1
GB001-2001,EC,GB001-2001-POL_SITE01-0004,2,GB001,SCHEDULED,Y,,NOT DONE,SUBJECT NON-COMPLIANCE,,,mg,CAPSULE,QD,ORAL,3.0,RANDOMIZATION,RUN_IN,2024-04-19,2024-04-19,2,2
GB001-2001,EC,GB001-2001-POL_SITE01-0004,3,GB001,PERFORMED,Y,Y,,,40.0,,mg,CAPSULE,QD,ORAL,3.0,RANDOMIZATION,RUN_IN,2024-04-20,2024-04-20,3,3
GB001-2001,EC,GB001-2001-POL_SITE01-0004,4,GB001,PERFORMED,Y,Y,,,40.0,,mg,CAPSULE,QD,ORAL,3.0,RANDOMIZATION,RUN_IN,2024-04-21,2024-04-21,4,4
GB001-2001,EC,GB001-2001-POL_SITE01-0004,5,GB001,PERFORMED,Y,Y,,,40.0,,mg,CAPSULE,QD,ORAL,5.0,,RUN_IN,2024-04-22,2024-04-22,5,5
GB001-2001,EC,GB001-2001-POL_SITE01-0004,6,GB001,PERFORMED,Y,Y,,,40.0,,mg,CAPSULE,QD,ORAL,6.0,,RUN_IN,2024-04-23,2024-04-23,6,6
GB001-2001,EC,GB001-2001-POL_SITE01-0004,7,GB001,PERFORMED,Y,Y,,,40.0,,mg,CAPSULE,QD,ORAL,7.0,,RUN_IN,2024-04-24,2024-04-24,7,7
GB001-2001,EC,GB001-2001-POL_SITE01-0004,8,GB001,PERFORMED,Y,Y,,,40.0,,mg,CAPSULE,QD,ORAL,8.0,,RUN_IN,2024-04-25,2024-04-25,8,8
GB001-2001,EC,GB001-2001-POL_SITE01-0004,9,GB001,SCHEDULED,Y,,NOT DONE,SUBJECT NON-COMPLIANCE,,,mg,CAPSULE,QD,ORAL,9.0,,RUN_IN,2024-04-26,2024-04-26,9,9
GB001-2001,EC,GB001-2001-POL_SITE01-0004,10,GB001,SCHEDULED,Y,,NOT DONE,SUBJECT NON-COMPLIANCE,,,mg,CAPSULE,QD,ORAL,10.0,,RUN_IN,2024-04-27,2024-04-27,10,10
GB001-2001,EC,GB001-2001-POL_SITE01-0004,11,GB001,PERFORMED,Y,Y,,,40.0,,mg,CAPSULE,QD,ORAL,11.0,,RUN_IN,2024-04-28,2024-04-28,11,11
GB001-2001,EC,GB001-2001-POL_SITE01-0004,12,GB001,SCHEDULED,Y,,NOT DONE,SUBJECT NON-COMPLIANCE,,,mg,CAPSULE,QD,ORAL,4.0,WEEK 2,RUN_IN,2024-04-29,2024-04-29,12,12
GB001-2001,EC,GB001-2001-POL_SITE01-0004,13,GB001,PERFORMED,Y,Y,,,40.0,,mg,CAPSULE,QD,ORAL,4.0,WEEK 2,RUN_IN,2024-04-30,2024-04-30,13,13
GB001-2001,EC,GB001-2001-POL_SITE01-0004,14,GB001,PERFORMED,Y,Y,,,40.0,,mg,CAPSULE,QD,ORAL,4.0,WEEK 2,RUN_IN,2024-05-01,2024-05-01,14,14
GB001-2001,EC,GB001-2001-POL_SITE01-0004,15,GB001,PERFORMED,Y,Y,,,40.0,,mg,CAPSULE,QD,ORAL,4.0,WEEK 2,RUN_IN,2024-05-02,2024-05-02,15,15
GB001-2001,EC,GB001-2001-POL_SITE01-0004,16,GB001,PERFORMED,Y,Y,,,40.0,,mg,CAPSULE,QD,ORAL,4.0,WEEK 2,RUN_IN,2024-05-03,2024-05-03,16,16
GB001-2001,EC,GB001-2001-POL_SITE01-0004,17,GB001,PERFORMED,Y,Y,,,40.0,,mg,CAPSULE,QD,ORAL,4.0,WEEK 2,RUN_IN,2024-05-04,2024-05-04,17,17
GB001-2001,EC,GB001-2001-POL_SITE01-0004,18,GB001,PERFORMED,Y,Y,,,40.0,,mg,CAPSULE,QD,ORAL,4.0,WEEK 2,RUN_IN,2024-05-05,2024-05-05,18,18
GB001-2001,EC,GB001-2001-POL_SITE01-0004,19,GB001,PERFORMED,Y,Y,,,40.0,,mg,CAPSULE,QD,ORAL,19.0,,RUN_IN,2024-05-06,2024-05-06,19,19
GB001-2001,EC,GB001-2001-POL_SITE01-0004,20,GB001,PERFORMED,Y,Y,,,40.0,,mg,CAPSULE,QD,ORAL,20.0,,RUN_IN,2024-05-07,2024-05-07,20,20
GB001-2001,EC,GB001-2001-POL_SITE01-0004,21,GB001,PERFORMED,Y,Y,,,40.0,,mg,CAPSULE,QD,ORAL,21.0,,RUN_IN,2024-05-08,2024-05-08,21,21
GB001-2001,EC,GB001-2001-POL_SITE01-0004,22,GB001,PERFORMED,Y,Y,,,40.0,,mg,CAPSULE,QD,ORAL,22.0,,RUN_IN,2024-05-09,2024-05-09,22,22
GB001-2001,EC,GB001-2001-POL_SITE01-0004,23,GB001,PERFORMED,Y,Y,,,40.0,,mg,CAPSULE,QD,ORAL,23.0,,RUN_IN,2024-05-10,2024-05-10,23,23
GB001-2001,EC,GB001-2001-POL_SITE01-0004,24,GB001,PERFORMED,Y,Y,,,40.0,,mg,CAPSULE,QD,ORAL,24.0,,RUN_IN,2024-05-11,2024-05-11,24,24
GB001-2001,EC,GB001-2001-POL_SITE01-0004,25,GB001,PERFORMED,Y,Y,,,40.0,,mg,CAPSULE,QD,ORAL,25.0,,RUN_IN,2024-05-12,2024-05-12,25,25
GB001-2001,EC,GB001-2001-POL_SITE01-0004,26,GB001,PERFORMED,Y,Y,,,40.0,,mg,CAPSULE,QD,ORAL,5.0,WEEK 4,RUN_IN,2024-05-13,2024-05-13,26,26
GB001-2001,EC,GB001-2001-POL_SITE01-0004,27,GB001,PERFORMED,Y,Y,,,40.0,,mg,CAPSULE,QD,ORAL,5.0,WEEK 4,RUN_IN,2024-05-14,2024-05-14,27,27
GB001-2001,EC,GB001-2001-POL_SITE01-0004,28,GB001,PERFORMED,Y,Y,,,40.0,,mg,CAPSULE,QD,ORAL,5.0,WEEK 4,RUN_IN,2024-05-15,2024-05-15,28,28
GB001-2001,EC,GB001-2001-POL_SITE01-0004,29,GB001,PERFORMED,Y,Y,,,40.0,,mg,CAPSULE,QD,ORAL,5.0,WEEK 4,TREATMENT,2024-05-16,2024-05-16,29,29
GB001-2001,EC,GB001-2001-POL_SITE01-0004,30,GB001,PERFORMED,Y,Y,,,40.0,,mg,CAPSULE,QD,ORAL,5.0,WEEK 4,TREATMENT,2024-05-17,2024-05-17,30,30
GB001-2001,EC,GB001-2001-POL_SITE01-0004,31,GB001,SCHEDULED,Y,,NOT DONE,SUBJECT NON-COMPLIANCE,,,mg,CAPSULE,QD,ORAL,5.0,WEEK 4,TREATMENT,2024-05-18,2024-05-18,31,31
GB001-2001,EC,GB001-2001-POL_SITE01-0004,32,GB001,PERFORMED,Y,Y,,,40.0,,mg,CAPSULE,QD,ORAL,5.0,WEEK 4,TREATMENT,2024-05-19,2024-05-19,32,32
GB001-2001,EC,GB001-2001-POL_SITE01-0004,33,GB001,PERFORMED,Y,Y,,,40.0,,mg,CAPSULE,QD,ORAL,33.0,,TREATMENT,2024-05-20,2024-05-20,33,33
GB001-2001,EC,GB001-2001-POL_SITE01-0004,34,GB001,PERFORMED,Y,Y,,,40.0,,mg,CAPSULE,QD,ORAL,34.0,,TREATMENT,2024-05-21,2024-05-21,34,34
GB001-2001,EC,GB001-2001-POL_SITE01-0004,35,GB001,PERFORMED,Y,Y,,,40.0,,mg,CAPSULE,QD,ORAL,35.0,,TREATMENT,2024-05-22,2024-05-22,35,35
GB001-2001,EC,GB001-2001-POL_SITE01-0004,36,GB001,PERFORMED,Y,Y,,,40.0,,mg,CAPSULE,QD,ORAL,36.0,,TREATMENT,2024-05-23,2024-05-23,36,36
GB001-2001,EC,GB001-2001-POL_SITE01-0004,37,GB001,PERFORMED,Y,Y,,,40.0,,mg,CAPSULE,QD,ORAL,37.0,,TREATMENT,2024-05-24,2024-05-24,37,37
GB001-2001,EC,GB001-2001-POL_SITE01-0004,38,GB001,PERFORMED,Y,Y,,,40.0,,mg,CAPSULE,QD,ORAL,38.0,,TREATMENT,2024-05-25,2024-05-25,38,38
GB001-2001,EC,GB001-2001-POL_SITE01-0004,39,GB001,PERFORMED,Y,Y,,,40.0,,mg,CAPSULE,QD,ORAL,39.0,,TREATMENT,2024-05-26,2024-05-26,39,39
GB001-2001,EC,GB001-2001-POL_SITE01-0004,40,GB001,PERFORMED,Y,Y,,,40.0,,mg,CAPSULE,QD,ORAL,40.0,,TREATMENT,2024-05-27,2024-05-27,40,40
GB001-2001,EC,GB001-2001-POL_SITE01-0004,41,GB001,SCHEDULED,Y,,NOT DONE,SUBJECT NON-COMPLIANCE,,,mg,CAPSULE,QD,ORAL,41.0,,TREATMENT,2024-05-28,2024-05-28,41,41
GB001-2001,EC,GB001-2001-POL_SITE01-0004,42,GB001,SCHEDULED,Y,,NOT DONE,SUBJECT NON-COMPLIANCE,,,mg,CAPSULE,QD,ORAL,42.0,,TREATMENT,2024-05-29,2024-05-29,42,42
GB001-2001,EC,GB001-2001-POL_SITE01-0004,43,GB001,SCHEDULED,Y,,NOT DONE,SUBJECT NON-COMPLIANCE,,,mg,CAPSULE,QD,ORAL,43.0,,TREATMENT,2024-05-30,2024-05-30,43,43
GB001-2001,EC,GB001-2001-POL_SITE01-0004,44,GB001,PERFORMED,Y,Y,,,40.0,,mg,CAPSULE,QD,ORAL,44.0,,TREATMENT,2024-05-31,2024-05-31,44,44
GB001-2001,EC,GB001-2001-POL_SITE01-0004,45,GB001,PERFORMED,Y,Y,,,40.0,,mg,CAPSULE,QD,ORAL,45.0,,TREATMENT,2024-06-01,2024-06-01,45,45
GB001-2001,EC,GB001-2001-POL_SITE01-0004,46,GB001,PERFORMED,Y,Y,,,40.0,,mg,CAPSULE,QD,ORAL,46.0,,TREATMENT,2024-06-02,2024-06-02,46,46
GB001-2001,EC,GB001-2001-POL_SITE01-0004,47,GB001,PERFORMED,Y,Y,,,40.0,,mg,CAPSULE,QD,ORAL,47.0,,TREATMENT,2024-06-03,2024-06-03,47,47
GB001-2001,EC,GB001-2001-POL_SITE01-0004,48,GB001,PERFORMED,Y,Y,,,40.0,,mg,CAPSULE,QD,ORAL,48.0,,TREATMENT,2024-06-04,2024-06-04,48,48
GB001-2001,EC,GB001-2001-POL_SITE01-0004,49,GB001,PERFORMED,Y,Y,,,40.0,,mg,CAPSULE,QD,ORAL,49.0,,TREATMENT,2024-06-05,2024-06-05,49,49
GB001-2001,EC,GB001-2001-POL_SITE01-0004,50,GB001,PERFORMED,Y,Y,,,40.0,,mg,CAPSULE,QD,ORAL,50.0,,TREATMENT,2024-06-06,2024-06-06,50,50
GB001-2001,EC,GB001-2001-POL_SITE01-0004,51,GB001,PERFORMED,Y,Y,,,40.0,,mg,CAPSULE,QD,ORAL,51.0,,TREATMENT,2024-06-07,2024-06-07,51,51
GB001-2001,EC,GB001-2001-POL_SITE01-0004,52,GB001,PERFORMED,Y,Y,,,40.0,,mg,CAPSULE,QD,ORAL,52.0,,TREATMENT,2024-06-08,2024-06-08,52,52
GB001-2001,EC,GB001-2001-POL_SITE01-0004,53,GB001,SCHEDULED,Y,,NOT DONE,SUBJECT NON-COMPLIANCE,,,mg,CAPSULE,QD,ORAL,53.0,,TREATMENT,2024-06-09,2024-06-09,53,53
GB001-2001,EC,GB001-2001-POL_SITE01-0004,54,GB001,SCHEDULED,Y,,NOT DONE,SUBJECT NON-COMPLIANCE,,,mg,CAPSULE,QD,ORAL,6.0,WEEK 8,TREATMENT,2024-06-10,2024-06-10,54,54
GB001-2001,EC,GB001-2001-POL_SITE01-0004,55,GB001,PERFORMED,Y,Y,,,40.0,,mg,CAPSULE,QD,ORAL,6.0,WEEK 8,TREATMENT,2024-06-11,2024-06-11,55,55
GB001-2001,EC,GB001-2001-POL_SITE01-0004,56,GB001,PERFORMED,Y,Y,,,40.0,,mg,CAPSULE,QD,ORAL,6.0,WEEK 8,TREATMENT,2024-06-12,2024-06-12,56,56
GB001-2001,EC,GB001-2001-POL_SITE01-0004,57,GB001,PERFORMED,Y,Y,,,40.0,,mg,CAPSULE,QD,ORAL,6.0,WEEK 8,TREATMENT,2024-06-13,2024-06-13,57,57
GB001-2001,EC,GB001-2001-POL_SITE01-0004,58,GB001,PERFORMED,Y,Y,,,40.0,,mg,CAPSULE,QD,ORAL,6.0,WEEK 8,TREATMENT,2024-06-14,2024-06-14,58,58
GB001-2001,EC,GB001-2001-POL_SITE01-0004,59,GB001,PERFORMED,Y,Y,,,40.0,,mg,CAPSULE,QD,ORAL,6.0,WEEK 8,TREATMENT,2024-06-15,2024-06-15,59,59
GB001-2001,EC,GB001-2001-POL_SITE01-0004,60,GB001,PERFORMED,Y,Y,,,40.0,,mg,CAPSULE,QD,ORAL,6.0,WEEK 8,TREATMENT,2024-06-16,2024-06-16,60,60
GB001-2001,EC,GB001-2001-POL_SITE01-0004,61,GB001,PERFORMED,Y,Y,,,40.0,,mg,CAPSULE,QD,ORAL,61.0,,TREATMENT,2024-06-17,2024-06-17,61,61
GB001-2001,EC,GB001-2001-POL_SITE01-0004,62,GB001,SCHEDULED,Y,,NOT DONE,SUBJECT NON-COMPLIANCE,,,mg,CAPSULE,QD,ORAL,62.0,,TREATMENT,2024-06-18,2024-06-18,62,62
GB001-2001,EC,GB001-2001-POL_SITE01-0004,63,GB001,PERFORMED,Y,Y,,,40.0,,mg,CAPSULE,QD,ORAL,63.0,,TREATMENT,2024-06-19,2024-06-19,63,63
GB001-2001,EC,GB001-2001-POL_SITE01-0004,64,GB001,PERFORMED,Y,Y,,,40.0,,mg,CAPSULE,QD,ORAL,64.0,,TREATMENT,2024-06-20,2024-06-20,64,64
GB001-2001,EC,GB001-2001-POL_SITE01-0004,65,GB001,PERFORMED,Y,Y,,,40.0,,mg,CAPSULE,QD,ORAL,65.0,,TREATMENT,2024-06-21,2024-06-21,65,65
GB001-2001,EC,GB001-2001-POL_SITE01-0004,66,GB001,PERFORMED,Y,Y,,,40.0,,mg,CAPSULE,QD,ORAL,66.0,,TREATMENT,2024-06-22,2024-06-22,66,66
GB001-2001,EC,GB001-2001-POL_SITE01-0004,67,GB001,PERFORMED,Y,Y,,,40.0,,mg,CAPSULE,QD,ORAL,67.0,,TREATMENT,2024-06-23,2024-06-23,67,67
GB001-2001,EC,GB001-2001-POL_SITE01-0004,68,GB001,PERFORMED,Y,Y,,,40.0,,mg,CAPSULE,QD,ORAL,68.0,,TREATMENT,2024-06-24,2024-06-24,68,68
GB001-2001,EC,GB001-2001-POL_SITE01-0004,69,GB001,PERFORMED,Y,Y,,,40.0,,mg,CAPSULE,QD,ORAL,69.0,,TREATMENT,2024-06-25,2024-06-25,69,69
GB001-2001,EC,GB001-2001-POL_SITE01-0004,70,GB001,PERFORMED,Y,Y,,,40.0,,mg,CAPSULE,QD,ORAL,70.0,,TREATMENT,2024-06-26,2024-06-26,70,70
GB001-2001,EC,GB001-2001-POL_SITE01-0004,71,GB001,PERFORMED,Y,Y,,,40.0,,mg,CAPSULE,QD,ORAL,71.0,,TREATMENT,2024-06-27,2024-06-27,71,71
GB001-2001,EC,GB001-2001-POL_SITE01-0004,72,GB001,PERFORMED,Y,Y,,,40.0,,mg,CAPSULE,QD,ORAL,72.0,,TREATMENT,2024-06-28,2024-06-28,72,72
GB001-2001,EC,GB001-2001-POL_SITE01-0014,1,PLACEBO,PERFORMED,Y,Y,,,,PLACEBO,mg,CAPSULE,QD,ORAL,3.0,RANDOMIZATION,RUN_IN,2024-02-04,2024-02-04,1,1
GB001-2001,EC,GB001-2001-POL_SITE01-0014,2,PLACEBO,PERFORMED,Y,Y,,,,PLACEBO,mg,CAPSULE,QD,ORAL,3.0,RANDOMIZATION,RUN_IN,2024-02-05,2024-02-05,2,2
GB001-2001,EC,GB001-2001-POL_SITE01-0014,3,PLACEBO,PERFORMED,Y,Y,,,,PLACEBO,mg,CAPSULE,QD,ORAL,3.0,RANDOMIZATION,RUN_IN,2024-02-06,2024-02-06,3,3
GB001-2001,EC,GB001-2001-POL_SITE01-0014,4,PLACEBO,PERFORMED,Y,Y,,,,PLACEBO,mg,CAPSULE,QD,ORAL,3.0,RANDOMIZATION,RUN_IN,2024-02-07,2024-02-07,4,4
GB001-2001,EC,GB001-2001-POL_SITE01-0014,5,PLACEBO,PERFORMED,Y,Y,,,,PLACEBO,mg,CAPSULE,QD,ORAL,5.0,,RUN_IN,2024-02-08,2024-02-08,5,5
GB001-2001,EC,GB001-2001-POL_SITE01-0014,6,PLACEBO,PERFORMED,Y,Y,,,,PLACEBO,mg,CAPSULE,QD,ORAL,6.0,,RUN_IN,2024-02-09,2024-02-09,6,6
GB001-2001,EC,GB001-2001-POL_SITE01-0014,7,PLACEBO,SCHEDULED,Y,,NOT DONE,SUBJECT NON-COMPLIANCE,,,mg,CAPSULE,QD,ORAL,7.0,,RUN_IN,2024-02-10,2024-02-10,7,7
GB001-2001,EC,GB001-2001-POL_SITE01-0014,8,PLACEBO,PERFORMED,Y,Y,,,,PLACEBO,mg,CAPSULE,QD,ORAL,8.0,,RUN_IN,2024-02-11,2024-02-11,8,8
GB001-2001,EC,GB001-2001-POL_SITE01-0014,9,PLACEBO,PERFORMED,Y,Y,,,,PLACEBO,mg,CAPSULE,QD,ORAL,9.0,,RUN_IN,2024-02-12,2024-02-12,9,9
GB001-2001,EC,GB001-2001-POL_SITE01-0014,10,PLACEBO,PERFORMED,Y,Y,,,,PLACEBO,mg,CAPSULE,QD,ORAL,10.0,,RUN_IN,2024-02-13,2024-02-13,10,10
GB001-2001,EC,GB001-2001-POL_SITE01-0014,11,PLACEBO,PERFORMED,Y,Y,,,,PLACEBO,mg,CAPSULE,QD,ORAL,11.0,,RUN_IN,2024-02-14,2024-02-14,11,11
GB001-2001,EC,GB001-2001-POL_SITE01-0014,12,PLACEBO,PERFORMED,Y,Y,,,,PLACEBO,mg,CAPSULE,QD,ORAL,4.0,WEEK 2,RUN_IN,2024-02-15,2024-02-15,12,12
GB001-2001,EC,GB001-2001-POL_SITE01-0014,13,PLACEBO,PERFORMED,Y,Y,,,,PLACEBO,mg,CAPSULE,QD,ORAL,4.0,WEEK 2,RUN_IN,2024-02-16,2024-02-16,13,13
GB001-2001,EC,GB001-2001-POL_SITE01-0014,14,PLACEBO,PERFORMED,Y,Y,,,,PLACEBO,mg,CAPSULE,QD,ORAL,4.0,WEEK 2,RUN_IN,2024-02-17,2024-02-17,14,14
GB001-2001,EC,GB001-2001-POL_SITE01-0014,15,PLACEBO,PERFORMED,Y,Y,,,,PLACEBO,mg,CAPSULE,QD,ORAL,4.0,WEEK 2,RUN_IN,2024-02-18,2024-02-18,15,15
GB001-2001,EC,GB001-2001-POL_SITE01-0014,16,PLACEBO,PERFORMED,Y,Y,,,,PLACEBO,mg,CAPSULE,QD,ORAL,4.0,WEEK 2,RUN_IN,2024-02-19,2024-02-19,16,16
GB001-2001,EC,GB001-2001-POL_SITE01-0014,17,PLACEBO,PERFORMED,Y,Y,,,,PLACEBO,mg,CAPSULE,QD,ORAL,4.0,WEEK 2,RUN_IN,2024-02-20,2024-02-20,17,17
GB001-2001,EC,GB001-2001-POL_SITE01-0014,18,PLACEBO,PERFORMED,Y,Y,,,,PLACEBO,mg,CAPSULE,QD,ORAL,4.0,WEEK 2,RUN_IN,2024-02-21,2024-02-21,18,18
GB001-2001,EC,GB001-2001-POL_SITE01-0014,19,PLACEBO,SCHEDULED,Y,,NOT DONE,SUBJECT NON-COMPLIANCE,,,mg,CAPSULE,QD,ORAL,19.0,,RUN_IN,2024-02-22,2024-02-22,19,19
GB001-2001,EC,GB001-2001-POL_SITE01-0014,20,PLACEBO,PERFORMED,Y,Y,,,,PLACEBO,mg,CAPSULE,QD,ORAL,20.0,,RUN_IN,2024-02-23,2024-02-23,20,20
GB001-2001,EC,GB001-2001-POL_SITE01-0014,21,PLACEBO,PERFORMED,Y,Y,,,,PLACEBO,mg,CAPSULE,QD,ORAL,21.0,,RUN_IN,2024-02-24,2024-02-24,21,21
GB001-2001,EC,GB001-2001-POL_SITE01-0014,22,PLACEBO,PERFORMED,Y,Y,,,,PLACEBO,mg,CAPSULE,QD,ORAL,22.0,,RUN_IN,2024-02-25,2024-02-25,22,22
GB001-2001,EC,GB001-2001-POL_SITE01-0014,23,PLACEBO,SCHEDULED,Y,,NOT DONE,SUBJECT NON-COMPLIANCE,,,mg,CAPSULE,QD,ORAL,23.0,,RUN_IN,2024-02-26,2024-02-26,23,23
GB001-2001,EC,GB001-2001-POL_SITE01-0014,24,PLACEBO,PERFORMED,Y,Y,,,,PLACEBO,mg,CAPSULE,QD,ORAL,24.0,,RUN_IN,2024-02-27,2024-02-27,24,24
GB001-2001,EC,GB001-2001-POL_SITE01-0014,25,PLACEBO,PERFORMED,Y,Y,,,,PLACEBO,mg,CAPSULE,QD,ORAL,25.0,,RUN_IN,2024-02-28,2024-02-28,25,25
GB001-2001,EC,GB001-2001-POL_SITE01-0014,26,PLACEBO,PERFORMED,Y,Y,,,,PLACEBO,mg,CAPSULE,QD,ORAL,5.0,WEEK 4,RUN_IN,2024-02-29,2024-02-29,26,26
GB001-2001,EC,GB001-2001-POL_SITE01-0014,27,PLACEBO,SCHEDULED,Y,,NOT DONE,SUBJECT NON-COMPLIANCE,,,mg,CAPSULE,QD,ORAL,5.0,WEEK 4,RUN_IN,2024-03-01,2024-03-01,27,27
GB001-2001,EC,GB001-2001-POL_SITE01-0014,28,PLACEBO,PERFORMED,Y,Y,,,,PLACEBO,mg,CAPSULE,QD,ORAL,5.0,WEEK 4,RUN_IN,2024-03-02,2024-03-02,28,28
GB001-2001,EC,GB001-2001-POL_SITE01-0014,29,PLACEBO,PERFORMED,Y,Y,,,,PLACEBO,mg,CAPSULE,QD,ORAL,5.0,WEEK 4,TREATMENT,2024-03-03,2024-03-03,29,29
GB001-2001,EC,GB001-2001-POL_SITE01-0014,30,PLACEBO,PERFORMED,Y,Y,,,,PLACEBO,mg,CAPSULE,QD,ORAL,5.0,WEEK 4,TREATMENT,2024-03-04,2024-03-04,30,30
GB001-2001,EC,GB001-2001-POL_SITE01-0014,31,PLACEBO,PERFORMED,Y,Y,,,,PLACEBO,mg,CAPSULE,QD,ORAL,5.0,WEEK 4,TREATMENT,2024-03-05,2024-03-05,31,31
GB001-2001,EC,GB001-2001-POL_SITE01-0014,32,PLACEBO,PERFORMED,Y,Y,,,,PLACEBO,mg,CAPSULE,QD,ORAL,5.0,WEEK 4,TREATMENT,2024-03-06,2024-03-06,32,32
GB001-2001,EC,GB001-2001-POL_SITE01-0014,33,PLACEBO,PERFORMED,Y,Y,,,,PLACEBO,mg,CAPSULE,QD,ORAL,33.0,,TREATMENT,2024-03-07,2024-03-07,33,33
GB001-2001,EC,GB001-2001-POL_SITE01-0014,34,PLACEBO,PERFORMED,Y,Y,,,,PLACEBO,mg,CAPSULE,QD,ORAL,34.0,,TREATMENT,2024-03-08,2024-03-08,34,34
GB001-2001,EC,GB001-2001-POL_SITE01-0014,35,PLACEBO,PERFORMED,Y,Y,,,,PLACEBO,mg,CAPSULE,QD,ORAL,35.0,,TREATMENT,2024-03-09,2024-03-09,35,35
GB001-2001,EC,GB001-2001-POL_SITE01-0014,36,PLACEBO,PERFORMED,Y,Y,,,,PLACEBO,mg,CAPSULE,QD,ORAL,36.0,,TREATMENT,2024-03-10,2024-03-10,36,36
GB001-2001,EC,GB001-2001-POL_SITE01-0014,37,PLACEBO,SCHEDULED,Y,,NOT DONE,SUBJECT NON-COMPLIANCE,,,mg,CAPSULE,QD,ORAL,37.0,,TREATMENT,2024-03-11,2024-03-11,37,37
GB001-2001,EC,GB001-2001-POL_SITE01-0014,38,PLACEBO,PERFORMED,Y,Y,,,,PLACEBO,mg,CAPSULE,QD,ORAL,38.0,,TREATMENT,2024-03-12,2024-03-12,38,38
GB001-2001,EC,GB001-2001-POL_SITE01-0014,39,PLACEBO,PERFORMED,Y,Y,,,,PLACEBO,mg,CAPSULE,QD,ORAL,39.0,,TREATMENT,2024-03-13,2024-03-13,39,39
GB001-2001,EC,GB001-2001-POL_SITE01-0014,40,PLACEBO,PERFORMED,Y,Y,,,,PLACEBO,mg,CAPSULE,QD,ORAL,40.0,,TREATMENT,2024-03-14,2024-03-14,40,40
GB001-2001,EC,GB001-2001-POL_SITE01-0014,41,PLACEBO,PERFORMED,Y,Y,,,,PLACEBO,mg,CAPSULE,QD,ORAL,41.0,,TREATMENT,2024-03-15,2024-03-15,41,41
GB001-2001,EC,GB001-2001-POL_SITE01-0014,42,PLACEBO,PERFORMED,Y,Y,,,,PLACEBO,mg,CAPSULE,QD,ORAL,42.0,,TREATMENT,2024-03-16,2024-03-16,42,42
GB001-2001,EC,GB001-2001-POL_SITE01-0014,43,PLACEBO,PERFORMED,Y,Y,,,,PLACEBO,mg,CAPSULE,QD,ORAL,43.0,,TREATMENT,2024-03-17,2024-03-17,43,43
GB001-2001,EC,GB001-2001-POL_SITE01-0014,44,PLACEBO,PERFORMED,Y,Y,,,,PLACEBO,mg,CAPSULE,QD,ORAL,44.0,,TREATMENT,2024-03-18,2024-03-18,44,44
GB001-2001,EC,GB001-2001-POL_SITE01-0014,45,PLACEBO,PERFORMED,Y,Y,,,,PLACEBO,mg,CAPSULE,QD,ORAL,45.0,,TREATMENT,2024-03-19,2024-03-19,45,45
GB001-2001,EC,GB001-2001-POL_SITE01-0014,46,PLACEBO,PERFORMED,Y,Y,,,,PLACEBO,mg,CAPSULE,QD,ORAL,46.0,,TREATMENT,2024-03-20,2024-03-20,46,46
GB001-2001,EC,GB001-2001-POL_SITE01-0014,47,PLACEBO,PERFORMED,Y,Y,,,,PLACEBO,mg,CAPSULE,QD,ORAL,47.0,,TREATMENT,2024-03-21,2024-03-21,47,47
GB001-2001,EC,GB001-2001-POL_SITE01-0014,48,PLACEBO,PERFORMED,Y,Y,,,,PLACEBO,mg,CAPSULE,QD,ORAL,48.0,,TREATMENT,2024-03-22,2024-03-22,48,48
GB001-2001,EC,GB001-2001-POL_SITE01-0014,49,PLACEBO,PERFORMED,Y,Y,,,,PLACEBO,mg,CAPSULE,QD,ORAL,49.0,,TREATMENT,2024-03-23,2024-03-23,49,49
GB001-2001,EC,GB001-2001-POL_SITE01-0014,50,PLACEBO,PERFORMED,Y,Y,,,,PLACEBO,mg,CAPSULE,QD,ORAL,50.0,,TREATMENT,2024-03-24,2024-03-24,50,50
GB001-2001,EC,GB001-2001-POL_SITE01-0014,51,PLACEBO,PERFORMED,Y,Y,,,,PLACEBO,mg,CAPSULE,QD,ORAL,51.0,,TREATMENT,2024-03-25,2024-03-25,51,51
GB001-2001,EC,GB001-2001-POL_SITE01-0014,52,PLACEBO,PERFORMED,Y,Y,,,,PLACEBO,mg,CAPSULE,QD,ORAL,52.0,,TREATMENT,2024-03-26,2024-03-26,52,52
GB001-2001,EC,GB001-2001-POL_SITE01-0014,53,PLACEBO,SCHEDULED,Y,,NOT DONE,SUBJECT NON-COMPLIANCE,,,mg,CAPSULE,QD,ORAL,53.0,,TREATMENT,2024-03-27,2024-03-27,53,53
GB001-2001,EC,GB001-2001-POL_SITE01-0014,54,PLACEBO,PERFORMED,Y,Y,,,,PLACEBO,mg,CAPSULE,QD,ORAL,6.0,WEEK 8,TREATMENT,2024-03-28,2024-03-28,54,54
GB001-2001,EC,GB001-2001-POL_SITE01-0014,55,PLACEBO,PERFORMED,Y,Y,,,,PLACEBO,mg,CAPSULE,QD,ORAL,6.0,WEEK 8,TREATMENT,2024-03-29,2024-03-29,55,55
GB001-2001,EC,GB001-2001-POL_SITE01-0014,56,PLACEBO,PERFORMED,Y,Y,,,,PLACEBO,mg,CAPSULE,QD,ORAL,6.0,WEEK 8,TREATMENT,2024-03-30,2024-03-30,56,56
GB001-2001,EC,GB001-2001-POL_SITE01-0014,57,PLACEBO,PERFORMED,Y,Y,,,,PLACEBO,mg,CAPSULE,QD,ORAL,6.0,WEEK 8,TREATMENT,2024-03-31,2024-03-31,57,57
GB001-2001,EC,GB001-2001-POL_SITE01-0014,58,PLACEBO,PERFORMED,Y,Y,,,,PLACEBO,mg,CAPSULE,QD,ORAL,6.0,WEEK 8,TREATMENT,2024-04-01,2024-04-01,58,58
GB001-2001,EC,GB001-2001-POL_SITE01-0014,59,PLACEBO,PERFORMED,Y,Y,,,,PLACEBO,mg,CAPSULE,QD,ORAL,6.0,WEEK 8,TREATMENT,2024-04-02,2024-04-02,59,59
GB001-2001,EC,GB001-2001-POL_SITE01-0014,60,PLACEBO,PERFORMED,Y,Y,,,,PLACEBO,mg,CAPSULE,QD,ORAL,6.0,WEEK 8,TREATMENT,2024-04-03,2024-04-03,60,60
GB001-2001,EC,GB001-2001-POL_SITE01-0014,61,PLACEBO,PERFORMED,Y,Y,,,,PLACEBO,mg,CAPSULE,QD,ORAL,61.0,,TREATMENT,2024-04-04,2024-04-04,61,61
GB001-2001,EC,GB001-2001-POL_SITE01-0014,62,PLACEBO,SCHEDULED,Y,,NOT DONE,SUBJECT NON-COMPLIANCE,,,mg,CAPSULE,QD,ORAL,62.0,,TREATMENT,2024-04-05,2024-04-05,62,62
GB001-2001,EC,GB001-2001-POL_SITE01-0014,63,PLACEBO,PERFORMED,Y,Y,,,,PLACEBO,mg,CAPSULE,QD,ORAL,63.0,,TREATMENT,2024-04-06,2024-04-06,63,63
GB001-2001,EC,GB001-2001-POL_SITE01-0014,64,PLACEBO,PERFORMED,Y,Y,,,,PLACEBO,mg,CAPSULE,QD,ORAL,64.0,,TREATMENT,2024-04-07,2024-04-07,64,64
GB001-2001,EC,GB001-2001-POL_SITE01-0014,65,PLACEBO,PERFORMED,Y,Y,,,,PLACEBO,mg,CAPSULE,QD,ORAL,65.0,,TREATMENT,2024-04-08,2024-04-08,65,65
GB001-2001,EC,GB001-2001-POL_SITE01-0014,66,PLACEBO,PERFORMED,Y,Y,,,,PLACEBO,mg,CAPSULE,QD,ORAL,66.0,,TREATMENT,2024-04-09,2024-04-09,66,66
GB001-2001,EC,GB001-2001-POL_SITE01-0014,67,PLACEBO,PERFORMED,Y,Y,,,,PLACEBO,mg,CAPSULE,QD,ORAL,67.0,,TREATMENT,2024-04-10,2024-04-10,67,67
GB001-2001,EC,GB001-2001-POL_SITE01-0014,68,PLACEBO,SCHEDULED,Y,,NOT DONE,SUBJECT NON-COMPLIANCE,,,mg,CAPSULE,QD,ORAL,68.0,,TREATMENT,2024-04-11,2024-04-11,68,68
GB001-2001,EC,GB001-2001-POL_SITE01-0014,69,PLACEBO,PERFORMED,Y,Y,,,,PLACEBO,mg,CAPSULE,QD,ORAL,69.0,,TREATMENT,2024-04-12,2024-04-12,69,69
GB001-2001,EC,GB001-2001-USA_SITE01-0007,1,GB001,PERFORMED,Y,Y,,,40.0,,mg,CAPSULE,QD,ORAL,3.0,RANDOMIZATION,RUN_IN,2024-02-04,2024-02-04,1,1
GB001-2001,EC,GB001-2001-USA_SITE01-0007,2,GB001,PERFORMED,Y,Y,,,40.0,,mg,CAPSULE,QD,ORAL,3.0,RANDOMIZATION,RUN_IN,2024-02-05,2024-02-05,2,2
GB001-2001,EC,GB001-2001-USA_SITE01-0007,3,GB001,PERFORMED,Y,Y,,,40.0,,mg,CAPSULE,QD,ORAL,3.0,RANDOMIZATION,RUN_IN,2024-02-06,2024-02-06,3,3
GB001-2001,EC,GB001-2001-USA_SITE01-0007,4,GB001,PERFORMED,Y,Y,,,40.0,,mg,CAPSULE,QD,ORAL,3.0,RANDOMIZATION,RUN_IN,2024-02-07,2024-02-07,4,4
GB001-2001,EC,GB001-2001-USA_SITE01-0007,5,GB001,PERFORMED,Y,Y,,,40.0,,mg,CAPSULE,QD,ORAL,5.0,,RUN_IN,2024-02-08,2024-02-08,5,5
GB001-2001,EC,GB001-2001-USA_SITE01-0007,6,GB001,PERFORMED,Y,Y,,,40.0,,mg,CAPSULE,QD,ORAL,6.0,,RUN_IN,2024-02-09,2024-02-09,6,6
GB001-2001,EC,GB001-2001-USA_SITE01-0007,7,GB001,PERFORMED,Y,Y,,,40.0,,mg,CAPSULE,QD,ORAL,7.0,,RUN_IN,2024-02-10,2024-02-10,7,7
GB001-2001,EC,GB001-2001-USA_SITE01-0007,8,GB001,PERFORMED,Y,Y,,,40.0,,mg,CAPSULE,QD,ORAL,8.0,,RUN_IN,2024-02-11,2024-02-11,8,8
GB001-2001,EC,GB001-2001-USA_SITE01-0007,9,GB001,PERFORMED,Y,Y,,,40.0,,mg,CAPSULE,QD,ORAL,9.0,,RUN_IN,2024-02-12,2024-02-12,9,9
GB001-2001,EC,GB001-2001-USA_SITE01-0007,10,GB001,SCHEDULED,Y,,NOT DONE,SUBJECT NON-COMPLIANCE,,,mg,CAPSULE,QD,ORAL,10.0,,RUN_IN,2024-02-13,2024-02-13,10,10
GB001-2001,EC,GB001-2001-USA_SITE01-0007,11,GB001,PERFORMED,Y,Y,,,40.0,,mg,CAPSULE,QD,ORAL,11.0,,RUN_IN,2024-02-14,2024-02-14,11,11
GB001-2001,EC,GB001-2001-USA_SITE01-0007,12,GB001,PERFORMED,Y,Y,,,40.0,,mg,CAPSULE,QD,ORAL,4.0,WEEK 2,RUN_IN,2024-02-15,2024-02-15,12,12
GB001-2001,EC,GB001-2001-USA_SITE01-0007,13,GB001,PERFORMED,Y,Y,,,40.0,,mg,CAPSULE,QD,ORAL,4.0,WEEK 2,RUN_IN,2024-02-16,2024-02-16,13,13
GB001-2001,EC,GB001-2001-USA_SITE01-0007,14,GB001,PERFORMED,Y,Y,,,40.0,,mg,CAPSULE,QD,ORAL,4.0,WEEK 2,RUN_IN,2024-02-17,2024-02-17,14,14
GB001-2001,EC,GB001-2001-USA_SITE01-0007,15,GB001,PERFORMED,Y,Y,,,40.0,,mg,CAPSULE,QD,ORAL,4.0,WEEK 2,RUN_IN,2024-02-18,2024-02-18,15,15
GB001-2001,EC,GB001-2001-USA_SITE01-0007,16,GB001,PERFORMED,Y,Y,,,40.0,,mg,CAPSULE,QD,ORAL,4.0,WEEK 2,RUN_IN,2024-02-19,2024-02-19,16,16
GB001-2001,EC,GB001-2001-USA_SITE01-0007,17,GB001,PERFORMED,Y,Y,,,40.0,,mg,CAPSULE,QD,ORAL,4.0,WEEK 2,RUN_IN,2024-02-20,2024-02-20,17,17
GB001-2001,EC,GB001-2001-USA_SITE01-0007,18,GB001,SCHEDULED,Y,,NOT DONE,SUBJECT NON-COMPLIANCE,,,mg,CAPSULE,QD,ORAL,4.0,WEEK 2,RUN_IN,2024-02-21,2024-02-21,18,18
GB001-2001,EC,GB001-2001-USA_SITE01-0007,19,GB001,PERFORMED,Y,Y,,,40.0,,mg,CAPSULE,QD,ORAL,19.0,,RUN_IN,2024-02-22,2024-02-22,19,19
GB001-2001,EC,GB001-2001-USA_SITE01-0007,20,GB001,PERFORMED,Y,Y,,,40.0,,mg,CAPSULE,QD,ORAL,20.0,,RUN_IN,2024-02-23,2024-02-23,20,20
GB001-2001,EC,GB001-2001-USA_SITE01-0007,21,GB001,PERFORMED,Y,Y,,,40.0,,mg,CAPSULE,QD,ORAL,21.0,,RUN_IN,2024-02-24,2024-02-24,21,21
GB001-2001,EC,GB001-2001-USA_SITE01-0007,22,GB001,PERFORMED,Y,Y,,,40.0,,mg,CAPSULE,QD,ORAL,22.0,,RUN_IN,2024-02-25,2024-02-25,22,22
GB001-2001,EC,GB001-2001-USA_SITE01-0007,23,GB001,PERFORMED,Y,Y,,,40.0,,mg,CAPSULE,QD,ORAL,23.0,,RUN_IN,2024-02-26,2024-02-26,23,23
GB001-2001,EC,GB001-2001-USA_SITE01-0007,24,GB001,PERFORMED,Y,Y,,,40.0,,mg,CAPSULE,QD,ORAL,24.0,,RUN_IN,2024-02-27,2024-02-27,24,24
GB001-2001,EC,GB001-2001-USA_SITE01-0007,25,GB001,PERFORMED,Y,Y,,,40.0,,mg,CAPSULE,QD,ORAL,25.0,,RUN_IN,2024-02-28,2024-02-28,25,25
GB001-2001,EC,GB001-2001-USA_SITE01-0007,26,GB001,PERFORMED,Y,Y,,,40.0,,mg,CAPSULE,QD,ORAL,5.0,WEEK 4,RUN_IN,2024-02-29,2024-02-29,26,26
GB001-2001,EC,GB001-2001-USA_SITE01-0007,27,GB001,PERFORMED,Y,Y,,,40.0,,mg,CAPSULE,QD,ORAL,5.0,WEEK 4,RUN_IN,2024-03-01,2024-03-01,27,27
GB001-2001,EC,GB001-2001-USA_SITE01-0007,28,GB001,PERFORMED,Y,Y,,,40.0,,mg,CAPSULE,QD,ORAL,5.0,WEEK 4,RUN_IN,2024-03-02,2024-03-02,28,28
GB001-2001,EC,GB001-2001-USA_SITE01-0007,29,GB001,PERFORMED,Y,Y,,,40.0,,mg,CAPSULE,QD,ORAL,5.0,WEEK 4,TREATMENT,2024-03-03,2024-03-03,29,29
GB001-2001,EC,GB001-2001-USA_SITE01-0009,1,GB001,PERFORMED,Y,Y,,,40.0,,mg,CAPSULE,QD,ORAL,3.0,RANDOMIZATION,RUN_IN,2024-03-24,2024-03-24,1,1
GB001-2001,EC,GB001-2001-USA_SITE01-0009,2,GB001,PERFORMED,Y,Y,,,40.0,,mg,CAPSULE,QD,ORAL,3.0,RANDOMIZATION,RUN_IN,2024-03-25,2024-03-25,2,2
GB001-2001,EC,GB001-2001-USA_SITE01-0009,3,GB001,PERFORMED,Y,Y,,,40.0,,mg,CAPSULE,QD,ORAL,3.0,RANDOMIZATION,RUN_IN,2024-03-26,2024-03-26,3,3
GB001-2001,EC,GB001-2001-USA_SITE01-0009,4,GB001,PERFORMED,Y,Y,,,40.0,,mg,CAPSULE,QD,ORAL,3.0,RANDOMIZATION,RUN_IN,2024-03-27,2024-03-27,4,4
GB001-2001,EC,GB001-2001-USA_SITE01-0009,5,GB001,SCHEDULED,Y,,NOT DONE,SUBJECT NON-COMPLIANCE,,,mg,CAPSULE,QD,ORAL,5.0,,RUN_IN,2024-03-28,2024-03-28,5,5
GB001-2001,EC,GB001-2001-USA_SITE01-0009,6,GB001,PERFORMED,Y,Y,,,40.0,,mg,CAPSULE,QD,ORAL,6.0,,RUN_IN,2024-03-29,2024-03-29,6,6
GB001-2001,EC,GB001-2001-USA_SITE01-0009,7,GB001,PERFORMED,Y,Y,,,40.0,,mg,CAPSULE,QD,ORAL,7.0,,RUN_IN,2024-03-30,2024-03-30,7,7
GB001-2001,EC,GB001-2001-USA_SITE01-0011,1,GB001,PERFORMED,Y,Y,,,60.0,,mg,CAPSULE,QD,ORAL,3.0,RANDOMIZATION,RUN_IN,2024-04-13,2024-04-13,1,1
GB001-2001,EC,GB001-2001-USA_SITE01-0011,2,GB001,PERFORMED,Y,Y,,,60.0,,mg,CAPSULE,QD,ORAL,3.0,RANDOMIZATION,RUN_IN,2024-04-14,2024-04-14,2,2
GB001-2001,EC,GB001-2001-USA_SITE01-0011,3,GB001,PERFORMED,Y,Y,,,60.0,,mg,CAPSULE,QD,ORAL,3.0,RANDOMIZATION,RUN_IN,2024-04-15,2024-04-15,3,3
GB001-2001,EC,GB001-2001-USA_SITE01-0011,4,GB001,PERFORMED,Y,Y,,,60.0,,mg,CAPSULE,QD,ORAL,3.0,RANDOMIZATION,RUN_IN,2024-04-16,2024-04-16,4,4
GB001-2001,EC,GB001-2001-USA_SITE01-0011,5,GB001,PERFORMED,Y,Y,,,60.0,,mg,CAPSULE,QD,ORAL,5.0,,RUN_IN,2024-04-17,2024-04-17,5,5
GB001-2001,EC,GB001-2001-USA_SITE01-0011,6,GB001,PERFORMED,Y,Y,,,60.0,,mg,CAPSULE,QD,ORAL,6.0,,RUN_IN,2024-04-18,2024-04-18,6,6
GB001-2001,EC,GB001-2001-USA_SITE01-0011,7,GB001,PERFORMED,Y,Y,,,60.0,,mg,CAPSULE,QD,ORAL,7.0,,RUN_IN,2024-04-19,2024-04-19,7,7
GB001-2001,EC,GB001-2001-USA_SITE01-0011,8,GB001,PERFORMED,Y,Y,,,60.0,,mg,CAPSULE,QD,ORAL,8.0,,RUN_IN,2024-04-20,2024-04-20,8,8
GB001-2001,EC,GB001-2001-USA_SITE01-0011,9,GB001,PERFORMED,Y,Y,,,60.0,,mg,CAPSULE,QD,ORAL,9.0,,RUN_IN,2024-04-21,2024-04-21,9,9
GB001-2001,EC,GB001-2001-USA_SITE01-0011,10,GB001,PERFORMED,Y,Y,,,60.0,,mg,CAPSULE,QD,ORAL,10.0,,RUN_IN,2024-04-22,2024-04-22,10,10
GB001-2001,EC,GB001-2001-USA_SITE01-0011,11,GB001,PERFORMED,Y,Y,,,60.0,,mg,CAPSULE,QD,ORAL,11.0,,RUN_IN,2024-04-23,2024-04-23,11,11
GB001-2001,EC,GB001-2001-USA_SITE01-0011,12,GB001,PERFORMED,Y,Y,,,60.0,,mg,CAPSULE,QD,ORAL,4.0,WEEK 2,RUN_IN,2024-04-24,2024-04-24,12,12
GB001-2001,EC,GB001-2001-USA_SITE01-0011,13,GB001,PERFORMED,Y,Y,,,60.0,,mg,CAPSULE,QD,ORAL,4.0,WEEK 2,RUN_IN,2024-04-25,2024-04-25,13,13
GB001-2001,EC,GB001-2001-USA_SITE01-0011,14,GB001,PERFORMED,Y,Y,,,60.0,,mg,CAPSULE,QD,ORAL,4.0,WEEK 2,RUN_IN,2024-04-26,2024-04-26,14,14
GB001-2001,EC,GB001-2001-USA_SITE01-0011,15,GB001,PERFORMED,Y,Y,,,60.0,,mg,CAPSULE,QD,ORAL,4.0,WEEK 2,RUN_IN,2024-04-27,2024-04-27,15,15
GB001-2001,EC,GB001-2001-USA_SITE01-0011,16,GB001,PERFORMED,Y,Y,,,60.0,,mg,CAPSULE,QD,ORAL,4.0,WEEK 2,RUN_IN,2024-04-28,2024-04-28,16,16
GB001-2001,EC,GB001-2001-USA_SITE01-0011,17,GB001,PERFORMED,Y,Y,,,60.0,,mg,CAPSULE,QD,ORAL,4.0,WEEK 2,RUN_IN,2024-04-29,2024-04-29,17,17
GB001-2001,EC,GB001-2001-USA_SITE01-0011,18,GB001,PERFORMED,Y,Y,,,60.0,,mg,CAPSULE,QD,ORAL,4.0,WEEK 2,RUN_IN,2024-04-30,2024-04-30,18,18
GB001-2001,EC,GB001-2001-USA_SITE01-0011,19,GB001,PERFORMED,Y,Y,,,60.0,,mg,CAPSULE,QD,ORAL,19.0,,RUN_IN,2024-05-01,2024-05-01,19,19
GB001-2001,EC,GB001-2001-USA_SITE01-0011,20,GB001,PERFORMED,Y,Y,,,60.0,,mg,CAPSULE,QD,ORAL,20.0,,RUN_IN,2024-05-02,2024-05-02,20,20
GB001-2001,EC,GB001-2001-USA_SITE01-0011,21,GB001,PERFORMED,Y,Y,,,60.0,,mg,CAPSULE,QD,ORAL,21.0,,RUN_IN,2024-05-03,2024-05-03,21,21
GB001-2001,EC,GB001-2001-USA_SITE01-0011,22,GB001,PERFORMED,Y,Y,,,60.0,,mg,CAPSULE,QD,ORAL,22.0,,RUN_IN,2024-05-04,2024-05-04,22,22
GB001-2001,EC,GB001-2001-USA_SITE01-0011,23,GB001,PERFORMED,Y,Y,,,60.0,,mg,CAPSULE,QD,ORAL,23.0,,RUN_IN,2024-05-05,2024-05-05,23,23
GB001-2001,EC,GB001-2001-USA_SITE01-0011,24,GB001,PERFORMED,Y,Y,,,60.0,,mg,CAPSULE,QD,ORAL,24.0,,RUN_IN,2024-05-06,2024-05-06,24,24
GB001-2001,EC,GB001-2001-USA_SITE01-0011,25,GB001,PERFORMED,Y,Y,,,60.0,,mg,CAPSULE,QD,ORAL,25.0,,RUN_IN,2024-05-07,2024-05-07,25,25
GB001-2001,EC,GB001-2001-USA_SITE01-0011,26,GB001,PERFORMED,Y,Y,,,60.0,,mg,CAPSULE,QD,ORAL,5.0,WEEK 4,RUN_IN,2024-05-08,2024-05-08,26,26
GB001-2001,EC,GB001-2001-USA_SITE01-0011,27,GB001,PERFORMED,Y,Y,,,60.0,,mg,CAPSULE,QD,ORAL,5.0,WEEK 4,RUN_IN,2024-05-09,2024-05-09,27,27
GB001-2001,EC,GB001-2001-USA_SITE01-0011,28,GB001,PERFORMED,Y,Y,,,60.0,,mg,CAPSULE,QD,ORAL,5.0,WEEK 4,RUN_IN,2024-05-10,2024-05-10,28,28
GB001-2001,EC,GB001-2001-USA_SITE01-0011,29,GB001,PERFORMED,Y,Y,,,60.0,,mg,CAPSULE,QD,ORAL,5.0,WEEK 4,TREATMENT,2024-05-11,2024-05-11,29,29
GB001-2001,EC,GB001-2001-USA_SITE01-0011,30,GB001,PERFORMED,Y,Y,,,60.0,,mg,CAPSULE,QD,ORAL,5.0,WEEK 4,TREATMENT,2024-05-12,2024-05-12,30,30
GB001-2001,EC,GB001-2001-USA_SITE01-0011,31,GB001,PERFORMED,Y,Y,,,60.0,,mg,CAPSULE,QD,ORAL,5.0,WEEK 4,TREATMENT,2024-05-13,2024-05-13,31,31
GB001-2001,EC,GB001-2001-USA_SITE01-0011,32,GB001,PERFORMED,Y,Y,,,60.0,,mg,CAPSULE,QD,ORAL,5.0,WEEK 4,TREATMENT,2024-05-14,2024-05-14,32,32
GB001-2001,EC,GB001-2001-USA_SITE01-0011,33,GB001,PERFORMED,Y,Y,,,60.0,,mg,CAPSULE,QD,ORAL,33.0,,TREATMENT,2024-05-15,2024-05-15,33,33
GB001-2001,EC,GB001-2001-USA_SITE01-0011,34,GB001,PERFORMED,Y,Y,,,60.0,,mg,CAPSULE,QD,ORAL,34.0,,TREATMENT,2024-05-16,2024-05-16,34,34
GB001-2001,EC,GB001-2001-USA_SITE01-0011,35,GB001,PERFORMED,Y,Y,,,60.0,,mg,CAPSULE,QD,ORAL,35.0,,TREATMENT,2024-05-17,2024-05-17,35,35
GB001-2001,EC,GB001-2001-USA_SITE01-0011,36,GB001,PERFORMED,Y,Y,,,60.0,,mg,CAPSULE,QD,ORAL,36.0,,TREATMENT,2024-05-18,2024-05-18,36,36
GB001-2001,EC,GB001-2001-USA_SITE01-0011,37,GB001,PERFORMED,Y,Y,,,60.0,,mg,CAPSULE,QD,ORAL,37.0,,TREATMENT,2024-05-19,2024-05-19,37,37
GB001-2001,EC,GB001-2001-USA_SITE01-0011,38,GB001,PERFORMED,Y,Y,,,60.0,,mg,CAPSULE,QD,ORAL,38.0,,TREATMENT,2024-05-20,2024-05-20,38,38
GB001-2001,EC,GB001-2001-USA_SITE01-0011,39,GB001,PERFORMED,Y,Y,,,60.0,,mg,CAPSULE,QD,ORAL,39.0,,TREATMENT,2024-05-21,2024-05-21,39,39
GB001-2001,EC,GB001-2001-USA_SITE01-0011,40,GB001,PERFORMED,Y,Y,,,60.0,,mg,CAPSULE,QD,ORAL,40.0,,TREATMENT,2024-05-22,2024-05-22,40,40
GB001-2001,EC,GB001-2001-USA_SITE01-0011,41,GB001,PERFORMED,Y,Y,,,60.0,,mg,CAPSULE,QD,ORAL,41.0,,TREATMENT,2024-05-23,2024-05-23,41,41
GB001-2001,EC,GB001-2001-USA_SITE01-0011,42,GB001,PERFORMED,Y,Y,,,60.0,,mg,CAPSULE,QD,ORAL,42.0,,TREATMENT,2024-05-24,2024-05-24,42,42
GB001-2001,EC,GB001-2001-USA_SITE01-0011,43,GB001,PERFORMED,Y,Y,,,60.0,,mg,CAPSULE,QD,ORAL,43.0,,TREATMENT,2024-05-25,2024-05-25,43,43
GB001-2001,EC,GB001-2001-USA_SITE01-0011,44,GB001,PERFORMED,Y,Y,,,60.0,,mg,CAPSULE,QD,ORAL,44.0,,TREATMENT,2024-05-26,2024-05-26,44,44
GB001-2001,EC,GB001-2001-USA_SITE01-0011,45,GB001,PERFORMED,Y,Y,,,60.0,,mg,CAPSULE,QD,ORAL,45.0,,TREATMENT,2024-05-27,2024-05-27,45,45
GB001-2001,EC,GB001-2001-USA_SITE01-0011,46,GB001,PERFORMED,Y,Y,,,60.0,,mg,CAPSULE,QD,ORAL,46.0,,TREATMENT,2024-05-28,2024-05-28,46,46
GB001-2001,EC,GB001-2001-USA_SITE01-0011,47,GB001,PERFORMED,Y,Y,,,60.0,,mg,CAPSULE,QD,ORAL,47.0,,TREATMENT,2024-05-29,2024-05-29,47,47
GB001-2001,EC,GB001-2001-USA_SITE01-0011,48,GB001,PERFORMED,Y,Y,,,60.0,,mg,CAPSULE,QD,ORAL,48.0,,TREATMENT,2024-05-30,2024-05-30,48,48
GB001-2001,EC,GB001-2001-USA_SITE01-0011,49,GB001,PERFORMED,Y,Y,,,60.0,,mg,CAPSULE,QD,ORAL,49.0,,TREATMENT,2024-05-31,2024-05-31,49,49
GB001-2001,EC,GB001-2001-USA_SITE01-0011,50,GB001,PERFORMED,Y,Y,,,60.0,,mg,CAPSULE,QD,ORAL,50.0,,TREATMENT,2024-06-01,2024-06-01,50,50
GB001-2001,EC,GB001-2001-USA_SITE01-0011,51,GB001,PERFORMED,Y,Y,,,60.0,,mg,CAPSULE,QD,ORAL,51.0,,TREATMENT,2024-06-02,2024-06-02,51,51
GB001-2001,EC,GB001-2001-USA_SITE01-0011,52,GB001,PERFORMED,Y,Y,,,60.0,,mg,CAPSULE,QD,ORAL,52.0,,TREATMENT,2024-06-03,2024-06-03,52,52
GB001-2001,EC,GB001-2001-USA_SITE01-0011,53,GB001,PERFORMED,Y,Y,,,60.0,,mg,CAPSULE,QD,ORAL,53.0,,TREATMENT,2024-06-04,2024-06-04,53,53
GB001-2001,EC,GB001-2001-USA_SITE01-0011,54,GB001,PERFORMED,Y,Y,,,60.0,,mg,CAPSULE,QD,ORAL,6.0,WEEK 8,TREATMENT,2024-06-05,2024-06-05,54,54
GB001-2001,EC,GB001-2001-USA_SITE01-0011,55,GB001,PERFORMED,Y,Y,,,60.0,,mg,CAPSULE,QD,ORAL,6.0,WEEK 8,TREATMENT,2024-06-06,2024-06-06,55,55
GB001-2001,EC,GB001-2001-USA_SITE01-0011,56,GB001,PERFORMED,Y,Y,,,60.0,,mg,CAPSULE,QD,ORAL,6.0,WEEK 8,TREATMENT,2024-06-07,2024-06-07,56,56
GB001-2001,EC,GB001-2001-USA_SITE01-0011,57,GB001,PERFORMED,Y,Y,,,60.0,,mg,CAPSULE,QD,ORAL,6.0,WEEK 8,TREATMENT,2024-06-08,2024-06-08,57,57
GB001-2001,EC,GB001-2001-USA_SITE01-0011,58,GB001,PERFORMED,Y,Y,,,60.0,,mg,CAPSULE,QD,ORAL,6.0,WEEK 8,TREATMENT,2024-06-09,2024-06-09,58,58
GB001-2001,EC,GB001-2001-USA_SITE01-0011,59,GB001,PERFORMED,Y,Y,,,60.0,,mg,CAPSULE,QD,ORAL,6.0,WEEK 8,TREATMENT,2024-06-10,2024-06-10,59,59
GB001-2001,EC,GB001-2001-USA_SITE01-0011,60,GB001,PERFORMED,Y,Y,,,60.0,,mg,CAPSULE,QD,ORAL,6.0,WEEK 8,TREATMENT,2024-06-11,2024-06-11,60,60
GB001-2001,EC,GB001-2001-USA_SITE01-0011,61,GB001,PERFORMED,Y,Y,,,60.0,,mg,CAPSULE,QD,ORAL,61.0,,TREATMENT,2024-06-12,2024-06-12,61,61
GB001-2001,EC,GB001-2001-USA_SITE01-0011,62,GB001,PERFORMED,Y,Y,,,60.0,,mg,CAPSULE,QD,ORAL,62.0,,TREATMENT,2024-06-13,2024-06-13,62,62
GB001-2001,EC,GB001-2001-USA_SITE01-0011,63,GB001,PERFORMED,Y,Y,,,60.0,,mg,CAPSULE,QD,ORAL,63.0,,TREATMENT,2024-06-14,2024-06-14,63,63
GB001-2001,EC,GB001-2001-USA_SITE01-0011,64,GB001,PERFORMED,Y,Y,,,60.0,,mg,CAPSULE,QD,ORAL,64.0,,TREATMENT,2024-06-15,2024-06-15,64,64
GB001-2001,EC,GB001-2001-USA_SITE01-0011,65,GB001,PERFORMED,Y,Y,,,60.0,,mg,CAPSULE,QD,ORAL,65.0,,TREATMENT,2024-06-16,2024-06-16,65,65
GB001-2001,EC,GB001-2001-USA_SITE01-0011,66,GB001,PERFORMED,Y,Y,,,60.0,,mg,CAPSULE,QD,ORAL,66.0,,TREATMENT,2024-06-17,2024-06-17,66,66
GB001-2001,EC,GB001-2001-USA_SITE01-0011,67,GB001,PERFORMED,Y,Y,,,60.0,,mg,CAPSULE,QD,ORAL,67.0,,TREATMENT,2024-06-18,2024-06-18,67,67
GB001-2001,EC,GB001-2001-USA_SITE01-0011,68,GB001,PERFORMED,Y,Y,,,60.0,,mg,CAPSULE,QD,ORAL,68.0,,TREATMENT,2024-06-19,2024-06-19,68,68
GB001-2001,EC,GB001-2001-USA_SITE01-0011,69,GB001,PERFORMED,Y,Y,,,60.0,,mg,CAPSULE,QD,ORAL,69.0,,TREATMENT,2024-06-20,2024-06-20,69,69
GB001-2001,EC,GB001-2001-USA_SITE01-0011,70,GB001,PERFORMED,Y,Y,,,60.0,,mg,CAPSULE,QD,ORAL,70.0,,TREATMENT,2024-06-21,2024-06-21,70,70
GB001-2001,EC,GB001-2001-USA_SITE01-0011,71,GB001,PERFORMED,Y,Y,,,60.0,,mg,CAPSULE,QD,ORAL,71.0,,TREATMENT,2024-06-22,2024-06-22,71,71
GB001-2001,EC,GB001-2001-USA_SITE01-0011,72,GB001,PERFORMED,Y,Y,,,60.0,,mg,CAPSULE,QD,ORAL,72.0,,TREATMENT,2024-06-23,2024-06-23,72,72
GB001-2001,EC,GB001-2001-USA_SITE01-0011,73,GB001,PERFORMED,Y,Y,,,60.0,,mg,CAPSULE,QD,ORAL,73.0,,TREATMENT,2024-06-24,2024-06-24,73,73
GB001-2001,EC,GB001-2001-USA_SITE01-0011,74,GB001,PERFORMED,Y,Y,,,60.0,,mg,CAPSULE,QD,ORAL,74.0,,TREATMENT,2024-06-25,2024-06-25,74,74
GB001-2001,EC,GB001-2001-USA_SITE01-0011,75,GB001,PERFORMED,Y,Y,,,60.0,,mg,CAPSULE,QD,ORAL,75.0,,TREATMENT,2024-06-26,2024-06-26,75,75
GB001-2001,EC,GB001-2001-USA_SITE01-0011,76,GB001,PERFORMED,Y,Y,,,60.0,,mg,CAPSULE,QD,ORAL,76.0,,TREATMENT,2024-06-27,2024-06-27,76,76
GB001-2001,EC,GB001-2001-USA_SITE01-0011,77,GB001,PERFORMED,Y,Y,,,60.0,,mg,CAPSULE,QD,ORAL,77.0,,TREATMENT,2024-06-28,2024-06-28,77,77
GB001-2001,EC,GB001-2001-USA_SITE01-0011,78,GB001,PERFORMED,Y,Y,,,60.0,,mg,CAPSULE,QD,ORAL,78.0,,TREATMENT,2024-06-29,2024-06-29,78,78
GB001-2001,EC,GB001-2001-USA_SITE01-0011,79,GB001,PERFORMED,Y,Y,,,60.0,,mg,CAPSULE,QD,ORAL,79.0,,TREATMENT,2024-06-30,2024-06-30,79,79
GB001-2001,EC,GB001-2001-USA_SITE01-0011,80,GB001,PERFORMED,Y,Y,,,60.0,,mg,CAPSULE,QD,ORAL,80.0,,TREATMENT,2024-07-01,2024-07-01,80,80
GB001-2001,EC,GB001-2001-USA_SITE01-0011,81,GB001,PERFORMED,Y,Y,,,60.0,,mg,CAPSULE,QD,ORAL,81.0,,TREATMENT,2024-07-02,2024-07-02,81,81
GB001-2001,EC,GB001-2001-USA_SITE01-0011,82,GB001,PERFORMED,Y,Y,,,60.0,,mg,CAPSULE,QD,ORAL,7.0,WEEK 12,TREATMENT,2024-07-03,2024-07-03,82,82
GB001-2001,EC,GB001-2001-USA_SITE01-0011,83,GB001,PERFORMED,Y,Y,,,60.0,,mg,CAPSULE,QD,ORAL,7.0,WEEK 12,TREATMENT,2024-07-04,2024-07-04,83,83
GB001-2001,EC,GB001-2001-USA_SITE01-0011,84,GB001,PERFORMED,Y,Y,,,60.0,,mg,CAPSULE,QD,ORAL,7.0,WEEK 12,TREATMENT,2024-07-05,2024-07-05,84,84
GB001-2001,EC,GB001-2001-USA_SITE01-0011,85,GB001,PERFORMED,Y,Y,,,60.0,,mg,CAPSULE,QD,ORAL,7.0,WEEK 12,TREATMENT,2024-07-06,2024-07-06,85,85
GB001-2001,EC,GB001-2001-USA_SITE01-0011,86,GB001,PERFORMED,Y,Y,,,60.0,,mg,CAPSULE,QD,ORAL,7.0,WEEK 12,TREATMENT,2024-07-07,2024-07-07,86,86
GB001-2001,EC,GB001-2001-USA_SITE01-0011,87,GB001,PERFORMED,Y,Y,,,60.0,,mg,CAPSULE,QD,ORAL,7.0,WEEK 12,TREATMENT,2024-07-08,2024-07-08,87,87
GB001-2001,EC,GB001-2001-USA_SITE01-0011,88,GB001,PERFORMED,Y,Y,,,60.0,,mg,CAPSULE,QD,ORAL,7.0,WEEK 12,TREATMENT,2024-07-09,2024-07-09,88,88
GB001-2001,EC,GB001-2001-USA_SITE01-0011,89,GB001,PERFORMED,Y,Y,,,60.0,,mg,CAPSULE,QD,ORAL,89.0,,TREATMENT,2024-07-10,2024-07-10,89,89
GB001-2001,EC,GB001-2001-USA_SITE01-0011,90,GB001,PERFORMED,Y,Y,,,60.0,,mg,CAPSULE,QD,ORAL,90.0,,TREATMENT,2024-07-11,2024-07-11,90,90
GB001-2001,EC,GB001-2001-USA_SITE01-0011,91,GB001,PERFORMED,Y,Y,,,60.0,,mg,CAPSULE,QD,ORAL,91.0,,TREATMENT,2024-07-12,2024-07-12,91,91
GB001-2001,EC,GB001-2001-USA_SITE01-0011,92,GB001,PERFORMED,Y,Y,,,60.0,,mg,CAPSULE,QD,ORAL,92.0,,TREATMENT,2024-07-13,2024-07-13,92,92
GB001-2001,EC,GB001-2001-USA_SITE01-0011,93,GB001,PERFORMED,Y,Y,,,60.0,,mg,CAPSULE,QD,ORAL,93.0,,TREATMENT,2024-07-14,2024-07-14,93,93
GB001-2001,EC,GB001-2001-USA_SITE01-0011,94,GB001,PERFORMED,Y,Y,,,60.0,,mg,CAPSULE,QD,ORAL,94.0,,TREATMENT,2024-07-15,2024-07-15,94,94
GB001-2001,EC,GB001-2001-USA_SITE01-0011,95,GB001,PERFORMED,Y,Y,,,60.0,,mg,CAPSULE,QD,ORAL,95.0,,TREATMENT,2024-07-16,2024-07-16,95,95
GB001-2001,EC,GB001-2001-USA_SITE01-0011,96,GB001,PERFORMED,Y,Y,,,60.0,,mg,CAPSULE,QD,ORAL,96.0,,TREATMENT,2024-07-17,2024-07-17,96,96
GB001-2001,EC,GB001-2001-USA_SITE01-0011,97,GB001,PERFORMED,Y,Y,,,60.0,,mg,CAPSULE,QD,ORAL,97.0,,TREATMENT,2024-07-18,2024-07-18,97,97
GB001-2001,EC,GB001-2001-USA_SITE01-0011,98,GB001,PERFORMED,Y,Y,,,60.0,,mg,CAPSULE,QD,ORAL,98.0,,TREATMENT,2024-07-19,2024-07-19,98,98
GB001-2001,EC,GB001-2001-USA_SITE01-0011,99,GB001,PERFORMED,Y,Y,,,60.0,,mg,CAPSULE,QD,ORAL,99.0,,TREATMENT,2024-07-20,2024-07-20,99,99
GB001-2001,EC,GB001-2001-USA_SITE01-0011,100,GB001,PERFORMED,Y,Y,,,60.0,,mg,CAPSULE,QD,ORAL,100.0,,TREATMENT,2024-07-21,2024-07-21,100,100
GB001-2001,EC,GB001-2001-USA_SITE01-0011,101,GB001,PERFORMED,Y,Y,,,60.0,,mg,CAPSULE,QD,ORAL,101.0,,TREATMENT,2024-07-22,2024-07-22,101,101
GB001-2001,EC,GB001-2001-USA_SITE01-0011,102,GB001,PERFORMED,Y,Y,,,60.0,,mg,CAPSULE,QD,ORAL,102.0,,TREATMENT,2024-07-23,2024-07-23,102,102
GB001-2001,EC,GB001-2001-USA_SITE01-0011,103,GB001,PERFORMED,Y,Y,,,60.0,,mg,CAPSULE,QD,ORAL,103.0,,TREATMENT,2024-07-24,2024-07-24,103,103
GB001-2001,EC,GB001-2001-USA_SITE01-0011,104,GB001,PERFORMED,Y,Y,,,60.0,,mg,CAPSULE,QD,ORAL,104.0,,TREATMENT,2024-07-25,2024-07-25,104,104
GB001-2001,EC,GB001-2001-USA_SITE01-0011,105,GB001,PERFORMED,Y,Y,,,60.0,,mg,CAPSULE,QD,ORAL,105.0,,TREATMENT,2024-07-26,2024-07-26,105,105
GB001-2001,EC,GB001-2001-USA_SITE01-0011,106,GB001,PERFORMED,Y,Y,,,60.0,,mg,CAPSULE,QD,ORAL,106.0,,TREATMENT,2024-07-27,2024-07-27,106,106
GB001-2001,EC,GB001-2001-USA_SITE01-0011,107,GB001,PERFORMED,Y,Y,,,60.0,,mg,CAPSULE,QD,ORAL,107.0,,TREATMENT,2024-07-28,2024-07-28,107,107
GB001-2001,EC,GB001-2001-USA_SITE01-0011,108,GB001,PERFORMED,Y,Y,,,60.0,,mg,CAPSULE,QD,ORAL,108.0,,TREATMENT,2024-07-29,2024-07-29,108,108
GB001-2001,EC,GB001-2001-USA_SITE01-0011,109,GB001,PERFORMED,Y,Y,,,60.0,,mg,CAPSULE,QD,ORAL,109.0,,TREATMENT,2024-07-30,2024-07-30,109,109
GB001-2001,EC,GB001-2001-USA_SITE01-0011,110,GB001,PERFORMED,Y,Y,,,60.0,,mg,CAPSULE,QD,ORAL,8.0,WEEK 16,TREATMENT,2024-07-31,2024-07-31,110,110
GB001-2001,EC,GB001-2001-USA_SITE01-0011,111,GB001,PERFORMED,Y,Y,,,60.0,,mg,CAPSULE,QD,ORAL,8.0,WEEK 16,TREATMENT,2024-08-01,2024-08-01,111,111
GB001-2001,EC,GB001-2001-USA_SITE01-0011,112,GB001,PERFORMED,Y,Y,,,60.0,,mg,CAPSULE,QD,ORAL,8.0,WEEK 16,TREATMENT,2024-08-02,2024-08-02,112,112
GB001-2001,EC,GB001-2001-USA_SITE01-0011,113,GB001,PERFORMED,Y,Y,,,60.0,,mg,CAPSULE,QD,ORAL,8.0,WEEK 16,TREATMENT,2024-08-03,2024-08-03,113,113
GB001-2001,EC,GB001-2001-USA_SITE01-0011,114,GB001,PERFORMED,Y,Y,,,60.0,,mg,CAPSULE,QD,ORAL,8.0,WEEK 16,TREATMENT,2024-08-04,2024-08-04,114,114
GB001-2001,EC,GB001-2001-USA_SITE01-0011,115,GB001,PERFORMED,Y,Y,,,60.0,,mg,CAPSULE,QD,ORAL,8.0,WEEK 16,TREATMENT,2024-08-05,2024-08-05,115,115
GB001-2001,EC,GB001-2001-USA_SITE01-0011,116,GB001,PERFORMED,Y,Y,,,60.0,,mg,CAPSULE,QD,ORAL,8.0,WEEK 16,TREATMENT,2024-08-06,2024-08-06,116,116
GB001-2001,EC,GB001-2001-USA_SITE01-0011,117,GB001,PERFORMED,Y,Y,,,60.0,,mg,CAPSULE,QD,ORAL,117.0,,TREATMENT,2024-08-07,2024-08-07,117,117
GB001-2001,EC,GB001-2001-USA_SITE01-0011,118,GB001,PERFORMED,Y,Y,,,60.0,,mg,CAPSULE,QD,ORAL,118.0,,TREATMENT,2024-08-08,2024-08-08,118,118
GB001-2001,EC,GB001-2001-USA_SITE01-0011,119,GB001,PERFORMED,Y,Y,,,60.0,,mg,CAPSULE,QD,ORAL,119.0,,TREATMENT,2024-08-09,2024-08-09,119,119
GB001-2001,EC,GB001-2001-USA_SITE01-0011,120,GB001,PERFORMED,Y,Y,,,60.0,,mg,CAPSULE,QD,ORAL,120.0,,TREATMENT,2024-08-10,2024-08-10,120,120
GB001-2001,EC,GB001-2001-USA_SITE01-0011,121,GB001,PERFORMED,Y,Y,,,60.0,,mg,CAPSULE,QD,ORAL,121.0,,TREATMENT,2024-08-11,2024-08-11,121,121
GB001-2001,EC,GB001-2001-USA_SITE01-0011,122,GB001,PERFORMED,Y,Y,,,60.0,,mg,CAPSULE,QD,ORAL,122.0,,TREATMENT,2024-08-12,2024-08-12,122,122
GB001-2001,EC,GB001-2001-USA_SITE01-0011,123,GB001,PERFORMED,Y,Y,,,60.0,,mg,CAPSULE,QD,ORAL,123.0,,TREATMENT,2024-08-13,2024-08-13,123,123
GB001-2001,EC,GB001-2001-USA_SITE01-0011,124,GB001,PERFORMED,Y,Y,,,60.0,,mg,CAPSULE,QD,ORAL,124.0,,TREATMENT,2024-08-14,2024-08-14,124,124
GB001-2001,EC,GB001-2001-USA_SITE01-0011,125,GB001,PERFORMED,Y,Y,,,60.0,,mg,CAPSULE,QD,ORAL,125.0,,TREATMENT,2024-08-15,2024-08-15,125,125
GB001-2001,EC,GB001-2001-USA_SITE01-0011,126,GB001,PERFORMED,Y,Y,,,60.0,,mg,CAPSULE,QD,ORAL,126.0,,TREATMENT,2024-08-16,2024-08-16,126,126
GB001-2001,EC,GB001-2001-USA_SITE01-0011,127,GB001,PERFORMED,Y,Y,,,60.0,,mg,CAPSULE,QD,ORAL,127.0,,TREATMENT,2024-08-17,2024-08-17,127,127
GB001-2001,EC,GB001-2001-USA_SITE01-0011,128,GB001,PERFORMED,Y,Y,,,60.0,,mg,CAPSULE,QD,ORAL,128.0,,TREATMENT,2024-08-18,2024-08-18,128,128
GB001-2001,EC,GB001-2001-USA_SITE01-0011,129,GB001,PERFORMED,Y,Y,,,60.0,,mg,CAPSULE,QD,ORAL,129.0,,TREATMENT,2024-08-19,2024-08-19,129,129
GB001-2001,EC,GB001-2001-USA_SITE01-0011,130,GB001,PERFORMED,Y,Y,,,60.0,,mg,CAPSULE,QD,ORAL,130.0,,TREATMENT,2024-08-20,2024-08-20,130,130
GB001-2001,EC,GB001-2001-USA_SITE01-0011,131,GB001,PERFORMED,Y,Y,,,60.0,,mg,CAPSULE,QD,ORAL,131.0,,TREATMENT,2024-08-21,2024-08-21,131,131
GB001-2001,EC,GB001-2001-USA_SITE01-0011,132,GB001,PERFORMED,Y,Y,,,60.0,,mg,CAPSULE,QD,ORAL,132.0,,TREATMENT,2024-08-22,2024-08-22,132,132
GB001-2001,EC,GB001-2001-USA_SITE01-0011,133,GB001,PERFORMED,Y,Y,,,60.0,,mg,CAPSULE,QD,ORAL,133.0,,TREATMENT,2024-08-23,2024-08-23,133,133
GB001-2001,EC,GB001-2001-USA_SITE01-0011,134,GB001,PERFORMED,Y,Y,,,60.0,,mg,CAPSULE,QD,ORAL,134.0,,TREATMENT,2024-08-24,2024-08-24,134,134
GB001-2001,EC,GB001-2001-USA_SITE01-0011,135,GB001,PERFORMED,Y,Y,,,60.0,,mg,CAPSULE,QD,ORAL,135.0,,TREATMENT,2024-08-25,2024-08-25,135,135
GB001-2001,EC,GB001-2001-USA_SITE01-0011,136,GB001,PERFORMED,Y,Y,,,60.0,,mg,CAPSULE,QD,ORAL,136.0,,TREATMENT,2024-08-26,2024-08-26,136,136
GB001-2001,EC,GB001-2001-USA_SITE01-0011,137,GB001,PERFORMED,Y,Y,,,60.0,,mg,CAPSULE,QD,ORAL,137.0,,TREATMENT,2024-08-27,2024-08-27,137,137
GB001-2001,EC,GB001-2001-USA_SITE01-0011,138,GB001,PERFORMED,Y,Y,,,60.0,,mg,CAPSULE,QD,ORAL,9.0,WEEK 20,TREATMENT,2024-08-28,2024-08-28,138,138
GB001-2001,EC,GB001-2001-USA_SITE01-0011,139,GB001,PERFORMED,Y,Y,,,60.0,,mg,CAPSULE,QD,ORAL,9.0,WEEK 20,TREATMENT,2024-08-29,2024-08-29,139,139
GB001-2001,EC,GB001-2001-USA_SITE01-0011,140,GB001,PERFORMED,Y,Y,,,60.0,,mg,CAPSULE,QD,ORAL,9.0,WEEK 20,TREATMENT,2024-08-30,2024-08-30,140,140
GB001-2001,EC,GB001-2001-USA_SITE01-0011,141,GB001,PERFORMED,Y,Y,,,60.0,,mg,CAPSULE,QD,ORAL,9.0,WEEK 20,TREATMENT,2024-08-31,2024-08-31,141,141
GB001-2001,EC,GB001-2001-USA_SITE01-0011,142,GB001,PERFORMED,Y,Y,,,60.0,,mg,CAPSULE,QD,ORAL,9.0,WEEK 20,TREATMENT,2024-09-01,2024-09-01,142,142
GB001-2001,EC,GB001-2001-USA_SITE01-0011,143,GB001,PERFORMED,Y,Y,,,60.0,,mg,CAPSULE,QD,ORAL,9.0,WEEK 20,TREATMENT,2024-09-02,2024-09-02,143,143
GB001-2001,EC,GB001-2001-USA_SITE01-0011,144,GB001,PERFORMED,Y,Y,,,60.0,,mg,CAPSULE,QD,ORAL,9.0,WEEK 20,TREATMENT,2024-09-03,2024-09-03,144,144
GB001-2001,EC,GB001-2001-USA_SITE01-0011,145,GB001,PERFORMED,Y,Y,,,60.0,,mg,CAPSULE,QD,ORAL,145.0,,TREATMENT,2024-09-04,2024-09-04,145,145
GB001-2001,EC,GB001-2001-USA_SITE01-0011,146,GB001,PERFORMED,Y,Y,,,60.0,,mg,CAPSULE,QD,ORAL,146.0,,TREATMENT,2024-09-05,2024-09-05,146,146
GB001-2001,EC,GB001-2001-USA_SITE01-0011,147,GB001,PERFORMED,Y,Y,,,60.0,,mg,CAPSULE,QD,ORAL,147.0,,TREATMENT,2024-09-06,2024-09-06,147,147
GB001-2001,EC,GB001-2001-USA_SITE01-0011,148,GB001,PERFORMED,Y,Y,,,60.0,,mg,CAPSULE,QD,ORAL,148.0,,TREATMENT,2024-09-07,2024-09-07,148,148
GB001-2001,EC,GB001-2001-USA_SITE01-0011,149,GB001,PERFORMED,Y,Y,,,60.0,,mg,CAPSULE,QD,ORAL,149.0,,TREATMENT,2024-09-08,2024-09-08,149,149
GB001-2001,EC,GB001-2001-USA_SITE01-0011,150,GB001,PERFORMED,Y,Y,,,60.0,,mg,CAPSULE,QD,ORAL,150.0,,TREATMENT,2024-09-09,2024-09-09,150,150
GB001-2001,EC,GB001-2001-USA_SITE01-0011,151,GB001,PERFORMED,Y,Y,,,60.0,,mg,CAPSULE,QD,ORAL,151.0,,TREATMENT,2024-09-10,2024-09-10,151,151
GB001-2001,EC,GB001-2001-USA_SITE01-0011,152,GB001,PERFORMED,Y,Y,,,60.0,,mg,CAPSULE,QD,ORAL,152.0,,TREATMENT,2024-09-11,2024-09-11,152,152
GB001-2001,EC,GB001-2001-USA_SITE01-0011,153,GB001,PERFORMED,Y,Y,,,60.0,,mg,CAPSULE,QD,ORAL,153.0,,TREATMENT,2024-09-12,2024-09-12,153,153
GB001-2001,EC,GB001-2001-USA_SITE01-0011,154,GB001,PERFORMED,Y,Y,,,60.0,,mg,CAPSULE,QD,ORAL,154.0,,TREATMENT,2024-09-13,2024-09-13,154,154
GB001-2001,EC,GB001-2001-USA_SITE01-0011,155,GB001,PERFORMED,Y,Y,,,60.0,,mg,CAPSULE,QD,ORAL,155.0,,TREATMENT,2024-09-14,2024-09-14,155,155
GB001-2001,EC,GB001-2001-USA_SITE01-0011,156,GB001,PERFORMED,Y,Y,,,60.0,,mg,CAPSULE,QD,ORAL,156.0,,TREATMENT,2024-09-15,2024-09-15,156,156
GB001-2001,EC,GB001-2001-USA_SITE01-0011,157,GB001,PERFORMED,Y,Y,,,60.0,,mg,CAPSULE,QD,ORAL,157.0,,TREATMENT,2024-09-16,2024-09-16,157,157
GB001-2001,EC,GB001-2001-USA_SITE01-0011,158,GB001,PERFORMED,Y,Y,,,60.0,,mg,CAPSULE,QD,ORAL,158.0,,TREATMENT,2024-09-17,2024-09-17,158,158
GB001-2001,EC,GB001-2001-USA_SITE01-0011,159,GB001,PERFORMED,Y,Y,,,60.0,,mg,CAPSULE,QD,ORAL,159.0,,TREATMENT,2024-09-18,2024-09-18,159,159
GB001-2001,EC,GB001-2001-USA_SITE01-0011,160,GB001,PERFORMED,Y,Y,,,60.0,,mg,CAPSULE,QD,ORAL,160.0,,TREATMENT,2024-09-19,2024-09-19,160,160
GB001-2001,EC,GB001-2001-USA_SITE01-0011,161,GB001,PERFORMED,Y,Y,,,60.0,,mg,CAPSULE,QD,ORAL,161.0,,TREATMENT,2024-09-20,2024-09-20,161,161
GB001-2001,EC,GB001-2001-USA_SITE01-0011,162,GB001,PERFORMED,Y,Y,,,60.0,,mg,CAPSULE,QD,ORAL,162.0,,TREATMENT,2024-09-21,2024-09-21,162,162
GB001-2001,EC,GB001-2001-USA_SITE01-0011,163,GB001,PERFORMED,Y,Y,,,60.0,,mg,CAPSULE,QD,ORAL,163.0,,TREATMENT,2024-09-22,2024-09-22,163,163
GB001-2001,EC,GB001-2001-USA_SITE01-0011,164,GB001,PERFORMED,Y,Y,,,60.0,,mg,CAPSULE,QD,ORAL,164.0,,TREATMENT,2024-09-23,2024-09-23,164,164
GB001-2001,EC,GB001-2001-USA_SITE01-0011,165,GB001,PERFORMED,Y,Y,,,60.0,,mg,CAPSULE,QD,ORAL,165.0,,TREATMENT,2024-09-24,2024-09-24,165,165
GB001-2001,EC,GB001-2001-USA_SITE01-0011,166,GB001,PERFORMED,Y,Y,,,60.0,,mg,CAPSULE,QD,ORAL,10.0,WEEK 24 EOT,TREATMENT,2024-09-25,2024-09-25,166,166
GB001-2001,EC,GB001-2001-USA_SITE01-0011,167,GB001,PERFORMED,Y,Y,,,60.0,,mg,CAPSULE,QD,ORAL,10.0,WEEK 24 EOT,TREATMENT,2024-09-26,2024-09-26,167,167
GB001-2001,EC,GB001-2001-USA_SITE01-0011,168,GB001,PERFORMED,Y,Y,,,60.0,,mg,CAPSULE,QD,ORAL,10.0,WEEK 24 EOT,TREATMENT,2024-09-27,2024-09-27,168,168
GB001-2001,EC,GB001-2001-USA_SITE01-0013,1,GB001,PERFORMED,Y,Y,,,20.0,,mg,CAPSULE,QD,ORAL,3.0,RANDOMIZATION,RUN_IN,2024-04-02,2024-04-02,1,1
GB001-2001,EC,GB001-2001-USA_SITE01-0013,2,GB001,PERFORMED,Y,Y,,,20.0,,mg,CAPSULE,QD,ORAL,3.0,RANDOMIZATION,RUN_IN,2024-04-03,2024-04-03,2,2
GB001-2001,EC,GB001-2001-USA_SITE01-0013,3,GB001,PERFORMED,Y,Y,,,20.0,,mg,CAPSULE,QD,ORAL,3.0,RANDOMIZATION,RUN_IN,2024-04-04,2024-04-04,3,3
GB001-2001,EC,GB001-2001-USA_SITE01-0013,4,GB001,PERFORMED,Y,Y,,,20.0,,mg,CAPSULE,QD,ORAL,3.0,RANDOMIZATION,RUN_IN,2024-04-05,2024-04-05,4,4
GB001-2001,EC,GB001-2001-USA_SITE01-0013,5,GB001,PERFORMED,Y,Y,,,20.0,,mg,CAPSULE,QD,ORAL,5.0,,RUN_IN,2024-04-06,2024-04-06,5,5
GB001-2001,EC,GB001-2001-USA_SITE01-0013,6,GB001,PERFORMED,Y,Y,,,20.0,,mg,CAPSULE,QD,ORAL,6.0,,RUN_IN,2024-04-07,2024-04-07,6,6
GB001-2001,EC,GB001-2001-USA_SITE01-0013,7,GB001,PERFORMED,Y,Y,,,20.0,,mg,CAPSULE,QD,ORAL,7.0,,RUN_IN,2024-04-08,2024-04-08,7,7
GB001-2001,EC,GB001-2001-USA_SITE01-0013,8,GB001,PERFORMED,Y,Y,,,20.0,,mg,CAPSULE,QD,ORAL,8.0,,RUN_IN,2024-04-09,2024-04-09,8,8
GB001-2001,EC,GB001-2001-USA_SITE01-0013,9,GB001,PERFORMED,Y,Y,,,20.0,,mg,CAPSULE,QD,ORAL,9.0,,RUN_IN,2024-04-10,2024-04-10,9,9
GB001-2001,EC,GB001-2001-USA_SITE01-0013,10,GB001,PERFORMED,Y,Y,,,20.0,,mg,CAPSULE,QD,ORAL,10.0,,RUN_IN,2024-04-11,2024-04-11,10,10
GB001-2001,EC,GB001-2001-USA_SITE01-0013,11,GB001,PERFORMED,Y,Y,,,20.0,,mg,CAPSULE,QD,ORAL,11.0,,RUN_IN,2024-04-12,2024-04-12,11,11
GB001-2001,EC,GB001-2001-USA_SITE01-0013,12,GB001,PERFORMED,Y,Y,,,20.0,,mg,CAPSULE,QD,ORAL,4.0,WEEK 2,RUN_IN,2024-04-13,2024-04-13,12,12
GB001-2001,EC,GB001-2001-USA_SITE01-0013,13,GB001,PERFORMED,Y,Y,,,20.0,,mg,CAPSULE,QD,ORAL,4.0,WEEK 2,RUN_IN,2024-04-14,2024-04-14,13,13
GB001-2001,EC,GB001-2001-USA_SITE01-0013,14,GB001,PERFORMED,Y,Y,,,20.0,,mg,CAPSULE,QD,ORAL,4.0,WEEK 2,RUN_IN,2024-04-15,2024-04-15,14,14
GB001-2001,EC,GB001-2001-USA_SITE01-0013,15,GB001,PERFORMED,Y,Y,,,20.0,,mg,CAPSULE,QD,ORAL,4.0,WEEK 2,RUN_IN,2024-04-16,2024-04-16,15,15
GB001-2001,EC,GB001-2001-USA_SITE01-0013,16,GB001,PERFORMED,Y,Y,,,20.0,,mg,CAPSULE,QD,ORAL,4.0,WEEK 2,RUN_IN,2024-04-17,2024-04-17,16,16
GB001-2001,EC,GB001-2001-USA_SITE01-0013,17,GB001,PERFORMED,Y,Y,,,20.0,,mg,CAPSULE,QD,ORAL,4.0,WEEK 2,RUN_IN,2024-04-18,2024-04-18,17,17
GB001-2001,EC,GB001-2001-USA_SITE01-0013,18,GB001,PERFORMED,Y,Y,,,20.0,,mg,CAPSULE,QD,ORAL,4.0,WEEK 2,RUN_IN,2024-04-19,2024-04-19,18,18
GB001-2001,EC,GB001-2001-USA_SITE01-0013,19,GB001,PERFORMED,Y,Y,,,20.0,,mg,CAPSULE,QD,ORAL,19.0,,RUN_IN,2024-04-20,2024-04-20,19,19
GB001-2001,EC,GB001-2001-USA_SITE01-0013,20,GB001,PERFORMED,Y,Y,,,20.0,,mg,CAPSULE,QD,ORAL,20.0,,RUN_IN,2024-04-21,2024-04-21,20,20
GB001-2001,EC,GB001-2001-USA_SITE01-0013,21,GB001,PERFORMED,Y,Y,,,20.0,,mg,CAPSULE,QD,ORAL,21.0,,RUN_IN,2024-04-22,2024-04-22,21,21
GB001-2001,EC,GB001-2001-USA_SITE01-0013,22,GB001,PERFORMED,Y,Y,,,20.0,,mg,CAPSULE,QD,ORAL,22.0,,RUN_IN,2024-04-23,2024-04-23,22,22
GB001-2001,EC,GB001-2001-USA_SITE01-0013,23,GB001,PERFORMED,Y,Y,,,20.0,,mg,CAPSULE,QD,ORAL,23.0,,RUN_IN,2024-04-24,2024-04-24,23,23
GB001-2001,EC,GB001-2001-USA_SITE01-0013,24,GB001,PERFORMED,Y,Y,,,20.0,,mg,CAPSULE,QD,ORAL,24.0,,RUN_IN,2024-04-25,2024-04-25,24,24
GB001-2001,EC,GB001-2001-USA_SITE01-0013,25,GB001,PERFORMED,Y,Y,,,20.0,,mg,CAPSULE,QD,ORAL,25.0,,RUN_IN,2024-04-26,2024-04-26,25,25
GB001-2001,EC,GB001-2001-USA_SITE01-0013,26,GB001,PERFORMED,Y,Y,,,20.0,,mg,CAPSULE,QD,ORAL,5.0,WEEK 4,RUN_IN,2024-04-27,2024-04-27,26,26
GB001-2001,EC,GB001-2001-USA_SITE01-0013,27,GB001,PERFORMED,Y,Y,,,20.0,,mg,CAPSULE,QD,ORAL,5.0,WEEK 4,RUN_IN,2024-04-28,2024-04-28,27,27
GB001-2001,EC,GB001-2001-USA_SITE01-0013,28,GB001,PERFORMED,Y,Y,,,20.0,,mg,CAPSULE,QD,ORAL,5.0,WEEK 4,RUN_IN,2024-04-29,2024-04-29,28,28
GB001-2001,EC,GB001-2001-USA_SITE01-0013,29,GB001,PERFORMED,Y,Y,,,20.0,,mg,CAPSULE,QD,ORAL,5.0,WEEK 4,TREATMENT,2024-04-30,2024-04-30,29,29
GB001-2001,EC,GB001-2001-USA_SITE01-0013,30,GB001,PERFORMED,Y,Y,,,20.0,,mg,CAPSULE,QD,ORAL,5.0,WEEK 4,TREATMENT,2024-05-01,2024-05-01,30,30
GB001-2001,EC,GB001-2001-USA_SITE01-0013,31,GB001,PERFORMED,Y,Y,,,20.0,,mg,CAPSULE,QD,ORAL,5.0,WEEK 4,TREATMENT,2024-05-02,2024-05-02,31,31
GB001-2001,EC,GB001-2001-USA_SITE01-0013,32,GB001,PERFORMED,Y,Y,,,20.0,,mg,CAPSULE,QD,ORAL,5.0,WEEK 4,TREATMENT,2024-05-03,2024-05-03,32,32
GB001-2001,EC,GB001-2001-USA_SITE01-0013,33,GB001,PERFORMED,Y,Y,,,20.0,,mg,CAPSULE,QD,ORAL,33.0,,TREATMENT,2024-05-04,2024-05-04,33,33
GB001-2001,EC,GB001-2001-USA_SITE01-0013,34,GB001,PERFORMED,Y,Y,,,20.0,,mg,CAPSULE,QD,ORAL,34.0,,TREATMENT,2024-05-05,2024-05-05,34,34
GB001-2001,EC,GB001-2001-USA_SITE01-0013,35,GB001,PERFORMED,Y,Y,,,20.0,,mg,CAPSULE,QD,ORAL,35.0,,TREATMENT,2024-05-06,2024-05-06,35,35
GB001-2001,EC,GB001-2001-USA_SITE01-0013,36,GB001,PERFORMED,Y,Y,,,20.0,,mg,CAPSULE,QD,ORAL,36.0,,TREATMENT,2024-05-07,2024-05-07,36,36
GB001-2001,EC,GB001-2001-USA_SITE01-0013,37,GB001,PERFORMED,Y,Y,,,20.0,,mg,CAPSULE,QD,ORAL,37.0,,TREATMENT,2024-05-08,2024-05-08,37,37
GB001-2001,EC,GB001-2001-USA_SITE01-0013,38,GB001,PERFORMED,Y,Y,,,20.0,,mg,CAPSULE,QD,ORAL,38.0,,TREATMENT,2024-05-09,2024-05-09,38,38
GB001-2001,EC,GB001-2001-USA_SITE01-0013,39,GB001,PERFORMED,Y,Y,,,20.0,,mg,CAPSULE,QD,ORAL,39.0,,TREATMENT,2024-05-10,2024-05-10,39,39
GB001-2001,EC,GB001-2001-USA_SITE01-0013,40,GB001,PERFORMED,Y,Y,,,20.0,,mg,CAPSULE,QD,ORAL,40.0,,TREATMENT,2024-05-11,2024-05-11,40,40
GB001-2001,EC,GB001-2001-USA_SITE01-0013,41,GB001,PERFORMED,Y,Y,,,20.0,,mg,CAPSULE,QD,ORAL,41.0,,TREATMENT,2024-05-12,2024-05-12,41,41
GB001-2001,EC,GB001-2001-USA_SITE01-0013,42,GB001,PERFORMED,Y,Y,,,20.0,,mg,CAPSULE,QD,ORAL,42.0,,TREATMENT,2024-05-13,2024-05-13,42,42
GB001-2001,EC,GB001-2001-USA_SITE01-0013,43,GB001,PERFORMED,Y,Y,,,20.0,,mg,CAPSULE,QD,ORAL,43.0,,TREATMENT,2024-05-14,2024-05-14,43,43
GB001-2001,EC,GB001-2001-USA_SITE01-0013,44,GB001,PERFORMED,Y,Y,,,20.0,,mg,CAPSULE,QD,ORAL,44.0,,TREATMENT,2024-05-15,2024-05-15,44,44
GB001-2001,EC,GB001-2001-USA_SITE01-0013,45,GB001,PERFORMED,Y,Y,,,20.0,,mg,CAPSULE,QD,ORAL,45.0,,TREATMENT,2024-05-16,2024-05-16,45,45
GB001-2001,EC,GB001-2001-USA_SITE01-0013,46,GB001,PERFORMED,Y,Y,,,20.0,,mg,CAPSULE,QD,ORAL,46.0,,TREATMENT,2024-05-17,2024-05-17,46,46
GB001-2001,EC,GB001-2001-USA_SITE01-0013,47,GB001,PERFORMED,Y,Y,,,20.0,,mg,CAPSULE,QD,ORAL,47.0,,TREATMENT,2024-05-18,2024-05-18,47,47
GB001-2001,EC,GB001-2001-USA_SITE01-0013,48,GB001,PERFORMED,Y,Y,,,20.0,,mg,CAPSULE,QD,ORAL,48.0,,TREATMENT,2024-05-19,2024-05-19,48,48
GB001-2001,EC,GB001-2001-USA_SITE01-0013,49,GB001,PERFORMED,Y,Y,,,20.0,,mg,CAPSULE,QD,ORAL,49.0,,TREATMENT,2024-05-20,2024-05-20,49,49
GB001-2001,EC,GB001-2001-USA_SITE01-0013,50,GB001,PERFORMED,Y,Y,,,20.0,,mg,CAPSULE,QD,ORAL,50.0,,TREATMENT,2024-05-21,2024-05-21,50,50
GB001-2001,EC,GB001-2001-USA_SITE01-0013,51,GB001,PERFORMED,Y,Y,,,20.0,,mg,CAPSULE,QD,ORAL,51.0,,TREATMENT,2024-05-22,2024-05-22,51,51
GB001-2001,EC,GB001-2001-USA_SITE01-0013,52,GB001,PERFORMED,Y,Y,,,20.0,,mg,CAPSULE,QD,ORAL,52.0,,TREATMENT,2024-05-23,2024-05-23,52,52
GB001-2001,EC,GB001-2001-USA_SITE01-0013,53,GB001,PERFORMED,Y,Y,,,20.0,,mg,CAPSULE,QD,ORAL,53.0,,TREATMENT,2024-05-24,2024-05-24,53,53
GB001-2001,EC,GB001-2001-USA_SITE01-0013,54,GB001,PERFORMED,Y,Y,,,20.0,,mg,CAPSULE,QD,ORAL,6.0,WEEK 8,TREATMENT,2024-05-25,2024-05-25,54,54
GB001-2001,EC,GB001-2001-USA_SITE01-0013,55,GB001,PERFORMED,Y,Y,,,20.0,,mg,CAPSULE,QD,ORAL,6.0,WEEK 8,TREATMENT,2024-05-26,2024-05-26,55,55
GB001-2001,EC,GB001-2001-USA_SITE01-0013,56,GB001,PERFORMED,Y,Y,,,20.0,,mg,CAPSULE,QD,ORAL,6.0,WEEK 8,TREATMENT,2024-05-27,2024-05-27,56,56
GB001-2001,EC,GB001-2001-USA_SITE01-0013,57,GB001,PERFORMED,Y,Y,,,20.0,,mg,CAPSULE,QD,ORAL,6.0,WEEK 8,TREATMENT,2024-05-28,2024-05-28,57,57
GB001-2001,EC,GB001-2001-USA_SITE01-0013,58,GB001,PERFORMED,Y,Y,,,20.0,,mg,CAPSULE,QD,ORAL,6.0,WEEK 8,TREATMENT,2024-05-29,2024-05-29,58,58
GB001-2001,EC,GB001-2001-USA_SITE01-0013,59,GB001,PERFORMED,Y,Y,,,20.0,,mg,CAPSULE,QD,ORAL,6.0,WEEK 8,TREATMENT,2024-05-30,2024-05-30,59,59
GB001-2001,EC,GB001-2001-USA_SITE01-0013,60,GB001,PERFORMED,Y,Y,,,20.0,,mg,CAPSULE,QD,ORAL,6.0,WEEK 8,TREATMENT,2024-05-31,2024-05-31,60,60
GB001-2001,EC,GB001-2001-USA_SITE01-0013,61,GB001,PERFORMED,Y,Y,,,20.0,,mg,CAPSULE,QD,ORAL,61.0,,TREATMENT,2024-06-01,2024-06-01,61,61
GB001-2001,EC,GB001-2001-USA_SITE01-0013,62,GB001,PERFORMED,Y,Y,,,20.0,,mg,CAPSULE,QD,ORAL,62.0,,TREATMENT,2024-06-02,2024-06-02,62,62
GB001-2001,EC,GB001-2001-USA_SITE01-0013,63,GB001,PERFORMED,Y,Y,,,20.0,,mg,CAPSULE,QD,ORAL,63.0,,TREATMENT,2024-06-03,2024-06-03,63,63
GB001-2001,EC,GB001-2001-USA_SITE01-0013,64,GB001,PERFORMED,Y,Y,,,20.0,,mg,CAPSULE,QD,ORAL,64.0,,TREATMENT,2024-06-04,2024-06-04,64,64
GB001-2001,EC,GB001-2001-USA_SITE01-0013,65,GB001,PERFORMED,Y,Y,,,20.0,,mg,CAPSULE,QD,ORAL,65.0,,TREATMENT,2024-06-05,2024-06-05,65,65
GB001-2001,EC,GB001-2001-USA_SITE01-0013,66,GB001,PERFORMED,Y,Y,,,20.0,,mg,CAPSULE,QD,ORAL,66.0,,TREATMENT,2024-06-06,2024-06-06,66,66
GB001-2001,EC,GB001-2001-USA_SITE01-0013,67,GB001,PERFORMED,Y,Y,,,20.0,,mg,CAPSULE,QD,ORAL,67.0,,TREATMENT,2024-06-07,2024-06-07,67,67
GB001-2001,EC,GB001-2001-USA_SITE01-0013,68,GB001,PERFORMED,Y,Y,,,20.0,,mg,CAPSULE,QD,ORAL,68.0,,TREATMENT,2024-06-08,2024-06-08,68,68
GB001-2001,EC,GB001-2001-USA_SITE01-0013,69,GB001,PERFORMED,Y,Y,,,20.0,,mg,CAPSULE,QD,ORAL,69.0,,TREATMENT,2024-06-09,2024-06-09,69,69
GB001-2001,EC,GB001-2001-USA_SITE01-0013,70,GB001,PERFORMED,Y,Y,,,20.0,,mg,CAPSULE,QD,ORAL,70.0,,TREATMENT,2024-06-10,2024-06-10,70,70
GB001-2001,EC,GB001-2001-USA_SITE01-0013,71,GB001,PERFORMED,Y,Y,,,20.0,,mg,CAPSULE,QD,ORAL,71.0,,TREATMENT,2024-06-11,2024-06-11,71,71
GB001-2001,EC,GB001-2001-USA_SITE01-0013,72,GB001,PERFORMED,Y,Y,,,20.0,,mg,CAPSULE,QD,ORAL,72.0,,TREATMENT,2024-06-12,2024-06-12,72,72
GB001-2001,EC,GB001-2001-USA_SITE01-0013,73,GB001,PERFORMED,Y,Y,,,20.0,,mg,CAPSULE,QD,ORAL,73.0,,TREATMENT,2024-06-13,2024-06-13,73,73
GB001-2001,EC,GB001-2001-USA_SITE01-0013,74,GB001,PERFORMED,Y,Y,,,20.0,,mg,CAPSULE,QD,ORAL,74.0,,TREATMENT,2024-06-14,2024-06-14,74,74
GB001-2001,EC,GB001-2001-USA_SITE01-0013,75,GB001,PERFORMED,Y,Y,,,20.0,,mg,CAPSULE,QD,ORAL,75.0,,TREATMENT,2024-06-15,2024-06-15,75,75
GB001-2001,EC,GB001-2001-USA_SITE01-0013,76,GB001,PERFORMED,Y,Y,,,20.0,,mg,CAPSULE,QD,ORAL,76.0,,TREATMENT,2024-06-16,2024-06-16,76,76
GB001-2001,EC,GB001-2001-USA_SITE01-0013,77,GB001,PERFORMED,Y,Y,,,20.0,,mg,CAPSULE,QD,ORAL,77.0,,TREATMENT,2024-06-17,2024-06-17,77,77
GB001-2001,EC,GB001-2001-USA_SITE01-0013,78,GB001,PERFORMED,Y,Y,,,20.0,,mg,CAPSULE,QD,ORAL,78.0,,TREATMENT,2024-06-18,2024-06-18,78,78
GB001-2001,EC,GB001-2001-USA_SITE01-0013,79,GB001,PERFORMED,Y,Y,,,20.0,,mg,CAPSULE,QD,ORAL,79.0,,TREATMENT,2024-06-19,2024-06-19,79,79
GB001-2001,EC,GB001-2001-USA_SITE01-0013,80,GB001,PERFORMED,Y,Y,,,20.0,,mg,CAPSULE,QD,ORAL,80.0,,TREATMENT,2024-06-20,2024-06-20,80,80
GB001-2001,EC,GB001-2001-USA_SITE01-0013,81,GB001,PERFORMED,Y,Y,,,20.0,,mg,CAPSULE,QD,ORAL,81.0,,TREATMENT,2024-06-21,2024-06-21,81,81
GB001-2001,EC,GB001-2001-USA_SITE01-0013,82,GB001,PERFORMED,Y,Y,,,20.0,,mg,CAPSULE,QD,ORAL,7.0,WEEK 12,TREATMENT,2024-06-22,2024-06-22,82,82
GB001-2001,EC,GB001-2001-USA_SITE01-0013,83,GB001,PERFORMED,Y,Y,,,20.0,,mg,CAPSULE,QD,ORAL,7.0,WEEK 12,TREATMENT,2024-06-23,2024-06-23,83,83
GB001-2001,EC,GB001-2001-USA_SITE01-0013,84,GB001,PERFORMED,Y,Y,,,20.0,,mg,CAPSULE,QD,ORAL,7.0,WEEK 12,TREATMENT,2024-06-24,2024-06-24,84,84
GB001-2001,EC,GB001-2001-USA_SITE01-0013,85,GB001,PERFORMED,Y,Y,,,20.0,,mg,CAPSULE,QD,ORAL,7.0,WEEK 12,TREATMENT,2024-06-25,2024-06-25,85,85
GB001-2001,EC,GB001-2001-USA_SITE01-0013,86,GB001,PERFORMED,Y,Y,,,20.0,,mg,CAPSULE,QD,ORAL,7.0,WEEK 12,TREATMENT,2024-06-26,2024-06-26,86,86
GB001-2001,EC,GB001-2001-USA_SITE01-0013,87,GB001,PERFORMED,Y,Y,,,20.0,,mg,CAPSULE,QD,ORAL,7.0,WEEK 12,TREATMENT,2024-06-27,2024-06-27,87,87
GB001-2001,EC,GB001-2001-USA_SITE01-0013,88,GB001,PERFORMED,Y,Y,,,20.0,,mg,CAPSULE,QD,ORAL,7.0,WEEK 12,TREATMENT,2024-06-28,2024-06-28,88,88
GB001-2001,EC,GB001-2001-USA_SITE01-0013,89,GB001,PERFORMED,Y,Y,,,20.0,,mg,CAPSULE,QD,ORAL,89.0,,TREATMENT,2024-06-29,2024-06-29,89,89
GB001-2001,EC,GB001-2001-USA_SITE01-0013,90,GB001,PERFORMED,Y,Y,,,20.0,,mg,CAPSULE,QD,ORAL,90.0,,TREATMENT,2024-06-30,2024-06-30,90,90
GB001-2001,EC,GB001-2001-USA_SITE01-0013,91,GB001,PERFORMED,Y,Y,,,20.0,,mg,CAPSULE,QD,ORAL,91.0,,TREATMENT,2024-07-01,2024-07-01,91,91
GB001-2001,EC,GB001-2001-USA_SITE01-0013,92,GB001,PERFORMED,Y,Y,,,20.0,,mg,CAPSULE,QD,ORAL,92.0,,TREATMENT,2024-07-02,2024-07-02,92,92
GB001-2001,EC,GB001-2001-USA_SITE01-0013,93,GB001,PERFORMED,Y,Y,,,20.0,,mg,CAPSULE,QD,ORAL,93.0,,TREATMENT,2024-07-03,2024-07-03,93,93
GB001-2001,EC,GB001-2001-USA_SITE01-0013,94,GB001,PERFORMED,Y,Y,,,20.0,,mg,CAPSULE,QD,ORAL,94.0,,TREATMENT,2024-07-04,2024-07-04,94,94
GB001-2001,EC,GB001-2001-USA_SITE01-0013,95,GB001,PERFORMED,Y,Y,,,20.0,,mg,CAPSULE,QD,ORAL,95.0,,TREATMENT,2024-07-05,2024-07-05,95,95
GB001-2001,EC,GB001-2001-USA_SITE01-0013,96,GB001,PERFORMED,Y,Y,,,20.0,,mg,CAPSULE,QD,ORAL,96.0,,TREATMENT,2024-07-06,2024-07-06,96,96
GB001-2001,EC,GB001-2001-USA_SITE01-0013,97,GB001,PERFORMED,Y,Y,,,20.0,,mg,CAPSULE,QD,ORAL,97.0,,TREATMENT,2024-07-07,2024-07-07,97,97
GB001-2001,EC,GB001-2001-USA_SITE01-0013,98,GB001,PERFORMED,Y,Y,,,20.0,,mg,CAPSULE,QD,ORAL,98.0,,TREATMENT,2024-07-08,2024-07-08,98,98
GB001-2001,EC,GB001-2001-USA_SITE01-0013,99,GB001,PERFORMED,Y,Y,,,20.0,,mg,CAPSULE,QD,ORAL,99.0,,TREATMENT,2024-07-09,2024-07-09,99,99
GB001-2001,EC,GB001-2001-USA_SITE01-0013,100,GB001,PERFORMED,Y,Y,,,20.0,,mg,CAPSULE,QD,ORAL,100.0,,TREATMENT,2024-07-10,2024-07-10,100,100
GB001-2001,EC,GB001-2001-USA_SITE01-0013,101,GB001,PERFORMED,Y,Y,,,20.0,,mg,CAPSULE,QD,ORAL,101.0,,TREATMENT,2024-07-11,2024-07-11,101,101
GB001-2001,EC,GB001-2001-USA_SITE01-0013,102,GB001,PERFORMED,Y,Y,,,20.0,,mg,CAPSULE,QD,ORAL,102.0,,TREATMENT,2024-07-12,2024-07-12,102,102
GB001-2001,EC,GB001-2001-USA_SITE01-0013,103,GB001,PERFORMED,Y,Y,,,20.0,,mg,CAPSULE,QD,ORAL,103.0,,TREATMENT,2024-07-13,2024-07-13,103,103
GB001-2001,EC,GB001-2001-USA_SITE01-0013,104,GB001,PERFORMED,Y,Y,,,20.0,,mg,CAPSULE,QD,ORAL,104.0,,TREATMENT,2024-07-14,2024-07-14,104,104
GB001-2001,EC,GB001-2001-USA_SITE01-0013,105,GB001,PERFORMED,Y,Y,,,20.0,,mg,CAPSULE,QD,ORAL,105.0,,TREATMENT,2024-07-15,2024-07-15,105,105
GB001-2001,EC,GB001-2001-USA_SITE01-0013,106,GB001,PERFORMED,Y,Y,,,20.0,,mg,CAPSULE,QD,ORAL,106.0,,TREATMENT,2024-07-16,2024-07-16,106,106
GB001-2001,EC,GB001-2001-USA_SITE01-0013,107,GB001,PERFORMED,Y,Y,,,20.0,,mg,CAPSULE,QD,ORAL,107.0,,TREATMENT,2024-07-17,2024-07-17,107,107
GB001-2001,EC,GB001-2001-USA_SITE01-0013,108,GB001,PERFORMED,Y,Y,,,20.0,,mg,CAPSULE,QD,ORAL,108.0,,TREATMENT,2024-07-18,2024-07-18,108,108
GB001-2001,EC,GB001-2001-USA_SITE01-0013,109,GB001,PERFORMED,Y,Y,,,20.0,,mg,CAPSULE,QD,ORAL,109.0,,TREATMENT,2024-07-19,2024-07-19,109,109
GB001-2001,EC,GB001-2001-USA_SITE01-0013,110,GB001,PERFORMED,Y,Y,,,20.0,,mg,CAPSULE,QD,ORAL,8.0,WEEK 16,TREATMENT,2024-07-20,2024-07-20,110,110
GB001-2001,EC,GB001-2001-USA_SITE01-0013,111,GB001,PERFORMED,Y,Y,,,20.0,,mg,CAPSULE,QD,ORAL,8.0,WEEK 16,TREATMENT,2024-07-21,2024-07-21,111,111
GB001-2001,EC,GB001-2001-USA_SITE01-0013,112,GB001,PERFORMED,Y,Y,,,20.0,,mg,CAPSULE,QD,ORAL,8.0,WEEK 16,TREATMENT,2024-07-22,2024-07-22,112,112
GB001-2001,EC,GB001-2001-USA_SITE01-0013,113,GB001,PERFORMED,Y,Y,,,20.0,,mg,CAPSULE,QD,ORAL,8.0,WEEK 16,TREATMENT,2024-07-23,2024-07-23,113,113
GB001-2001,EC,GB001-2001-USA_SITE01-0013,114,GB001,PERFORMED,Y,Y,,,20.0,,mg,CAPSULE,QD,ORAL,8.0,WEEK 16,TREATMENT,2024-07-24,2024-07-24,114,114
GB001-2001,EC,GB001-2001-USA_SITE01-0013,115,GB001,PERFORMED,Y,Y,,,20.0,,mg,CAPSULE,QD,ORAL,8.0,WEEK 16,TREATMENT,2024-07-25,2024-07-25,115,115
GB001-2001,EC,GB001-2001-USA_SITE01-0013,116,GB001,PERFORMED,Y,Y,,,20.0,,mg,CAPSULE,QD,ORAL,8.0,WEEK 16,TREATMENT,2024-07-26,2024-07-26,116,116
GB001-2001,EC,GB001-2001-USA_SITE01-0013,117,GB001,PERFORMED,Y,Y,,,20.0,,mg,CAPSULE,QD,ORAL,117.0,,TREATMENT,2024-07-27,2024-07-27,117,117
GB001-2001,EC,GB001-2001-USA_SITE01-0013,118,GB001,PERFORMED,Y,Y,,,20.0,,mg,CAPSULE,QD,ORAL,118.0,,TREATMENT,2024-07-28,2024-07-28,118,118
GB001-2001,EC,GB001-2001-USA_SITE01-0013,119,GB001,PERFORMED,Y,Y,,,20.0,,mg,CAPSULE,QD,ORAL,119.0,,TREATMENT,2024-07-29,2024-07-29,119,119
GB001-2001,EC,GB001-2001-USA_SITE01-0013,120,GB001,PERFORMED,Y,Y,,,20.0,,mg,CAPSULE,QD,ORAL,120.0,,TREATMENT,2024-07-30,2024-07-30,120,120
GB001-2001,EC,GB001-2001-USA_SITE01-0013,121,GB001,PERFORMED,Y,Y,,,20.0,,mg,CAPSULE,QD,ORAL,121.0,,TREATMENT,2024-07-31,2024-07-31,121,121
GB001-2001,EC,GB001-2001-USA_SITE01-0013,122,GB001,PERFORMED,Y,Y,,,20.0,,mg,CAPSULE,QD,ORAL,122.0,,TREATMENT,2024-08-01,2024-08-01,122,122
GB001-2001,EC,GB001-2001-USA_SITE01-0013,123,GB001,PERFORMED,Y,Y,,,20.0,,mg,CAPSULE,QD,ORAL,123.0,,TREATMENT,2024-08-02,2024-08-02,123,123
GB001-2001,EC,GB001-2001-USA_SITE01-0013,124,GB001,PERFORMED,Y,Y,,,20.0,,mg,CAPSULE,QD,ORAL,124.0,,TREATMENT,2024-08-03,2024-08-03,124,124
GB001-2001,EC,GB001-2001-USA_SITE01-0013,125,GB001,PERFORMED,Y,Y,,,20.0,,mg,CAPSULE,QD,ORAL,125.0,,TREATMENT,2024-08-04,2024-08-04,125,125
GB001-2001,EC,GB001-2001-USA_SITE01-0013,126,GB001,PERFORMED,Y,Y,,,20.0,,mg,CAPSULE,QD,ORAL,126.0,,TREATMENT,2024-08-05,2024-08-05,126,126
GB001-2001,EC,GB001-2001-USA_SITE01-0013,127,GB001,PERFORMED,Y,Y,,,20.0,,mg,CAPSULE,QD,ORAL,127.0,,TREATMENT,2024-08-06,2024-08-06,127,127
GB001-2001,EC,GB001-2001-USA_SITE01-0013,128,GB001,PERFORMED,Y,Y,,,20.0,,mg,CAPSULE,QD,ORAL,128.0,,TREATMENT,2024-08-07,2024-08-07,128,128
GB001-2001,EC,GB001-2001-USA_SITE01-0013,129,GB001,PERFORMED,Y,Y,,,20.0,,mg,CAPSULE,QD,ORAL,129.0,,TREATMENT,2024-08-08,2024-08-08,129,129
GB001-2001,EC,GB001-2001-USA_SITE01-0013,130,GB001,PERFORMED,Y,Y,,,20.0,,mg,CAPSULE,QD,ORAL,130.0,,TREATMENT,2024-08-09,2024-08-09,130,130
GB001-2001,EC,GB001-2001-USA_SITE01-0013,131,GB001,PERFORMED,Y,Y,,,20.0,,mg,CAPSULE,QD,ORAL,131.0,,TREATMENT,2024-08-10,2024-08-10,131,131
GB001-2001,EC,GB001-2001-USA_SITE01-0013,132,GB001,PERFORMED,Y,Y,,,20.0,,mg,CAPSULE,QD,ORAL,132.0,,TREATMENT,2024-08-11,2024-08-11,132,132
GB001-2001,EC,GB001-2001-USA_SITE01-0013,133,GB001,PERFORMED,Y,Y,,,20.0,,mg,CAPSULE,QD,ORAL,133.0,,TREATMENT,2024-08-12,2024-08-12,133,133
GB001-2001,EC,GB001-2001-USA_SITE01-0013,134,GB001,PERFORMED,Y,Y,,,20.0,,mg,CAPSULE,QD,ORAL,134.0,,TREATMENT,2024-08-13,2024-08-13,134,134
GB001-2001,EC,GB001-2001-USA_SITE01-0013,135,GB001,PERFORMED,Y,Y,,,20.0,,mg,CAPSULE,QD,ORAL,135.0,,TREATMENT,2024-08-14,2024-08-14,135,135
GB001-2001,EC,GB001-2001-USA_SITE01-0013,136,GB001,PERFORMED,Y,Y,,,20.0,,mg,CAPSULE,QD,ORAL,136.0,,TREATMENT,2024-08-15,2024-08-15,136,136
GB001-2001,EC,GB001-2001-USA_SITE01-0013,137,GB001,PERFORMED,Y,Y,,,20.0,,mg,CAPSULE,QD,ORAL,137.0,,TREATMENT,2024-08-16,2024-08-16,137,137
GB001-2001,EC,GB001-2001-USA_SITE01-0013,138,GB001,PERFORMED,Y,Y,,,20.0,,mg,CAPSULE,QD,ORAL,9.0,WEEK 20,TREATMENT,2024-08-17,2024-08-17,138,138
GB001-2001,EC,GB001-2001-USA_SITE01-0013,139,GB001,PERFORMED,Y,Y,,,20.0,,mg,CAPSULE,QD,ORAL,9.0,WEEK 20,TREATMENT,2024-08-18,2024-08-18,139,139
GB001-2001,EC,GB001-2001-USA_SITE01-0013,140,GB001,PERFORMED,Y,Y,,,20.0,,mg,CAPSULE,QD,ORAL,9.0,WEEK 20,TREATMENT,2024-08-19,2024-08-19,140,140
GB001-2001,EC,GB001-2001-USA_SITE01-0013,141,GB001,PERFORMED,Y,Y,,,20.0,,mg,CAPSULE,QD,ORAL,9.0,WEEK 20,TREATMENT,2024-08-20,2024-08-20,141,141
GB001-2001,EC,GB001-2001-USA_SITE01-0013,142,GB001,PERFORMED,Y,Y,,,20.0,,mg,CAPSULE,QD,ORAL,9.0,WEEK 20,TREATMENT,2024-08-21,2024-08-21,142,142
GB001-2001,EC,GB001-2001-USA_SITE01-0013,143,GB001,PERFORMED,Y,Y,,,20.0,,mg,CAPSULE,QD,ORAL,9.0,WEEK 20,TREATMENT,2024-08-22,2024-08-22,143,143
GB001-2001,EC,GB001-2001-USA_SITE01-0013,144,GB001,PERFORMED,Y,Y,,,20.0,,mg,CAPSULE,QD,ORAL,9.0,WEEK 20,TREATMENT,2024-08-23,2024-08-23,144,144
GB001-2001,EC,GB001-2001-USA_SITE01-0013,145,GB001,PERFORMED,Y,Y,,,20.0,,mg,CAPSULE,QD,ORAL,145.0,,TREATMENT,2024-08-24,2024-08-24,145,145
GB001-2001,EC,GB001-2001-USA_SITE01-0013,146,GB001,PERFORMED,Y,Y,,,20.0,,mg,CAPSULE,QD,ORAL,146.0,,TREATMENT,2024-08-25,2024-08-25,146,146
GB001-2001,EC,GB001-2001-USA_SITE01-0013,147,GB001,PERFORMED,Y,Y,,,20.0,,mg,CAPSULE,QD,ORAL,147.0,,TREATMENT,2024-08-26,2024-08-26,147,147
