STUDYID,DOMAIN,USUBJID,EXSEQ,EXTRT,EXDOSE,EXDOSU,EXDOSFRM,EXDOSFRQ,EXROUTE,EPOCH,EXSTDTC,EXENDTC,EXSTDY,EXENDY
GB001-2001,EX,GB001-2001-ARG_SITE01-0006,1,GB001,60.0,mg,CAPSULE,QD,ORAL,RUN_IN,2024-03-26,2024-06-10,1,77
GB001-2001,EX,GB001-2001-ARG_SITE01-0006,2,GB001,30.0,mg,CAPSULE,QD,ORAL,TREATMENT,2024-06-11,2024-08-19,78,147
GB001-2001,EX,GB001-2001-CAN_SITE01-0008,1,GB001,20.0,mg,CAPSULE,QD,ORAL,RUN_IN,2024-05-06,2024-05-15,1,10
GB001-2001,EX,GB001-2001-CAN_SITE01-0008,2,GB001,20.0,mg,CAPSULE,QD,ORAL,TREATMENT,2024-06-13,2024-09-14,39,132
GB001-2001,EX,GB001-2001-CAN_SITE01-0019,1,PLACEBO,0.0,mg,CAPSULE,QD,ORAL,RUN_IN,2024-03-12,2024-06-19,1,100
GB001-2001,EX,GB001-2001-DEU_SITE01-0012,1,PLACEBO,0.0,mg,CAPSULE,QD,ORAL,RUN_IN,2024-01-26,2024-07-11,1,168
GB001-2001,EX,GB001-2001-FRA_SITE01-0001,1,GB001,40.0,mg,CAPSULE,QD,ORAL,RUN_IN,2024-04-10,2024-04-11,1,2
GB001-2001,EX,GB001-2001-ITA_SITE01-0017,1,PLACEBO,0.0,mg,CAPSULE,QD,ORAL,RUN_IN,2024-03-11,2024-06-18,1,100
GB001-2001,EX,GB001-2001-MEX_SITE01-0003,1,GB001,60.0,mg,CAPSULE,QD,ORAL,RUN_IN,2024-03-17,2024-04-02,1,17
GB001-2001,EX,GB001-2001-MEX_SITE01-0015,1,PLACEBO,0.0,mg,CAPSULE,QD,ORAL,RUN_IN,2024-04-30,2024-08-10,1,103
GB001-2001,EX,GB001-2001-POL_SITE01-0002,1,GB001,60.0,mg,CAPSULE,QD,ORAL,RUN_IN,2024-03-29,2024-09-12,1,168
GB001-2001,EX,GB001-2001-POL_SITE01-0004,1,GB001,40.0,mg,CAPSULE,QD,ORAL,RUN_IN,2024-04-18,2024-06-28,1,72
GB001-2001,EX,GB001-2001-POL_SITE01-0014,1,PLACEBO,0.0,mg,CAPSULE,QD,ORAL,RUN_IN,2024-02-04,2024-04-12,1,69
GB001-2001,EX,GB001-2001-USA_SITE01-0007,1,GB001,40.0,mg,CAPSULE,QD,ORAL,RUN_IN,2024-02-04,2024-03-03,1,29
GB001-2001,EX,GB001-2001-USA_SITE01-0009,1,GB001,40.0,mg,CAPSULE,QD,ORAL,RUN_IN,2024-03-24,2024-03-30,1,7
GB001-2001,EX,GB001-2001-USA_SITE01-0011,1,GB001,60.0,mg,CAPSULE,QD,ORAL,RUN_IN,2024-04-13,2024-04-13,1,1
GB001-2001,EX,GB001-2001-USA_SITE01-0011,2,GB001,60.0,mg,CAPSULE,QD,ORAL,RUN_IN,2024-04-20,2024-09-27,8,168
GB001-2001,EX,GB001-2001-USA_SITE01-0013,1,GB001,20.0,mg,CAPSULE,QD,ORAL,RUN_IN,2024-04-02,2024-07-17,1,107
GB001-2001,EX,GB001-2001-USA_SITE01-0013,2,GB001,10.0,mg,CAPSULE,QD,ORAL,TREATMENT,2024-07-18,2024-09-16,108,168
GB001-2001,EX,GB001-2001-USA_SITE03-0005,1,GB001,60.0,mg,CAPSULE,QD,ORAL,RUN_IN,2024-04-04,2024-04-20,1,17
GB001-2001,EX,GB001-2001-USA_SITE03-0005,2,GB001,30.0,mg,CAPSULE,QD,ORAL,RUN_IN,2024-04-21,2024-05-23,18,50
GB001-2001,EX,GB001-2001-USA_SITE03-0005,3,GB001,30.0,mg,CAPSULE,QD,ORAL,TREATMENT,2024-06-05,2024-06-13,63,71
GB001-2001,EX,GB001-2001-USA_SITE04-0016,1,PLACEBO,0.0,mg,CAPSULE,QD,ORAL,RUN_IN,2024-02-03,2024-04-10,1,68
GB001-2001,EX,GB001-2001-USA_SITE04-0018,1,GB001,20.0,mg,CAPSULE,QD,ORAL,RUN_IN,2024-02-04,2024-05-17,1,104
GB001-2001,EX,GB001-2001-USA_SITE04-0020,1,PLACEBO,0.0,mg,CAPSULE,QD,ORAL,RUN_IN,2024-03-01,2024-03-02,1,2
