STUDYID,DOMAIN,USUBJID,IESEQ,IETESTCD,IETEST,IECAT,IEORRES,IESTRESC,VISITNUM,VISIT,EPOCH,IEDTC,IEDY
GB001-2001,IE,GB001-2001-USA_SITE01-0010,1,EXCL05,Subject has participated in another clinical trial within 30 days,EXCLUSION,Y,Y,1.0,SCREENING,SCREENING,2024-03-28,
