STUDYID,DOMAIN,USUBJID,PESEQ,PETESTCD,PETEST,PEORRES,PESTRESC,VISITNUM,VISIT,EPOCH,PEDTC,PEDY
GB001-2001,PE,GB001-2001-ARG_SITE01-0006,1,ABDOMEN,ABDOMEN,NORMAL,NORMAL,1.0,SCREENING,SCREENING,2024-03-09,-17
GB001-2001,PE,GB001-2001-ARG_SITE01-0006,2,CARDIOVA,CARDIOVASCULAR,IRREGULAR RHYTHM,IRREGULAR RHYTHM,1.0,SCREENING,SCREENING,2024-03-09,-17
GB001-2001,PE,GB001-2001-ARG_SITE01-0006,3,EARSNOSE,"EARS, NOSE, AND THROAT",NORMAL,NORMAL,1.0,SCREENING,SCREENING,2024-03-09,-17
GB001-2001,PE,GB001-2001-ARG_SITE01-0006,4,EYES,EYES,NORMAL,NORMAL,1.0,SCREENING,SCREENING,2024-03-09,-17
GB001-2001,PE,GB001-2001-ARG_SITE01-0006,5,GENERALA,GENERAL APPEARANCE,NORMAL,NORMAL,1.0,SCREENING,SCREENING,2024-03-09,-17
GB001-2001,PE,GB001-2001-ARG_SITE01-0006,6,HEADANDN,HEAD AND NECK,NORMAL,NORMAL,1.0,SCREENING,SCREENING,2024-03-09,-17
GB001-2001,PE,GB001-2001-ARG_SITE01-0006,7,MUSCULOS,MUSCULOSKELETAL,NORMAL,NORMAL,1.0,SCREENING,SCREENING,2024-03-09,-17
GB001-2001,PE,GB001-2001-ARG_SITE01-0006,8,NEUROLOG,NEUROLOGICAL,NORMAL,NORMAL,1.0,SCREENING,SCREENING,2024-03-09,-17
GB001-2001,PE,GB001-2001-ARG_SITE01-0006,9,RESPIRAT,RESPIRATORY,NORMAL,NORMAL,1.0,SCREENING,SCREENING,2024-03-09,-17
GB001-2001,PE,GB001-2001-ARG_SITE01-0006,10,SKIN,SKIN,NORMAL,NORMAL,1.0,SCREENING,SCREENING,2024-03-09,-17
GB001-2001,PE,GB001-2001-ARG_SITE01-0006,11,ABDOMEN,ABDOMEN,NORMAL,NORMAL,3.0,RANDOMIZATION,RUN_IN,2024-03-26,1
GB001-2001,PE,GB001-2001-ARG_SITE01-0006,12,CARDIOVA,CARDIOVASCULAR,NORMAL,NORMAL,3.0,RANDOMIZATION,RUN_IN,2024-03-26,1
GB001-2001,PE,GB001-2001-ARG_SITE01-0006,13,EARSNOSE,"EARS, NOSE, AND THROAT",NORMAL,NORMAL,3.0,RANDOMIZATION,RUN_IN,2024-03-26,1
GB001-2001,PE,GB001-2001-ARG_SITE01-0006,14,EYES,EYES,NORMAL,NORMAL,3.0,RANDOMIZATION,RUN_IN,2024-03-26,1
GB001-2001,PE,GB001-2001-ARG_SITE01-0006,15,GENERALA,GENERAL APPEARANCE,NORMAL,NORMAL,3.0,RANDOMIZATION,RUN_IN,2024-03-26,1
GB001-2001,PE,GB001-2001-ARG_SITE01-0006,16,HEADANDN,HEAD AND NECK,NORMAL,NORMAL,3.0,RANDOMIZATION,RUN_IN,2024-03-26,1
GB001-2001,PE,GB001-2001-ARG_SITE01-0006,17,MUSCULOS,MUSCULOSKELETAL,NORMAL,NORMAL,3.0,RANDOMIZATION,RUN_IN,2024-03-26,1
GB001-2001,PE,GB001-2001-ARG_SITE01-0006,18,NEUROLOG,NEUROLOGICAL,NORMAL,NORMAL,3.0,RANDOMIZATION,RUN_IN,2024-03-26,1
GB001-2001,PE,GB001-2001-ARG_SITE01-0006,19,RESPIRAT,RESPIRATORY,NORMAL,NORMAL,3.0,RANDOMIZATION,RUN_IN,2024-03-26,1
GB001-2001,PE,GB001-2001-ARG_SITE01-0006,20,SKIN,SKIN,NORMAL,NORMAL,3.0,RANDOMIZATION,RUN_IN,2024-03-26,1
GB001-2001,PE,GB001-2001-CAN_SITE01-0008,1,ABDOMEN,ABDOMEN,NORMAL,NORMAL,1.0,SCREENING,SCREENING,2024-04-10,-26
GB001-2001,PE,GB001-2001-CAN_SITE01-0008,2,CARDIOVA,CARDIOVASCULAR,NORMAL,NORMAL,1.0,SCREENING,SCREENING,2024-04-10,-26
GB001-2001,PE,GB001-2001-CAN_SITE01-0008,3,EARSNOSE,"EARS, NOSE, AND THROAT",NORMAL,NORMAL,1.0,SCREENING,SCREENING,2024-04-10,-26
GB001-2001,PE,GB001-2001-CAN_SITE01-0008,4,EYES,EYES,NORMAL,NORMAL,1.0,SCREENING,SCREENING,2024-04-10,-26
GB001-2001,PE,GB001-2001-CAN_SITE01-0008,5,GENERALA,GENERAL APPEARANCE,NORMAL,NORMAL,1.0,SCREENING,SCREENING,2024-04-10,-26
GB001-2001,PE,GB001-2001-CAN_SITE01-0008,6,HEADANDN,HEAD AND NECK,NORMAL,NORMAL,1.0,SCREENING,SCREENING,2024-04-10,-26
GB001-2001,PE,GB001-2001-CAN_SITE01-0008,7,MUSCULOS,MUSCULOSKELETAL,NORMAL,NORMAL,1.0,SCREENING,SCREENING,2024-04-10,-26
GB001-2001,PE,GB001-2001-CAN_SITE01-0008,8,NEUROLOG,NEUROLOGICAL,NORMAL,NORMAL,1.0,SCREENING,SCREENING,2024-04-10,-26
GB001-2001,PE,GB001-2001-CAN_SITE01-0008,9,RESPIRAT,RESPIRATORY,NORMAL,NORMAL,1.0,SCREENING,SCREENING,2024-04-10,-26
GB001-2001,PE,GB001-2001-CAN_SITE01-0008,10,SKIN,SKIN,NORMAL,NORMAL,1.0,SCREENING,SCREENING,2024-04-10,-26
GB001-2001,PE,GB001-2001-CAN_SITE01-0008,11,ABDOMEN,ABDOMEN,NORMAL,NORMAL,3.0,RANDOMIZATION,RUN_IN,2024-05-06,1
GB001-2001,PE,GB001-2001-CAN_SITE01-0008,12,CARDIOVA,CARDIOVASCULAR,NORMAL,NORMAL,3.0,RANDOMIZATION,RUN_IN,2024-05-06,1
GB001-2001,PE,GB001-2001-CAN_SITE01-0008,13,EARSNOSE,"EARS, NOSE, AND THROAT",NORMAL,NORMAL,3.0,RANDOMIZATION,RUN_IN,2024-05-06,1
GB001-2001,PE,GB001-2001-CAN_SITE01-0008,14,EYES,EYES,NORMAL,NORMAL,3.0,RANDOMIZATION,RUN_IN,2024-05-06,1
GB001-2001,PE,GB001-2001-CAN_SITE01-0008,15,GENERALA,GENERAL APPEARANCE,NORMAL,NORMAL,3.0,RANDOMIZATION,RUN_IN,2024-05-06,1
GB001-2001,PE,GB001-2001-CAN_SITE01-0008,16,HEADANDN,HEAD AND NECK,NORMAL,NORMAL,3.0,RANDOMIZATION,RUN_IN,2024-05-06,1
GB001-2001,PE,GB001-2001-CAN_SITE01-0008,17,MUSCULOS,MUSCULOSKELETAL,NORMAL,NORMAL,3.0,RANDOMIZATION,RUN_IN,2024-05-06,1
GB001-2001,PE,GB001-2001-CAN_SITE01-0008,18,NEUROLOG,NEUROLOGICAL,NORMAL,NORMAL,3.0,RANDOMIZATION,RUN_IN,2024-05-06,1
GB001-2001,PE,GB001-2001-CAN_SITE01-0008,19,RESPIRAT,RESPIRATORY,NORMAL,NORMAL,3.0,RANDOMIZATION,RUN_IN,2024-05-06,1
GB001-2001,PE,GB001-2001-CAN_SITE01-0008,20,SKIN,SKIN,NORMAL,NORMAL,3.0,RANDOMIZATION,RUN_IN,2024-05-06,1
GB001-2001,PE,GB001-2001-CAN_SITE01-0019,1,ABDOMEN,ABDOMEN,NORMAL,NORMAL,1.0,SCREENING,SCREENING,2024-02-12,-29
GB001-2001,PE,GB001-2001-CAN_SITE01-0019,2,CARDIOVA,CARDIOVASCULAR,NORMAL,NORMAL,1.0,SCREENING,SCREENING,2024-02-12,-29
GB001-2001,PE,GB001-2001-CAN_SITE01-0019,3,EARSNOSE,"EARS, NOSE, AND THROAT",NORMAL,NORMAL,1.0,SCREENING,SCREENING,2024-02-12,-29
GB001-2001,PE,GB001-2001-CAN_SITE01-0019,4,EYES,EYES,NORMAL,NORMAL,1.0,SCREENING,SCREENING,2024-02-12,-29
GB001-2001,PE,GB001-2001-CAN_SITE01-0019,5,GENERALA,GENERAL APPEARANCE,NORMAL,NORMAL,1.0,SCREENING,SCREENING,2024-02-12,-29
GB001-2001,PE,GB001-2001-CAN_SITE01-0019,6,HEADANDN,HEAD AND NECK,NORMAL,NORMAL,1.0,SCREENING,SCREENING,2024-02-12,-29
GB001-2001,PE,GB001-2001-CAN_SITE01-0019,7,MUSCULOS,MUSCULOSKELETAL,NORMAL,NORMAL,1.0,SCREENING,SCREENING,2024-02-12,-29
GB001-2001,PE,GB001-2001-CAN_SITE01-0019,8,NEUROLOG,NEUROLOGICAL,NORMAL,NORMAL,1.0,SCREENING,SCREENING,2024-02-12,-29
GB001-2001,PE,GB001-2001-CAN_SITE01-0019,9,RESPIRAT,RESPIRATORY,NORMAL,NORMAL,1.0,SCREENING,SCREENING,2024-02-12,-29
GB001-2001,PE,GB001-2001-CAN_SITE01-0019,10,SKIN,SKIN,NORMAL,NORMAL,1.0,SCREENING,SCREENING,2024-02-12,-29
GB001-2001,PE,GB001-2001-CAN_SITE01-0019,11,ABDOMEN,ABDOMEN,NORMAL,NORMAL,3.0,RANDOMIZATION,RUN_IN,2024-03-12,1
GB001-2001,PE,GB001-2001-CAN_SITE01-0019,12,CARDIOVA,CARDIOVASCULAR,IRREGULAR RHYTHM,IRREGULAR RHYTHM,3.0,RANDOMIZATION,RUN_IN,2024-03-12,1
GB001-2001,PE,GB001-2001-CAN_SITE01-0019,13,EARSNOSE,"EARS, NOSE, AND THROAT",NORMAL,NORMAL,3.0,RANDOMIZATION,RUN_IN,2024-03-12,1
GB001-2001,PE,GB001-2001-CAN_SITE01-0019,14,EYES,EYES,NORMAL,NORMAL,3.0,RANDOMIZATION,RUN_IN,2024-03-12,1
GB001-2001,PE,GB001-2001-CAN_SITE01-0019,15,GENERALA,GENERAL APPEARANCE,NORMAL,NORMAL,3.0,RANDOMIZATION,RUN_IN,2024-03-12,1
GB001-2001,PE,GB001-2001-CAN_SITE01-0019,16,HEADANDN,HEAD AND NECK,NORMAL,NORMAL,3.0,RANDOMIZATION,RUN_IN,2024-03-12,1
GB001-2001,PE,GB001-2001-CAN_SITE01-0019,17,MUSCULOS,MUSCULOSKELETAL,NORMAL,NORMAL,3.0,RANDOMIZATION,RUN_IN,2024-03-12,1
GB001-2001,PE,GB001-2001-CAN_SITE01-0019,18,NEUROLOG,NEUROLOGICAL,NORMAL,NORMAL,3.0,RANDOMIZATION,RUN_IN,2024-03-12,1
GB001-2001,PE,GB001-2001-CAN_SITE01-0019,19,RESPIRAT,RESPIRATORY,NORMAL,NORMAL,3.0,RANDOMIZATION,RUN_IN,2024-03-12,1
GB001-2001,PE,GB001-2001-CAN_SITE01-0019,20,SKIN,SKIN,NORMAL,NORMAL,3.0,RANDOMIZATION,RUN_IN,2024-03-12,1
GB001-2001,PE,GB001-2001-DEU_SITE01-0012,1,ABDOMEN,ABDOMEN,NORMAL,NORMAL,1.0,SCREENING,SCREENING,2024-01-15,-11
GB001-2001,PE,GB001-2001-DEU_SITE01-0012,2,CARDIOVA,CARDIOVASCULAR,NORMAL,NORMAL,1.0,SCREENING,SCREENING,2024-01-15,-11
GB001-2001,PE,GB001-2001-DEU_SITE01-0012,3,EARSNOSE,"EARS, NOSE, AND THROAT",NORMAL,NORMAL,1.0,SCREENING,SCREENING,2024-01-15,-11
GB001-2001,PE,GB001-2001-DEU_SITE01-0012,4,EYES,EYES,NORMAL,NORMAL,1.0,SCREENING,SCREENING,2024-01-15,-11
GB001-2001,PE,GB001-2001-DEU_SITE01-0012,5,GENERALA,GENERAL APPEARANCE,NORMAL,NORMAL,1.0,SCREENING,SCREENING,2024-01-15,-11
GB001-2001,PE,GB001-2001-DEU_SITE01-0012,6,HEADANDN,HEAD AND NECK,NORMAL,NORMAL,1.0,SCREENING,SCREENING,2024-01-15,-11
GB001-2001,PE,GB001-2001-DEU_SITE01-0012,7,MUSCULOS,MUSCULOSKELETAL,NORMAL,NORMAL,1.0,SCREENING,SCREENING,2024-01-15,-11
GB001-2001,PE,GB001-2001-DEU_SITE01-0012,8,NEUROLOG,NEUROLOGICAL,NORMAL,NORMAL,1.0,SCREENING,SCREENING,2024-01-15,-11
GB001-2001,PE,GB001-2001-DEU_SITE01-0012,9,RESPIRAT,RESPIRATORY,NORMAL,NORMAL,1.0,SCREENING,SCREENING,2024-01-15,-11
GB001-2001,PE,GB001-2001-DEU_SITE01-0012,10,SKIN,SKIN,NORMAL,NORMAL,1.0,SCREENING,SCREENING,2024-01-15,-11
GB001-2001,PE,GB001-2001-DEU_SITE01-0012,11,ABDOMEN,ABDOMEN,NORMAL,NORMAL,3.0,RANDOMIZATION,RUN_IN,2024-01-26,1
GB001-2001,PE,GB001-2001-DEU_SITE01-0012,12,CARDIOVA,CARDIOVASCULAR,NORMAL,NORMAL,3.0,RANDOMIZATION,RUN_IN,2024-01-26,1
GB001-2001,PE,GB001-2001-DEU_SITE01-0012,13,EARSNOSE,"EARS, NOSE, AND THROAT",NORMAL,NORMAL,3.0,RANDOMIZATION,RUN_IN,2024-01-26,1
GB001-2001,PE,GB001-2001-DEU_SITE01-0012,14,EYES,EYES,NORMAL,NORMAL,3.0,RANDOMIZATION,RUN_IN,2024-01-26,1
GB001-2001,PE,GB001-2001-DEU_SITE01-0012,15,GENERALA,GENERAL APPEARANCE,NORMAL,NORMAL,3.0,RANDOMIZATION,RUN_IN,2024-01-26,1
GB001-2001,PE,GB001-2001-DEU_SITE01-0012,16,HEADANDN,HEAD AND NECK,NORMAL,NORMAL,3.0,RANDOMIZATION,RUN_IN,2024-01-26,1
GB001-2001,PE,GB001-2001-DEU_SITE01-0012,17,MUSCULOS,MUSCULOSKELETAL,NORMAL,NORMAL,3.0,RANDOMIZATION,RUN_IN,2024-01-26,1
GB001-2001,PE,GB001-2001-DEU_SITE01-0012,18,NEUROLOG,NEUROLOGICAL,NORMAL,NORMAL,3.0,RANDOMIZATION,RUN_IN,2024-01-26,1
GB001-2001,PE,GB001-2001-DEU_SITE01-0012,19,RESPIRAT,RESPIRATORY,NORMAL,NORMAL,3.0,RANDOMIZATION,RUN_IN,2024-01-26,1
GB001-2001,PE,GB001-2001-DEU_SITE01-0012,20,SKIN,SKIN,NORMAL,NORMAL,3.0,RANDOMIZATION,RUN_IN,2024-01-26,1
GB001-2001,PE,GB001-2001-FRA_SITE01-0001,1,ABDOMEN,ABDOMEN,NORMAL,NORMAL,1.0,SCREENING,SCREENING,2024-03-22,-19
GB001-2001,PE,GB001-2001-FRA_SITE01-0001,2,CARDIOVA,CARDIOVASCULAR,NORMAL,NORMAL,1.0,SCREENING,SCREENING,2024-03-22,-19
GB001-2001,PE,GB001-2001-FRA_SITE01-0001,3,EARSNOSE,"EARS, NOSE, AND THROAT",NORMAL,NORMAL,1.0,SCREENING,SCREENING,2024-03-22,-19
GB001-2001,PE,GB001-2001-FRA_SITE01-0001,4,EYES,EYES,NORMAL,NORMAL,1.0,SCREENING,SCREENING,2024-03-22,-19
GB001-2001,PE,GB001-2001-FRA_SITE01-0001,5,GENERALA,GENERAL APPEARANCE,NORMAL,NORMAL,1.0,SCREENING,SCREENING,2024-03-22,-19
GB001-2001,PE,GB001-2001-FRA_SITE01-0001,6,HEADANDN,HEAD AND NECK,NORMAL,NORMAL,1.0,SCREENING,SCREENING,2024-03-22,-19
GB001-2001,PE,GB001-2001-FRA_SITE01-0001,7,MUSCULOS,MUSCULOSKELETAL,NORMAL,NORMAL,1.0,SCREENING,SCREENING,2024-03-22,-19
GB001-2001,PE,GB001-2001-FRA_SITE01-0001,8,NEUROLOG,NEUROLOGICAL,NORMAL,NORMAL,1.0,SCREENING,SCREENING,2024-03-22,-19
GB001-2001,PE,GB001-2001-FRA_SITE01-0001,9,RESPIRAT,RESPIRATORY,NORMAL,NORMAL,1.0,SCREENING,SCREENING,2024-03-22,-19
GB001-2001,PE,GB001-2001-FRA_SITE01-0001,10,SKIN,SKIN,NORMAL,NORMAL,1.0,SCREENING,SCREENING,2024-03-22,-19
GB001-2001,PE,GB001-2001-FRA_SITE01-0001,11,ABDOMEN,ABDOMEN,NORMAL,NORMAL,3.0,RANDOMIZATION,RUN_IN,2024-04-10,1
GB001-2001,PE,GB001-2001-FRA_SITE01-0001,12,CARDIOVA,CARDIOVASCULAR,NORMAL,NORMAL,3.0,RANDOMIZATION,RUN_IN,2024-04-10,1
GB001-2001,PE,GB001-2001-FRA_SITE01-0001,13,EARSNOSE,"EARS, NOSE, AND THROAT",NORMAL,NORMAL,3.0,RANDOMIZATION,RUN_IN,2024-04-10,1
GB001-2001,PE,GB001-2001-FRA_SITE01-0001,14,EYES,EYES,NORMAL,NORMAL,3.0,RANDOMIZATION,RUN_IN,2024-04-10,1
GB001-2001,PE,GB001-2001-FRA_SITE01-0001,15,GENERALA,GENERAL APPEARANCE,NORMAL,NORMAL,3.0,RANDOMIZATION,RUN_IN,2024-04-10,1
GB001-2001,PE,GB001-2001-FRA_SITE01-0001,16,HEADANDN,HEAD AND NECK,NORMAL,NORMAL,3.0,RANDOMIZATION,RUN_IN,2024-04-10,1
GB001-2001,PE,GB001-2001-FRA_SITE01-0001,17,MUSCULOS,MUSCULOSKELETAL,NORMAL,NORMAL,3.0,RANDOMIZATION,RUN_IN,2024-04-10,1
GB001-2001,PE,GB001-2001-FRA_SITE01-0001,18,NEUROLOG,NEUROLOGICAL,NORMAL,NORMAL,3.0,RANDOMIZATION,RUN_IN,2024-04-10,1
GB001-2001,PE,GB001-2001-FRA_SITE01-0001,19,RESPIRAT,RESPIRATORY,NORMAL,NORMAL,3.0,RANDOMIZATION,RUN_IN,2024-04-10,1
GB001-2001,PE,GB001-2001-FRA_SITE01-0001,20,SKIN,SKIN,NORMAL,NORMAL,3.0,RANDOMIZATION,RUN_IN,2024-04-10,1
GB001-2001,PE,GB001-2001-ITA_SITE01-0017,1,ABDOMEN,ABDOMEN,NORMAL,NORMAL,1.0,SCREENING,SCREENING,2024-02-18,-22
GB001-2001,PE,GB001-2001-ITA_SITE01-0017,2,CARDIOVA,CARDIOVASCULAR,NORMAL,NORMAL,1.0,SCREENING,SCREENING,2024-02-18,-22
GB001-2001,PE,GB001-2001-ITA_SITE01-0017,3,EARSNOSE,"EARS, NOSE, AND THROAT",NORMAL,NORMAL,1.0,SCREENING,SCREENING,2024-02-18,-22
GB001-2001,PE,GB001-2001-ITA_SITE01-0017,4,EYES,EYES,NORMAL,NORMAL,1.0,SCREENING,SCREENING,2024-02-18,-22
GB001-2001,PE,GB001-2001-ITA_SITE01-0017,5,GENERALA,GENERAL APPEARANCE,NORMAL,NORMAL,1.0,SCREENING,SCREENING,2024-02-18,-22
GB001-2001,PE,GB001-2001-ITA_SITE01-0017,6,HEADANDN,HEAD AND NECK,NORMAL,NORMAL,1.0,SCREENING,SCREENING,2024-02-18,-22
GB001-2001,PE,GB001-2001-ITA_SITE01-0017,7,MUSCULOS,MUSCULOSKELETAL,NORMAL,NORMAL,1.0,SCREENING,SCREENING,2024-02-18,-22
GB001-2001,PE,GB001-2001-ITA_SITE01-0017,8,NEUROLOG,NEUROLOGICAL,NORMAL,NORMAL,1.0,SCREENING,SCREENING,2024-02-18,-22
GB001-2001,PE,GB001-2001-ITA_SITE01-0017,9,RESPIRAT,RESPIRATORY,NORMAL,NORMAL,1.0,SCREENING,SCREENING,2024-02-18,-22
GB001-2001,PE,GB001-2001-ITA_SITE01-0017,10,SKIN,SKIN,NORMAL,NORMAL,1.0,SCREENING,SCREENING,2024-02-18,-22
GB001-2001,PE,GB001-2001-ITA_SITE01-0017,11,ABDOMEN,ABDOMEN,NORMAL,NORMAL,3.0,RANDOMIZATION,RUN_IN,2024-03-11,1
GB001-2001,PE,GB001-2001-ITA_SITE01-0017,12,CARDIOVA,CARDIOVASCULAR,NORMAL,NORMAL,3.0,RANDOMIZATION,RUN_IN,2024-03-11,1
GB001-2001,PE,GB001-2001-ITA_SITE01-0017,13,EARSNOSE,"EARS, NOSE, AND THROAT",NORMAL,NORMAL,3.0,RANDOMIZATION,RUN_IN,2024-03-11,1
GB001-2001,PE,GB001-2001-ITA_SITE01-0017,14,EYES,EYES,NORMAL,NORMAL,3.0,RANDOMIZATION,RUN_IN,2024-03-11,1
GB001-2001,PE,GB001-2001-ITA_SITE01-0017,15,GENERALA,GENERAL APPEARANCE,NORMAL,NORMAL,3.0,RANDOMIZATION,RUN_IN,2024-03-11,1
GB001-2001,PE,GB001-2001-ITA_SITE01-0017,16,HEADANDN,HEAD AND NECK,NORMAL,NORMAL,3.0,RANDOMIZATION,RUN_IN,2024-03-11,1
GB001-2001,PE,GB001-2001-ITA_SITE01-0017,17,MUSCULOS,MUSCULOSKELETAL,NORMAL,NORMAL,3.0,RANDOMIZATION,RUN_IN,2024-03-11,1
GB001-2001,PE,GB001-2001-ITA_SITE01-0017,18,NEUROLOG,NEUROLOGICAL,NORMAL,NORMAL,3.0,RANDOMIZATION,RUN_IN,2024-03-11,1
GB001-2001,PE,GB001-2001-ITA_SITE01-0017,19,RESPIRAT,RESPIRATORY,NORMAL,NORMAL,3.0,RANDOMIZATION,RUN_IN,2024-03-11,1
GB001-2001,PE,GB001-2001-ITA_SITE01-0017,20,SKIN,SKIN,NORMAL,NORMAL,3.0,RANDOMIZATION,RUN_IN,2024-03-11,1
GB001-2001,PE,GB001-2001-MEX_SITE01-0003,1,ABDOMEN,ABDOMEN,NORMAL,NORMAL,1.0,SCREENING,SCREENING,2024-02-17,-29
GB001-2001,PE,GB001-2001-MEX_SITE01-0003,2,CARDIOVA,CARDIOVASCULAR,NORMAL,NORMAL,1.0,SCREENING,SCREENING,2024-02-17,-29
GB001-2001,PE,GB001-2001-MEX_SITE01-0003,3,EARSNOSE,"EARS, NOSE, AND THROAT",NORMAL,NORMAL,1.0,SCREENING,SCREENING,2024-02-17,-29
GB001-2001,PE,GB001-2001-MEX_SITE01-0003,4,EYES,EYES,NORMAL,NORMAL,1.0,SCREENING,SCREENING,2024-02-17,-29
GB001-2001,PE,GB001-2001-MEX_SITE01-0003,5,GENERALA,GENERAL APPEARANCE,NORMAL,NORMAL,1.0,SCREENING,SCREENING,2024-02-17,-29
GB001-2001,PE,GB001-2001-MEX_SITE01-0003,6,HEADANDN,HEAD AND NECK,NORMAL,NORMAL,1.0,SCREENING,SCREENING,2024-02-17,-29
GB001-2001,PE,GB001-2001-MEX_SITE01-0003,7,MUSCULOS,MUSCULOSKELETAL,NORMAL,NORMAL,1.0,SCREENING,SCREENING,2024-02-17,-29
GB001-2001,PE,GB001-2001-MEX_SITE01-0003,8,NEUROLOG,NEUROLOGICAL,NORMAL,NORMAL,1.0,SCREENING,SCREENING,2024-02-17,-29
GB001-2001,PE,GB001-2001-MEX_SITE01-0003,9,RESPIRAT,RESPIRATORY,WHEEZING,WHEEZING,1.0,SCREENING,SCREENING,2024-02-17,-29
GB001-2001,PE,GB001-2001-MEX_SITE01-0003,10,SKIN,SKIN,NORMAL,NORMAL,1.0,SCREENING,SCREENING,2024-02-17,-29
GB001-2001,PE,GB001-2001-MEX_SITE01-0003,11,ABDOMEN,ABDOMEN,NORMAL,NORMAL,3.0,RANDOMIZATION,RUN_IN,2024-03-17,1
GB001-2001,PE,GB001-2001-MEX_SITE01-0003,12,CARDIOVA,CARDIOVASCULAR,NORMAL,NORMAL,3.0,RANDOMIZATION,RUN_IN,2024-03-17,1
GB001-2001,PE,GB001-2001-MEX_SITE01-0003,13,EARSNOSE,"EARS, NOSE, AND THROAT",NORMAL,NORMAL,3.0,RANDOMIZATION,RUN_IN,2024-03-17,1
GB001-2001,PE,GB001-2001-MEX_SITE01-0003,14,EYES,EYES,NORMAL,NORMAL,3.0,RANDOMIZATION,RUN_IN,2024-03-17,1
GB001-2001,PE,GB001-2001-MEX_SITE01-0003,15,GENERALA,GENERAL APPEARANCE,NORMAL,NORMAL,3.0,RANDOMIZATION,RUN_IN,2024-03-17,1
GB001-2001,PE,GB001-2001-MEX_SITE01-0003,16,HEADANDN,HEAD AND NECK,NORMAL,NORMAL,3.0,RANDOMIZATION,RUN_IN,2024-03-17,1
GB001-2001,PE,GB001-2001-MEX_SITE01-0003,17,MUSCULOS,MUSCULOSKELETAL,NORMAL,NORMAL,3.0,RANDOMIZATION,RUN_IN,2024-03-17,1
GB001-2001,PE,GB001-2001-MEX_SITE01-0003,18,NEUROLOG,NEUROLOGICAL,NORMAL,NORMAL,3.0,RANDOMIZATION,RUN_IN,2024-03-17,1
GB001-2001,PE,GB001-2001-MEX_SITE01-0003,19,RESPIRAT,RESPIRATORY,NORMAL,NORMAL,3.0,RANDOMIZATION,RUN_IN,2024-03-17,1
GB001-2001,PE,GB001-2001-MEX_SITE01-0003,20,SKIN,SKIN,NORMAL,NORMAL,3.0,RANDOMIZATION,RUN_IN,2024-03-17,1
GB001-2001,PE,GB001-2001-MEX_SITE01-0015,1,ABDOMEN,ABDOMEN,NORMAL,NORMAL,1.0,SCREENING,SCREENING,2024-04-06,-24
GB001-2001,PE,GB001-2001-MEX_SITE01-0015,2,CARDIOVA,CARDIOVASCULAR,NORMAL,NORMAL,1.0,SCREENING,SCREENING,2024-04-06,-24
GB001-2001,PE,GB001-2001-MEX_SITE01-0015,3,EARSNOSE,"EARS, NOSE, AND THROAT",NORMAL,NORMAL,1.0,SCREENING,SCREENING,2024-04-06,-24
GB001-2001,PE,GB001-2001-MEX_SITE01-0015,4,EYES,EYES,NORMAL,NORMAL,1.0,SCREENING,SCREENING,2024-04-06,-24
GB001-2001,PE,GB001-2001-MEX_SITE01-0015,5,GENERALA,GENERAL APPEARANCE,NORMAL,NORMAL,1.0,SCREENING,SCREENING,2024-04-06,-24
GB001-2001,PE,GB001-2001-MEX_SITE01-0015,6,HEADANDN,HEAD AND NECK,NORMAL,NORMAL,1.0,SCREENING,SCREENING,2024-04-06,-24
GB001-2001,PE,GB001-2001-MEX_SITE01-0015,7,MUSCULOS,MUSCULOSKELETAL,NORMAL,NORMAL,1.0,SCREENING,SCREENING,2024-04-06,-24
GB001-2001,PE,GB001-2001-MEX_SITE01-0015,8,NEUROLOG,NEUROLOGICAL,NORMAL,NORMAL,1.0,SCREENING,SCREENING,2024-04-06,-24
GB001-2001,PE,GB001-2001-MEX_SITE01-0015,9,RESPIRAT,RESPIRATORY,NORMAL,NORMAL,1.0,SCREENING,SCREENING,2024-04-06,-24
GB001-2001,PE,GB001-2001-MEX_SITE01-0015,10,SKIN,SKIN,NORMAL,NORMAL,1.0,SCREENING,SCREENING,2024-04-06,-24
GB001-2001,PE,GB001-2001-MEX_SITE01-0015,11,ABDOMEN,ABDOMEN,NORMAL,NORMAL,3.0,RANDOMIZATION,RUN_IN,2024-04-30,1
GB001-2001,PE,GB001-2001-MEX_SITE01-0015,12,CARDIOVA,CARDIOVASCULAR,NORMAL,NORMAL,3.0,RANDOMIZATION,RUN_IN,2024-04-30,1
GB001-2001,PE,GB001-2001-MEX_SITE01-0015,13,EARSNOSE,"EARS, NOSE, AND THROAT",NORMAL,NORMAL,3.0,RANDOMIZATION,RUN_IN,2024-04-30,1
GB001-2001,PE,GB001-2001-MEX_SITE01-0015,14,EYES,EYES,NORMAL,NORMAL,3.0,RANDOMIZATION,RUN_IN,2024-04-30,1
GB001-2001,PE,GB001-2001-MEX_SITE01-0015,15,GENERALA,GENERAL APPEARANCE,NORMAL,NORMAL,3.0,RANDOMIZATION,RUN_IN,2024-04-30,1
GB001-2001,PE,GB001-2001-MEX_SITE01-0015,16,HEADANDN,HEAD AND NECK,NORMAL,NORMAL,3.0,RANDOMIZATION,RUN_IN,2024-04-30,1
GB001-2001,PE,GB001-2001-MEX_SITE01-0015,17,MUSCULOS,MUSCULOSKELETAL,NORMAL,NORMAL,3.0,RANDOMIZATION,RUN_IN,2024-04-30,1
GB001-2001,PE,GB001-2001-MEX_SITE01-0015,18,NEUROLOG,NEUROLOGICAL,NORMAL,NORMAL,3.0,RANDOMIZATION,RUN_IN,2024-04-30,1
GB001-2001,PE,GB001-2001-MEX_SITE01-0015,19,RESPIRAT,RESPIRATORY,NORMAL,NORMAL,3.0,RANDOMIZATION,RUN_IN,2024-04-30,1
GB001-2001,PE,GB001-2001-MEX_SITE01-0015,20,SKIN,SKIN,NORMAL,NORMAL,3.0,RANDOMIZATION,RUN_IN,2024-04-30,1
GB001-2001,PE,GB001-2001-POL_SITE01-0002,1,ABDOMEN,ABDOMEN,NORMAL,NORMAL,1.0,SCREENING,SCREENING,2024-03-10,-19
GB001-2001,PE,GB001-2001-POL_SITE01-0002,2,CARDIOVA,CARDIOVASCULAR,NORMAL,NORMAL,1.0,SCREENING,SCREENING,2024-03-10,-19
GB001-2001,PE,GB001-2001-POL_SITE01-0002,3,EARSNOSE,"EARS, NOSE, AND THROAT",NORMAL,NORMAL,1.0,SCREENING,SCREENING,2024-03-10,-19
GB001-2001,PE,GB001-2001-POL_SITE01-0002,4,EYES,EYES,NORMAL,NORMAL,1.0,SCREENING,SCREENING,2024-03-10,-19
GB001-2001,PE,GB001-2001-POL_SITE01-0002,5,GENERALA,GENERAL APPEARANCE,NORMAL,NORMAL,1.0,SCREENING,SCREENING,2024-03-10,-19
GB001-2001,PE,GB001-2001-POL_SITE01-0002,6,HEADANDN,HEAD AND NECK,NORMAL,NORMAL,1.0,SCREENING,SCREENING,2024-03-10,-19
GB001-2001,PE,GB001-2001-POL_SITE01-0002,7,MUSCULOS,MUSCULOSKELETAL,NORMAL,NORMAL,1.0,SCREENING,SCREENING,2024-03-10,-19
GB001-2001,PE,GB001-2001-POL_SITE01-0002,8,NEUROLOG,NEUROLOGICAL,NORMAL,NORMAL,1.0,SCREENING,SCREENING,2024-03-10,-19
GB001-2001,PE,GB001-2001-POL_SITE01-0002,9,RESPIRAT,RESPIRATORY,NORMAL,NORMAL,1.0,SCREENING,SCREENING,2024-03-10,-19
GB001-2001,PE,GB001-2001-POL_SITE01-0002,10,SKIN,SKIN,NORMAL,NORMAL,1.0,SCREENING,SCREENING,2024-03-10,-19
GB001-2001,PE,GB001-2001-POL_SITE01-0002,11,ABDOMEN,ABDOMEN,NORMAL,NORMAL,3.0,RANDOMIZATION,RUN_IN,2024-03-29,1
GB001-2001,PE,GB001-2001-POL_SITE01-0002,12,CARDIOVA,CARDIOVASCULAR,NORMAL,NORMAL,3.0,RANDOMIZATION,RUN_IN,2024-03-29,1
GB001-2001,PE,GB001-2001-POL_SITE01-0002,13,EARSNOSE,"EARS, NOSE, AND THROAT",NORMAL,NORMAL,3.0,RANDOMIZATION,RUN_IN,2024-03-29,1
GB001-2001,PE,GB001-2001-POL_SITE01-0002,14,EYES,EYES,NORMAL,NORMAL,3.0,RANDOMIZATION,RUN_IN,2024-03-29,1
GB001-2001,PE,GB001-2001-POL_SITE01-0002,15,GENERALA,GENERAL APPEARANCE,NORMAL,NORMAL,3.0,RANDOMIZATION,RUN_IN,2024-03-29,1
GB001-2001,PE,GB001-2001-POL_SITE01-0002,16,HEADANDN,HEAD AND NECK,NORMAL,NORMAL,3.0,RANDOMIZATION,RUN_IN,2024-03-29,1
GB001-2001,PE,GB001-2001-POL_SITE01-0002,17,MUSCULOS,MUSCULOSKELETAL,NORMAL,NORMAL,3.0,RANDOMIZATION,RUN_IN,2024-03-29,1
GB001-2001,PE,GB001-2001-POL_SITE01-0002,18,NEUROLOG,NEUROLOGICAL,TREMOR,TREMOR,3.0,RANDOMIZATION,RUN_IN,2024-03-29,1
GB001-2001,PE,GB001-2001-POL_SITE01-0002,19,RESPIRAT,RESPIRATORY,NORMAL,NORMAL,3.0,RANDOMIZATION,RUN_IN,2024-03-29,1
GB001-2001,PE,GB001-2001-POL_SITE01-0002,20,SKIN,SKIN,NORMAL,NORMAL,3.0,RANDOMIZATION,RUN_IN,2024-03-29,1
GB001-2001,PE,GB001-2001-POL_SITE01-0004,1,ABDOMEN,ABDOMEN,NORMAL,NORMAL,1.0,SCREENING,SCREENING,2024-03-18,-31
GB001-2001,PE,GB001-2001-POL_SITE01-0004,2,CARDIOVA,CARDIOVASCULAR,NORMAL,NORMAL,1.0,SCREENING,SCREENING,2024-03-18,-31
GB001-2001,PE,GB001-2001-POL_SITE01-0004,3,EARSNOSE,"EARS, NOSE, AND THROAT",NORMAL,NORMAL,1.0,SCREENING,SCREENING,2024-03-18,-31
GB001-2001,PE,GB001-2001-POL_SITE01-0004,4,EYES,EYES,NORMAL,NORMAL,1.0,SCREENING,SCREENING,2024-03-18,-31
GB001-2001,PE,GB001-2001-POL_SITE01-0004,5,GENERALA,GENERAL APPEARANCE,NORMAL,NORMAL,1.0,SCREENING,SCREENING,2024-03-18,-31
GB001-2001,PE,GB001-2001-POL_SITE01-0004,6,HEADANDN,HEAD AND NECK,NORMAL,NORMAL,1.0,SCREENING,SCREENING,2024-03-18,-31
GB001-2001,PE,GB001-2001-POL_SITE01-0004,7,MUSCULOS,MUSCULOSKELETAL,NORMAL,NORMAL,1.0,SCREENING,SCREENING,2024-03-18,-31
GB001-2001,PE,GB001-2001-POL_SITE01-0004,8,NEUROLOG,NEUROLOGICAL,NORMAL,NORMAL,1.0,SCREENING,SCREENING,2024-03-18,-31
GB001-2001,PE,GB001-2001-POL_SITE01-0004,9,RESPIRAT,RESPIRATORY,NORMAL,NORMAL,1.0,SCREENING,SCREENING,2024-03-18,-31
GB001-2001,PE,GB001-2001-POL_SITE01-0004,10,SKIN,SKIN,NORMAL,NORMAL,1.0,SCREENING,SCREENING,2024-03-18,-31
GB001-2001,PE,GB001-2001-POL_SITE01-0004,11,ABDOMEN,ABDOMEN,NORMAL,NORMAL,3.0,RANDOMIZATION,RUN_IN,2024-04-18,1
GB001-2001,PE,GB001-2001-POL_SITE01-0004,12,CARDIOVA,CARDIOVASCULAR,NORMAL,NORMAL,3.0,RANDOMIZATION,RUN_IN,2024-04-18,1
GB001-2001,PE,GB001-2001-POL_SITE01-0004,13,EARSNOSE,"EARS, NOSE, AND THROAT",NORMAL,NORMAL,3.0,RANDOMIZATION,RUN_IN,2024-04-18,1
GB001-2001,PE,GB001-2001-POL_SITE01-0004,14,EYES,EYES,NORMAL,NORMAL,3.0,RANDOMIZATION,RUN_IN,2024-04-18,1
GB001-2001,PE,GB001-2001-POL_SITE01-0004,15,GENERALA,GENERAL APPEARANCE,NORMAL,NORMAL,3.0,RANDOMIZATION,RUN_IN,2024-04-18,1
GB001-2001,PE,GB001-2001-POL_SITE01-0004,16,HEADANDN,HEAD AND NECK,NORMAL,NORMAL,3.0,RANDOMIZATION,RUN_IN,2024-04-18,1
GB001-2001,PE,GB001-2001-POL_SITE01-0004,17,MUSCULOS,MUSCULOSKELETAL,NORMAL,NORMAL,3.0,RANDOMIZATION,RUN_IN,2024-04-18,1
GB001-2001,PE,GB001-2001-POL_SITE01-0004,18,NEUROLOG,NEUROLOGICAL,NORMAL,NORMAL,3.0,RANDOMIZATION,RUN_IN,2024-04-18,1
GB001-2001,PE,GB001-2001-POL_SITE01-0004,19,RESPIRAT,RESPIRATORY,NORMAL,NORMAL,3.0,RANDOMIZATION,RUN_IN,2024-04-18,1
GB001-2001,PE,GB001-2001-POL_SITE01-0004,20,SKIN,SKIN,NORMAL,NORMAL,3.0,RANDOMIZATION,RUN_IN,2024-04-18,1
GB001-2001,PE,GB001-2001-POL_SITE01-0014,1,ABDOMEN,ABDOMEN,NORMAL,NORMAL,1.0,SCREENING,SCREENING,2024-01-27,-8
GB001-2001,PE,GB001-2001-POL_SITE01-0014,2,CARDIOVA,CARDIOVASCULAR,NORMAL,NORMAL,1.0,SCREENING,SCREENING,2024-01-27,-8
GB001-2001,PE,GB001-2001-POL_SITE01-0014,3,EARSNOSE,"EARS, NOSE, AND THROAT",NORMAL,NORMAL,1.0,SCREENING,SCREENING,2024-01-27,-8
GB001-2001,PE,GB001-2001-POL_SITE01-0014,4,EYES,EYES,NORMAL,NORMAL,1.0,SCREENING,SCREENING,2024-01-27,-8
GB001-2001,PE,GB001-2001-POL_SITE01-0014,5,GENERALA,GENERAL APPEARANCE,NORMAL,NORMAL,1.0,SCREENING,SCREENING,2024-01-27,-8
GB001-2001,PE,GB001-2001-POL_SITE01-0014,6,HEADANDN,HEAD AND NECK,NORMAL,NORMAL,1.0,SCREENING,SCREENING,2024-01-27,-8
GB001-2001,PE,GB001-2001-POL_SITE01-0014,7,MUSCULOS,MUSCULOSKELETAL,NORMAL,NORMAL,1.0,SCREENING,SCREENING,2024-01-27,-8
GB001-2001,PE,GB001-2001-POL_SITE01-0014,8,NEUROLOG,NEUROLOGICAL,TREMOR,TREMOR,1.0,SCREENING,SCREENING,2024-01-27,-8
GB001-2001,PE,GB001-2001-POL_SITE01-0014,9,RESPIRAT,RESPIRATORY,NORMAL,NORMAL,1.0,SCREENING,SCREENING,2024-01-27,-8
GB001-2001,PE,GB001-2001-POL_SITE01-0014,10,SKIN,SKIN,NORMAL,NORMAL,1.0,SCREENING,SCREENING,2024-01-27,-8
GB001-2001,PE,GB001-2001-POL_SITE01-0014,11,ABDOMEN,ABDOMEN,NORMAL,NORMAL,3.0,RANDOMIZATION,RUN_IN,2024-02-04,1
GB001-2001,PE,GB001-2001-POL_SITE01-0014,12,CARDIOVA,CARDIOVASCULAR,NORMAL,NORMAL,3.0,RANDOMIZATION,RUN_IN,2024-02-04,1
GB001-2001,PE,GB001-2001-POL_SITE01-0014,13,EARSNOSE,"EARS, NOSE, AND THROAT",NORMAL,NORMAL,3.0,RANDOMIZATION,RUN_IN,2024-02-04,1
GB001-2001,PE,GB001-2001-POL_SITE01-0014,14,EYES,EYES,NORMAL,NORMAL,3.0,RANDOMIZATION,RUN_IN,2024-02-04,1
GB001-2001,PE,GB001-2001-POL_SITE01-0014,15,GENERALA,GENERAL APPEARANCE,NORMAL,NORMAL,3.0,RANDOMIZATION,RUN_IN,2024-02-04,1
GB001-2001,PE,GB001-2001-POL_SITE01-0014,16,HEADANDN,HEAD AND NECK,NORMAL,NORMAL,3.0,RANDOMIZATION,RUN_IN,2024-02-04,1
GB001-2001,PE,GB001-2001-POL_SITE01-0014,17,MUSCULOS,MUSCULOSKELETAL,NORMAL,NORMAL,3.0,RANDOMIZATION,RUN_IN,2024-02-04,1
GB001-2001,PE,GB001-2001-POL_SITE01-0014,18,NEUROLOG,NEUROLOGICAL,NORMAL,NORMAL,3.0,RANDOMIZATION,RUN_IN,2024-02-04,1
GB001-2001,PE,GB001-2001-POL_SITE01-0014,19,RESPIRAT,RESPIRATORY,NORMAL,NORMAL,3.0,RANDOMIZATION,RUN_IN,2024-02-04,1
GB001-2001,PE,GB001-2001-POL_SITE01-0014,20,SKIN,SKIN,RASH,RASH,3.0,RANDOMIZATION,RUN_IN,2024-02-04,1
GB001-2001,PE,GB001-2001-USA_SITE01-0007,1,ABDOMEN,ABDOMEN,NORMAL,NORMAL,1.0,SCREENING,SCREENING,2024-01-22,-13
GB001-2001,PE,GB001-2001-USA_SITE01-0007,2,CARDIOVA,CARDIOVASCULAR,NORMAL,NORMAL,1.0,SCREENING,SCREENING,2024-01-22,-13
GB001-2001,PE,GB001-2001-USA_SITE01-0007,3,EARSNOSE,"EARS, NOSE, AND THROAT",NORMAL,NORMAL,1.0,SCREENING,SCREENING,2024-01-22,-13
GB001-2001,PE,GB001-2001-USA_SITE01-0007,4,EYES,EYES,NORMAL,NORMAL,1.0,SCREENING,SCREENING,2024-01-22,-13
GB001-2001,PE,GB001-2001-USA_SITE01-0007,5,GENERALA,GENERAL APPEARANCE,NORMAL,NORMAL,1.0,SCREENING,SCREENING,2024-01-22,-13
GB001-2001,PE,GB001-2001-USA_SITE01-0007,6,HEADANDN,HEAD AND NECK,NORMAL,NORMAL,1.0,SCREENING,SCREENING,2024-01-22,-13
GB001-2001,PE,GB001-2001-USA_SITE01-0007,7,MUSCULOS,MUSCULOSKELETAL,NORMAL,NORMAL,1.0,SCREENING,SCREENING,2024-01-22,-13
GB001-2001,PE,GB001-2001-USA_SITE01-0007,8,NEUROLOG,NEUROLOGICAL,NORMAL,NORMAL,1.0,SCREENING,SCREENING,2024-01-22,-13
GB001-2001,PE,GB001-2001-USA_SITE01-0007,9,RESPIRAT,RESPIRATORY,NORMAL,NORMAL,1.0,SCREENING,SCREENING,2024-01-22,-13
GB001-2001,PE,GB001-2001-USA_SITE01-0007,10,SKIN,SKIN,NORMAL,NORMAL,1.0,SCREENING,SCREENING,2024-01-22,-13
GB001-2001,PE,GB001-2001-USA_SITE01-0007,11,ABDOMEN,ABDOMEN,NORMAL,NORMAL,3.0,RANDOMIZATION,RUN_IN,2024-02-04,1
GB001-2001,PE,GB001-2001-USA_SITE01-0007,12,CARDIOVA,CARDIOVASCULAR,NORMAL,NORMAL,3.0,RANDOMIZATION,RUN_IN,2024-02-04,1
GB001-2001,PE,GB001-2001-USA_SITE01-0007,13,EARSNOSE,"EARS, NOSE, AND THROAT",NORMAL,NORMAL,3.0,RANDOMIZATION,RUN_IN,2024-02-04,1
GB001-2001,PE,GB001-2001-USA_SITE01-0007,14,EYES,EYES,NORMAL,NORMAL,3.0,RANDOMIZATION,RUN_IN,2024-02-04,1
GB001-2001,PE,GB001-2001-USA_SITE01-0007,15,GENERALA,GENERAL APPEARANCE,NORMAL,NORMAL,3.0,RANDOMIZATION,RUN_IN,2024-02-04,1
GB001-2001,PE,GB001-2001-USA_SITE01-0007,16,HEADANDN,HEAD AND NECK,NORMAL,NORMAL,3.0,RANDOMIZATION,RUN_IN,2024-02-04,1
GB001-2001,PE,GB001-2001-USA_SITE01-0007,17,MUSCULOS,MUSCULOSKELETAL,JOINT TENDERNESS,JOINT TENDERNESS,3.0,RANDOMIZATION,RUN_IN,2024-02-04,1
GB001-2001,PE,GB001-2001-USA_SITE01-0007,18,NEUROLOG,NEUROLOGICAL,NORMAL,NORMAL,3.0,RANDOMIZATION,RUN_IN,2024-02-04,1
GB001-2001,PE,GB001-2001-USA_SITE01-0007,19,RESPIRAT,RESPIRATORY,NORMAL,NORMAL,3.0,RANDOMIZATION,RUN_IN,2024-02-04,1
GB001-2001,PE,GB001-2001-USA_SITE01-0007,20,SKIN,SKIN,NORMAL,NORMAL,3.0,RANDOMIZATION,RUN_IN,2024-02-04,1
GB001-2001,PE,GB001-2001-USA_SITE01-0009,1,ABDOMEN,ABDOMEN,NORMAL,NORMAL,1.0,SCREENING,SCREENING,2024-03-10,-14
GB001-2001,PE,GB001-2001-USA_SITE01-0009,2,CARDIOVA,CARDIOVASCULAR,NORMAL,NORMAL,1.0,SCREENING,SCREENING,2024-03-10,-14
GB001-2001,PE,GB001-2001-USA_SITE01-0009,3,EARSNOSE,"EARS, NOSE, AND THROAT",NORMAL,NORMAL,1.0,SCREENING,SCREENING,2024-03-10,-14
GB001-2001,PE,GB001-2001-USA_SITE01-0009,4,EYES,EYES,NORMAL,NORMAL,1.0,SCREENING,SCREENING,2024-03-10,-14
GB001-2001,PE,GB001-2001-USA_SITE01-0009,5,GENERALA,GENERAL APPEARANCE,NORMAL,NORMAL,1.0,SCREENING,SCREENING,2024-03-10,-14
GB001-2001,PE,GB001-2001-USA_SITE01-0009,6,HEADANDN,HEAD AND NECK,NORMAL,NORMAL,1.0,SCREENING,SCREENING,2024-03-10,-14
GB001-2001,PE,GB001-2001-USA_SITE01-0009,7,MUSCULOS,MUSCULOSKELETAL,NORMAL,NORMAL,1.0,SCREENING,SCREENING,2024-03-10,-14
GB001-2001,PE,GB001-2001-USA_SITE01-0009,8,NEUROLOG,NEUROLOGICAL,NORMAL,NORMAL,1.0,SCREENING,SCREENING,2024-03-10,-14
GB001-2001,PE,GB001-2001-USA_SITE01-0009,9,RESPIRAT,RESPIRATORY,NORMAL,NORMAL,1.0,SCREENING,SCREENING,2024-03-10,-14
GB001-2001,PE,GB001-2001-USA_SITE01-0009,10,SKIN,SKIN,NORMAL,NORMAL,1.0,SCREENING,SCREENING,2024-03-10,-14
GB001-2001,PE,GB001-2001-USA_SITE01-0009,11,ABDOMEN,ABDOMEN,NORMAL,NORMAL,3.0,RANDOMIZATION,RUN_IN,2024-03-24,1
GB001-2001,PE,GB001-2001-USA_SITE01-0009,12,CARDIOVA,CARDIOVASCULAR,NORMAL,NORMAL,3.0,RANDOMIZATION,RUN_IN,2024-03-24,1
GB001-2001,PE,GB001-2001-USA_SITE01-0009,13,EARSNOSE,"EARS, NOSE, AND THROAT",NORMAL,NORMAL,3.0,RANDOMIZATION,RUN_IN,2024-03-24,1
GB001-2001,PE,GB001-2001-USA_SITE01-0009,14,EYES,EYES,NORMAL,NORMAL,3.0,RANDOMIZATION,RUN_IN,2024-03-24,1
GB001-2001,PE,GB001-2001-USA_SITE01-0009,15,GENERALA,GENERAL APPEARANCE,NORMAL,NORMAL,3.0,RANDOMIZATION,RUN_IN,2024-03-24,1
GB001-2001,PE,GB001-2001-USA_SITE01-0009,16,HEADANDN,HEAD AND NECK,NORMAL,NORMAL,3.0,RANDOMIZATION,RUN_IN,2024-03-24,1
GB001-2001,PE,GB001-2001-USA_SITE01-0009,17,MUSCULOS,MUSCULOSKELETAL,NORMAL,NORMAL,3.0,RANDOMIZATION,RUN_IN,2024-03-24,1
GB001-2001,PE,GB001-2001-USA_SITE01-0009,18,NEUROLOG,NEUROLOGICAL,NORMAL,NORMAL,3.0,RANDOMIZATION,RUN_IN,2024-03-24,1
GB001-2001,PE,GB001-2001-USA_SITE01-0009,19,RESPIRAT,RESPIRATORY,NORMAL,NORMAL,3.0,RANDOMIZATION,RUN_IN,2024-03-24,1
GB001-2001,PE,GB001-2001-USA_SITE01-0009,20,SKIN,SKIN,NORMAL,NORMAL,3.0,RANDOMIZATION,RUN_IN,2024-03-24,1
GB001-2001,PE,GB001-2001-USA_SITE01-0011,1,ABDOMEN,ABDOMEN,NORMAL,NORMAL,1.0,SCREENING,SCREENING,2024-03-31,-13
GB001-2001,PE,GB001-2001-USA_SITE01-0011,2,CARDIOVA,CARDIOVASCULAR,MURMUR,MURMUR,1.0,SCREENING,SCREENING,2024-03-31,-13
GB001-2001,PE,GB001-2001-USA_SITE01-0011,3,EARSNOSE,"EARS, NOSE, AND THROAT",NORMAL,NORMAL,1.0,SCREENING,SCREENING,2024-03-31,-13
GB001-2001,PE,GB001-2001-USA_SITE01-0011,4,EYES,EYES,NORMAL,NORMAL,1.0,SCREENING,SCREENING,2024-03-31,-13
GB001-2001,PE,GB001-2001-USA_SITE01-0011,5,GENERALA,GENERAL APPEARANCE,NORMAL,NORMAL,1.0,SCREENING,SCREENING,2024-03-31,-13
GB001-2001,PE,GB001-2001-USA_SITE01-0011,6,HEADANDN,HEAD AND NECK,NORMAL,NORMAL,1.0,SCREENING,SCREENING,2024-03-31,-13
GB001-2001,PE,GB001-2001-USA_SITE01-0011,7,MUSCULOS,MUSCULOSKELETAL,JOINT SWELLING,JOINT SWELLING,1.0,SCREENING,SCREENING,2024-03-31,-13
GB001-2001,PE,GB001-2001-USA_SITE01-0011,8,NEUROLOG,NEUROLOGICAL,NORMAL,NORMAL,1.0,SCREENING,SCREENING,2024-03-31,-13
GB001-2001,PE,GB001-2001-USA_SITE01-0011,9,RESPIRAT,RESPIRATORY,NORMAL,NORMAL,1.0,SCREENING,SCREENING,2024-03-31,-13
GB001-2001,PE,GB001-2001-USA_SITE01-0011,10,SKIN,SKIN,RASH,RASH,1.0,SCREENING,SCREENING,2024-03-31,-13
GB001-2001,PE,GB001-2001-USA_SITE01-0011,11,ABDOMEN,ABDOMEN,NORMAL,NORMAL,3.0,RANDOMIZATION,RUN_IN,2024-04-13,1
GB001-2001,PE,GB001-2001-USA_SITE01-0011,12,CARDIOVA,CARDIOVASCULAR,NORMAL,NORMAL,3.0,RANDOMIZATION,RUN_IN,2024-04-13,1
GB001-2001,PE,GB001-2001-USA_SITE01-0011,13,EARSNOSE,"EARS, NOSE, AND THROAT",NORMAL,NORMAL,3.0,RANDOMIZATION,RUN_IN,2024-04-13,1
GB001-2001,PE,GB001-2001-USA_SITE01-0011,14,EYES,EYES,NORMAL,NORMAL,3.0,RANDOMIZATION,RUN_IN,2024-04-13,1
GB001-2001,PE,GB001-2001-USA_SITE01-0011,15,GENERALA,GENERAL APPEARANCE,NORMAL,NORMAL,3.0,RANDOMIZATION,RUN_IN,2024-04-13,1
GB001-2001,PE,GB001-2001-USA_SITE01-0011,16,HEADANDN,HEAD AND NECK,NORMAL,NORMAL,3.0,RANDOMIZATION,RUN_IN,2024-04-13,1
GB001-2001,PE,GB001-2001-USA_SITE01-0011,17,MUSCULOS,MUSCULOSKELETAL,NORMAL,NORMAL,3.0,RANDOMIZATION,RUN_IN,2024-04-13,1
GB001-2001,PE,GB001-2001-USA_SITE01-0011,18,NEUROLOG,NEUROLOGICAL,NORMAL,NORMAL,3.0,RANDOMIZATION,RUN_IN,2024-04-13,1
GB001-2001,PE,GB001-2001-USA_SITE01-0011,19,RESPIRAT,RESPIRATORY,NORMAL,NORMAL,3.0,RANDOMIZATION,RUN_IN,2024-04-13,1
GB001-2001,PE,GB001-2001-USA_SITE01-0011,20,SKIN,SKIN,NORMAL,NORMAL,3.0,RANDOMIZATION,RUN_IN,2024-04-13,1
GB001-2001,PE,GB001-2001-USA_SITE01-0013,1,ABDOMEN,ABDOMEN,NORMAL,NORMAL,1.0,SCREENING,SCREENING,2024-03-17,-16
GB001-2001,PE,GB001-2001-USA_SITE01-0013,2,CARDIOVA,CARDIOVASCULAR,NORMAL,NORMAL,1.0,SCREENING,SCREENING,2024-03-17,-16
GB001-2001,PE,GB001-2001-USA_SITE01-0013,3,EARSNOSE,"EARS, NOSE, AND THROAT",NORMAL,NORMAL,1.0,SCREENING,SCREENING,2024-03-17,-16
GB001-2001,PE,GB001-2001-USA_SITE01-0013,4,EYES,EYES,NORMAL,NORMAL,1.0,SCREENING,SCREENING,2024-03-17,-16
GB001-2001,PE,GB001-2001-USA_SITE01-0013,5,GENERALA,GENERAL APPEARANCE,NORMAL,NORMAL,1.0,SCREENING,SCREENING,2024-03-17,-16
GB001-2001,PE,GB001-2001-USA_SITE01-0013,6,HEADANDN,HEAD AND NECK,NORMAL,NORMAL,1.0,SCREENING,SCREENING,2024-03-17,-16
GB001-2001,PE,GB001-2001-USA_SITE01-0013,7,MUSCULOS,MUSCULOSKELETAL,NORMAL,NORMAL,1.0,SCREENING,SCREENING,2024-03-17,-16
GB001-2001,PE,GB001-2001-USA_SITE01-0013,8,NEUROLOG,NEUROLOGICAL,NORMAL,NORMAL,1.0,SCREENING,SCREENING,2024-03-17,-16
GB001-2001,PE,GB001-2001-USA_SITE01-0013,9,RESPIRAT,RESPIRATORY,NORMAL,NORMAL,1.0,SCREENING,SCREENING,2024-03-17,-16
GB001-2001,PE,GB001-2001-USA_SITE01-0013,10,SKIN,SKIN,NORMAL,NORMAL,1.0,SCREENING,SCREENING,2024-03-17,-16
GB001-2001,PE,GB001-2001-USA_SITE01-0013,11,ABDOMEN,ABDOMEN,NORMAL,NORMAL,3.0,RANDOMIZATION,RUN_IN,2024-04-02,1
GB001-2001,PE,GB001-2001-USA_SITE01-0013,12,CARDIOVA,CARDIOVASCULAR,NORMAL,NORMAL,3.0,RANDOMIZATION,RUN_IN,2024-04-02,1
GB001-2001,PE,GB001-2001-USA_SITE01-0013,13,EARSNOSE,"EARS, NOSE, AND THROAT",NORMAL,NORMAL,3.0,RANDOMIZATION,RUN_IN,2024-04-02,1
GB001-2001,PE,GB001-2001-USA_SITE01-0013,14,EYES,EYES,NORMAL,NORMAL,3.0,RANDOMIZATION,RUN_IN,2024-04-02,1
GB001-2001,PE,GB001-2001-USA_SITE01-0013,15,GENERALA,GENERAL APPEARANCE,NORMAL,NORMAL,3.0,RANDOMIZATION,RUN_IN,2024-04-02,1
GB001-2001,PE,GB001-2001-USA_SITE01-0013,16,HEADANDN,HEAD AND NECK,NORMAL,NORMAL,3.0,RANDOMIZATION,RUN_IN,2024-04-02,1
GB001-2001,PE,GB001-2001-USA_SITE01-0013,17,MUSCULOS,MUSCULOSKELETAL,JOINT SWELLING,JOINT SWELLING,3.0,RANDOMIZATION,RUN_IN,2024-04-02,1
GB001-2001,PE,GB001-2001-USA_SITE01-0013,18,NEUROLOG,NEUROLOGICAL,NORMAL,NORMAL,3.0,RANDOMIZATION,RUN_IN,2024-04-02,1
GB001-2001,PE,GB001-2001-USA_SITE01-0013,19,RESPIRAT,RESPIRATORY,NORMAL,NORMAL,3.0,RANDOMIZATION,RUN_IN,2024-04-02,1
GB001-2001,PE,GB001-2001-USA_SITE01-0013,20,SKIN,SKIN,NORMAL,NORMAL,3.0,RANDOMIZATION,RUN_IN,2024-04-02,1
GB001-2001,PE,GB001-2001-USA_SITE03-0005,1,ABDOMEN,ABDOMEN,NORMAL,NORMAL,1.0,SCREENING,SCREENING,2024-03-10,-25
GB001-2001,PE,GB001-2001-USA_SITE03-0005,2,CARDIOVA,CARDIOVASCULAR,NORMAL,NORMAL,1.0,SCREENING,SCREENING,2024-03-10,-25
GB001-2001,PE,GB001-2001-USA_SITE03-0005,3,EARSNOSE,"EARS, NOSE, AND THROAT",NORMAL,NORMAL,1.0,SCREENING,SCREENING,2024-03-10,-25
GB001-2001,PE,GB001-2001-USA_SITE03-0005,4,EYES,EYES,NORMAL,NORMAL,1.0,SCREENING,SCREENING,2024-03-10,-25
GB001-2001,PE,GB001-2001-USA_SITE03-0005,5,GENERALA,GENERAL APPEARANCE,NORMAL,NORMAL,1.0,SCREENING,SCREENING,2024-03-10,-25
GB001-2001,PE,GB001-2001-USA_SITE03-0005,6,HEADANDN,HEAD AND NECK,LYMPHADENOPATHY,LYMPHADENOPATHY,1.0,SCREENING,SCREENING,2024-03-10,-25
GB001-2001,PE,GB001-2001-USA_SITE03-0005,7,MUSCULOS,MUSCULOSKELETAL,NORMAL,NORMAL,1.0,SCREENING,SCREENING,2024-03-10,-25
GB001-2001,PE,GB001-2001-USA_SITE03-0005,8,NEUROLOG,NEUROLOGICAL,NORMAL,NORMAL,1.0,SCREENING,SCREENING,2024-03-10,-25
GB001-2001,PE,GB001-2001-USA_SITE03-0005,9,RESPIRAT,RESPIRATORY,NORMAL,NORMAL,1.0,SCREENING,SCREENING,2024-03-10,-25
GB001-2001,PE,GB001-2001-USA_SITE03-0005,10,SKIN,SKIN,NORMAL,NORMAL,1.0,SCREENING,SCREENING,2024-03-10,-25
GB001-2001,PE,GB001-2001-USA_SITE03-0005,11,ABDOMEN,ABDOMEN,NORMAL,NORMAL,3.0,RANDOMIZATION,RUN_IN,2024-04-04,1
GB001-2001,PE,GB001-2001-USA_SITE03-0005,12,CARDIOVA,CARDIOVASCULAR,NORMAL,NORMAL,3.0,RANDOMIZATION,RUN_IN,2024-04-04,1
GB001-2001,PE,GB001-2001-USA_SITE03-0005,13,EARSNOSE,"EARS, NOSE, AND THROAT",NORMAL,NORMAL,3.0,RANDOMIZATION,RUN_IN,2024-04-04,1
GB001-2001,PE,GB001-2001-USA_SITE03-0005,14,EYES,EYES,NORMAL,NORMAL,3.0,RANDOMIZATION,RUN_IN,2024-04-04,1
GB001-2001,PE,GB001-2001-USA_SITE03-0005,15,GENERALA,GENERAL APPEARANCE,NORMAL,NORMAL,3.0,RANDOMIZATION,RUN_IN,2024-04-04,1
GB001-2001,PE,GB001-2001-USA_SITE03-0005,16,HEADANDN,HEAD AND NECK,NORMAL,NORMAL,3.0,RANDOMIZATION,RUN_IN,2024-04-04,1
GB001-2001,PE,GB001-2001-USA_SITE03-0005,17,MUSCULOS,MUSCULOSKELETAL,NORMAL,NORMAL,3.0,RANDOMIZATION,RUN_IN,2024-04-04,1
GB001-2001,PE,GB001-2001-USA_SITE03-0005,18,NEUROLOG,NEUROLOGICAL,NORMAL,NORMAL,3.0,RANDOMIZATION,RUN_IN,2024-04-04,1
GB001-2001,PE,GB001-2001-USA_SITE03-0005,19,RESPIRAT,RESPIRATORY,NORMAL,NORMAL,3.0,RANDOMIZATION,RUN_IN,2024-04-04,1
GB001-2001,PE,GB001-2001-USA_SITE03-0005,20,SKIN,SKIN,NORMAL,NORMAL,3.0,RANDOMIZATION,RUN_IN,2024-04-04,1
GB001-2001,PE,GB001-2001-USA_SITE04-0016,1,ABDOMEN,ABDOMEN,NORMAL,NORMAL,1.0,SCREENING,SCREENING,2024-01-19,-15
GB001-2001,PE,GB001-2001-USA_SITE04-0016,2,CARDIOVA,CARDIOVASCULAR,NORMAL,NORMAL,1.0,SCREENING,SCREENING,2024-01-19,-15
GB001-2001,PE,GB001-2001-USA_SITE04-0016,3,EARSNOSE,"EARS, NOSE, AND THROAT",NORMAL,NORMAL,1.0,SCREENING,SCREENING,2024-01-19,-15
GB001-2001,PE,GB001-2001-USA_SITE04-0016,4,EYES,EYES,NORMAL,NORMAL,1.0,SCREENING,SCREENING,2024-01-19,-15
GB001-2001,PE,GB001-2001-USA_SITE04-0016,5,GENERALA,GENERAL APPEARANCE,NORMAL,NORMAL,1.0,SCREENING,SCREENING,2024-01-19,-15
GB001-2001,PE,GB001-2001-USA_SITE04-0016,6,HEADANDN,HEAD AND NECK,NORMAL,NORMAL,1.0,SCREENING,SCREENING,2024-01-19,-15
GB001-2001,PE,GB001-2001-USA_SITE04-0016,7,MUSCULOS,MUSCULOSKELETAL,NORMAL,NORMAL,1.0,SCREENING,SCREENING,2024-01-19,-15
GB001-2001,PE,GB001-2001-USA_SITE04-0016,8,NEUROLOG,NEUROLOGICAL,NORMAL,NORMAL,1.0,SCREENING,SCREENING,2024-01-19,-15
GB001-2001,PE,GB001-2001-USA_SITE04-0016,9,RESPIRAT,RESPIRATORY,NORMAL,NORMAL,1.0,SCREENING,SCREENING,2024-01-19,-15
GB001-2001,PE,GB001-2001-USA_SITE04-0016,10,SKIN,SKIN,NORMAL,NORMAL,1.0,SCREENING,SCREENING,2024-01-19,-15
GB001-2001,PE,GB001-2001-USA_SITE04-0016,11,ABDOMEN,ABDOMEN,NORMAL,NORMAL,3.0,RANDOMIZATION,RUN_IN,2024-02-03,1
GB001-2001,PE,GB001-2001-USA_SITE04-0016,12,CARDIOVA,CARDIOVASCULAR,NORMAL,NORMAL,3.0,RANDOMIZATION,RUN_IN,2024-02-03,1
GB001-2001,PE,GB001-2001-USA_SITE04-0016,13,EARSNOSE,"EARS, NOSE, AND THROAT",NORMAL,NORMAL,3.0,RANDOMIZATION,RUN_IN,2024-02-03,1
GB001-2001,PE,GB001-2001-USA_SITE04-0016,14,EYES,EYES,NORMAL,NORMAL,3.0,RANDOMIZATION,RUN_IN,2024-02-03,1
GB001-2001,PE,GB001-2001-USA_SITE04-0016,15,GENERALA,GENERAL APPEARANCE,NORMAL,NORMAL,3.0,RANDOMIZATION,RUN_IN,2024-02-03,1
GB001-2001,PE,GB001-2001-USA_SITE04-0016,16,HEADANDN,HEAD AND NECK,NORMAL,NORMAL,3.0,RANDOMIZATION,RUN_IN,2024-02-03,1
GB001-2001,PE,GB001-2001-USA_SITE04-0016,17,MUSCULOS,MUSCULOSKELETAL,NORMAL,NORMAL,3.0,RANDOMIZATION,RUN_IN,2024-02-03,1
GB001-2001,PE,GB001-2001-USA_SITE04-0016,18,NEUROLOG,NEUROLOGICAL,NORMAL,NORMAL,3.0,RANDOMIZATION,RUN_IN,2024-02-03,1
GB001-2001,PE,GB001-2001-USA_SITE04-0016,19,RESPIRAT,RESPIRATORY,NORMAL,NORMAL,3.0,RANDOMIZATION,RUN_IN,2024-02-03,1
GB001-2001,PE,GB001-2001-USA_SITE04-0016,20,SKIN,SKIN,NORMAL,NORMAL,3.0,RANDOMIZATION,RUN_IN,2024-02-03,1
GB001-2001,PE,GB001-2001-USA_SITE04-0018,1,ABDOMEN,ABDOMEN,NORMAL,NORMAL,1.0,SCREENING,SCREENING,2024-01-26,-9
GB001-2001,PE,GB001-2001-USA_SITE04-0018,2,CARDIOVA,CARDIOVASCULAR,NORMAL,NORMAL,1.0,SCREENING,SCREENING,2024-01-26,-9
GB001-2001,PE,GB001-2001-USA_SITE04-0018,3,EARSNOSE,"EARS, NOSE, AND THROAT",NORMAL,NORMAL,1.0,SCREENING,SCREENING,2024-01-26,-9
GB001-2001,PE,GB001-2001-USA_SITE04-0018,4,EYES,EYES,NORMAL,NORMAL,1.0,SCREENING,SCREENING,2024-01-26,-9
GB001-2001,PE,GB001-2001-USA_SITE04-0018,5,GENERALA,GENERAL APPEARANCE,NORMAL,NORMAL,1.0,SCREENING,SCREENING,2024-01-26,-9
GB001-2001,PE,GB001-2001-USA_SITE04-0018,6,HEADANDN,HEAD AND NECK,NORMAL,NORMAL,1.0,SCREENING,SCREENING,2024-01-26,-9
GB001-2001,PE,GB001-2001-USA_SITE04-0018,7,MUSCULOS,MUSCULOSKELETAL,NORMAL,NORMAL,1.0,SCREENING,SCREENING,2024-01-26,-9
GB001-2001,PE,GB001-2001-USA_SITE04-0018,8,NEUROLOG,NEUROLOGICAL,NORMAL,NORMAL,1.0,SCREENING,SCREENING,2024-01-26,-9
GB001-2001,PE,GB001-2001-USA_SITE04-0018,9,RESPIRAT,RESPIRATORY,NORMAL,NORMAL,1.0,SCREENING,SCREENING,2024-01-26,-9
GB001-2001,PE,GB001-2001-USA_SITE04-0018,10,SKIN,SKIN,NORMAL,NORMAL,1.0,SCREENING,SCREENING,2024-01-26,-9
GB001-2001,PE,GB001-2001-USA_SITE04-0018,11,ABDOMEN,ABDOMEN,NORMAL,NORMAL,3.0,RANDOMIZATION,RUN_IN,2024-02-04,1
GB001-2001,PE,GB001-2001-USA_SITE04-0018,12,CARDIOVA,CARDIOVASCULAR,NORMAL,NORMAL,3.0,RANDOMIZATION,RUN_IN,2024-02-04,1
GB001-2001,PE,GB001-2001-USA_SITE04-0018,13,EARSNOSE,"EARS, NOSE, AND THROAT",NORMAL,NORMAL,3.0,RANDOMIZATION,RUN_IN,2024-02-04,1
GB001-2001,PE,GB001-2001-USA_SITE04-0018,14,EYES,EYES,NORMAL,NORMAL,3.0,RANDOMIZATION,RUN_IN,2024-02-04,1
GB001-2001,PE,GB001-2001-USA_SITE04-0018,15,GENERALA,GENERAL APPEARANCE,NORMAL,NORMAL,3.0,RANDOMIZATION,RUN_IN,2024-02-04,1
GB001-2001,PE,GB001-2001-USA_SITE04-0018,16,HEADANDN,HEAD AND NECK,NORMAL,NORMAL,3.0,RANDOMIZATION,RUN_IN,2024-02-04,1
GB001-2001,PE,GB001-2001-USA_SITE04-0018,17,MUSCULOS,MUSCULOSKELETAL,NORMAL,NORMAL,3.0,RANDOMIZATION,RUN_IN,2024-02-04,1
GB001-2001,PE,GB001-2001-USA_SITE04-0018,18,NEUROLOG,NEUROLOGICAL,TREMOR,TREMOR,3.0,RANDOMIZATION,RUN_IN,2024-02-04,1
GB001-2001,PE,GB001-2001-USA_SITE04-0018,19,RESPIRAT,RESPIRATORY,NORMAL,NORMAL,3.0,RANDOMIZATION,RUN_IN,2024-02-04,1
GB001-2001,PE,GB001-2001-USA_SITE04-0018,20,SKIN,SKIN,NORMAL,NORMAL,3.0,RANDOMIZATION,RUN_IN,2024-02-04,1
GB001-2001,PE,GB001-2001-USA_SITE04-0020,1,ABDOMEN,ABDOMEN,NORMAL,NORMAL,1.0,SCREENING,SCREENING,2024-01-28,-33
GB001-2001,PE,GB001-2001-USA_SITE04-0020,2,CARDIOVA,CARDIOVASCULAR,NORMAL,NORMAL,1.0,SCREENING,SCREENING,2024-01-28,-33
GB001-2001,PE,GB001-2001-USA_SITE04-0020,3,EARSNOSE,"EARS, NOSE, AND THROAT",NORMAL,NORMAL,1.0,SCREENING,SCREENING,2024-01-28,-33
GB001-2001,PE,GB001-2001-USA_SITE04-0020,4,EYES,EYES,NORMAL,NORMAL,1.0,SCREENING,SCREENING,2024-01-28,-33
GB001-2001,PE,GB001-2001-USA_SITE04-0020,5,GENERALA,GENERAL APPEARANCE,NORMAL,NORMAL,1.0,SCREENING,SCREENING,2024-01-28,-33
GB001-2001,PE,GB001-2001-USA_SITE04-0020,6,HEADANDN,HEAD AND NECK,NORMAL,NORMAL,1.0,SCREENING,SCREENING,2024-01-28,-33
GB001-2001,PE,GB001-2001-USA_SITE04-0020,7,MUSCULOS,MUSCULOSKELETAL,NORMAL,NORMAL,1.0,SCREENING,SCREENING,2024-01-28,-33
GB001-2001,PE,GB001-2001-USA_SITE04-0020,8,NEUROLOG,NEUROLOGICAL,NORMAL,NORMAL,1.0,SCREENING,SCREENING,2024-01-28,-33
GB001-2001,PE,GB001-2001-USA_SITE04-0020,9,RESPIRAT,RESPIRATORY,NORMAL,NORMAL,1.0,SCREENING,SCREENING,2024-01-28,-33
GB001-2001,PE,GB001-2001-USA_SITE04-0020,10,SKIN,SKIN,RASH,RASH,1.0,SCREENING,SCREENING,2024-01-28,-33
GB001-2001,PE,GB001-2001-USA_SITE04-0020,11,ABDOMEN,ABDOMEN,NORMAL,NORMAL,3.0,RANDOMIZATION,RUN_IN,2024-03-01,1
GB001-2001,PE,GB001-2001-USA_SITE04-0020,12,CARDIOVA,CARDIOVASCULAR,NORMAL,NORMAL,3.0,RANDOMIZATION,RUN_IN,2024-03-01,1
GB001-2001,PE,GB001-2001-USA_SITE04-0020,13,EARSNOSE,"EARS, NOSE, AND THROAT",NORMAL,NORMAL,3.0,RANDOMIZATION,RUN_IN,2024-03-01,1
GB001-2001,PE,GB001-2001-USA_SITE04-0020,14,EYES,EYES,NORMAL,NORMAL,3.0,RANDOMIZATION,RUN_IN,2024-03-01,1
GB001-2001,PE,GB001-2001-USA_SITE04-0020,15,GENERALA,GENERAL APPEARANCE,NORMAL,NORMAL,3.0,RANDOMIZATION,RUN_IN,2024-03-01,1
GB001-2001,PE,GB001-2001-USA_SITE04-0020,16,HEADANDN,HEAD AND NECK,NORMAL,NORMAL,3.0,RANDOMIZATION,RUN_IN,2024-03-01,1
GB001-2001,PE,GB001-2001-USA_SITE04-0020,17,MUSCULOS,MUSCULOSKELETAL,NORMAL,NORMAL,3.0,RANDOMIZATION,RUN_IN,2024-03-01,1
GB001-2001,PE,GB001-2001-USA_SITE04-0020,18,NEUROLOG,NEUROLOGICAL,NORMAL,NORMAL,3.0,RANDOMIZATION,RUN_IN,2024-03-01,1
GB001-2001,PE,GB001-2001-USA_SITE04-0020,19,RESPIRAT,RESPIRATORY,NORMAL,NORMAL,3.0,RANDOMIZATION,RUN_IN,2024-03-01,1
GB001-2001,PE,GB001-2001-USA_SITE04-0020,20,SKIN,SKIN,NORMAL,NORMAL,3.0,RANDOMIZATION,RUN_IN,2024-03-01,1
