STUDYID,DOMAIN,USUBJID,SUSEQ,SUTRT,SUDECOD,SUCAT,SUSCAT,SUPRESP,SUOCCUR,SUSTAT,SUDOSE,SUDOSU,SUDOSFRQ,EPOCH,SUSTDTC,SUENDTC,SUSTDY,SUENDY,SUENRF
GB001-2001,SU,GB001-2001-ARG_SITE01-0006,1,BEER/WINE/SPIRITS,ETHANOL,ALCOHOL,,Y,Y,,11.0,DRINKS/WEEK,QW,SCREENING,2000-03-15,,-8777,,ONGOING
GB001-2001,SU,GB001-2001-ARG_SITE01-0006,2,COFFEE,COFFEE,CAFFEINE,,Y,Y,,3.0,CUPS/DAY,QD,SCREENING,1998-03-16,,-9507,,ONGOING
GB001-2001,SU,GB001-2001-ARG_SITE01-0006,3,CIGARETTES,CIGARETTES,TOBACCO,,Y,N,,,,,SCREENING,,,,,
GB001-2001,SU,GB001-2001-CAN_SITE01-0008,1,BEER/WINE/SPIRITS,ETHANOL,ALCOHOL,,Y,Y,,,,,SCREENING,1995-04-18,2004-04-15,-10611,-7326,
GB001-2001,SU,GB001-2001-CAN_SITE01-0008,2,COFFEE,COFFEE,CAFFEINE,,Y,Y,,,,,SCREENING,1996-04-17,1997-04-17,-10246,-9881,
GB001-2001,SU,GB001-2001-CAN_SITE01-0008,3,CIGARETTES,CIGARETTES,TOBACCO,,Y,Y,,,,,SCREENING,2007-04-15,2008-04-14,-6231,-5866,
GB001-2001,SU,GB001-2001-CAN_SITE01-0019,1,BEER/WINE/SPIRITS,ETHANOL,ALCOHOL,,Y,Y,,,,,SCREENING,1997-02-18,2005-02-16,-9884,-6964,
GB001-2001,SU,GB001-2001-CAN_SITE01-0019,2,COFFEE,COFFEE,CAFFEINE,,Y,Y,,4.0,CUPS/DAY,QD,SCREENING,1998-02-18,,-9519,,ONGOING
GB001-2001,SU,GB001-2001-CAN_SITE01-0019,3,CIGARETTES,CIGARETTES,TOBACCO,,Y,N,,,,,SCREENING,,,,,
GB001-2001,SU,GB001-2001-DEU_SITE01-0012,1,BEER/WINE/SPIRITS,ETHANOL,ALCOHOL,,Y,Y,,7.0,DRINKS/WEEK,QW,SCREENING,2006-01-19,,-6581,,ONGOING
GB001-2001,SU,GB001-2001-DEU_SITE01-0012,2,COFFEE,COFFEE,CAFFEINE,,Y,Y,,1.0,CUPS/DAY,QD,SCREENING,2007-01-19,,-6216,,ONGOING
GB001-2001,SU,GB001-2001-DEU_SITE01-0012,3,CIGARETTES,CIGARETTES,TOBACCO,,Y,N,,,,,SCREENING,,,,,
GB001-2001,SU,GB001-2001-FRA_SITE01-0001,1,BEER/WINE/SPIRITS,ETHANOL,ALCOHOL,,Y,Y,,13.0,DRINKS/WEEK,QW,SCREENING,2019-03-24,,-1844,,ONGOING
GB001-2001,SU,GB001-2001-FRA_SITE01-0001,2,COFFEE,COFFEE,CAFFEINE,,Y,Y,,5.0,CUPS/DAY,QD,SCREENING,2006-03-27,,-6589,,ONGOING
GB001-2001,SU,GB001-2001-FRA_SITE01-0001,3,CIGARETTES,CIGARETTES,TOBACCO,,Y,N,,,,,SCREENING,,,,,
GB001-2001,SU,GB001-2001-ITA_SITE01-0017,1,BEER/WINE/SPIRITS,ETHANOL,ALCOHOL,,Y,Y,,3.0,DRINKS/WEEK,QW,SCREENING,1997-02-24,,-9877,,ONGOING
GB001-2001,SU,GB001-2001-ITA_SITE01-0017,2,COFFEE,COFFEE,CAFFEINE,,Y,N,,,,,SCREENING,,,,,
GB001-2001,SU,GB001-2001-ITA_SITE01-0017,3,CIGARETTES,CIGARETTES,TOBACCO,,Y,N,,,,,SCREENING,,,,,
GB001-2001,SU,GB001-2001-MEX_SITE01-0003,1,BEER/WINE/SPIRITS,ETHANOL,ALCOHOL,,Y,N,,,,,SCREENING,,,,,
GB001-2001,SU,GB001-2001-MEX_SITE01-0003,2,COFFEE,COFFEE,CAFFEINE,,Y,Y,,4.0,CUPS/DAY,QD,SCREENING,2017-02-18,,-2584,,ONGOING
GB001-2001,SU,GB001-2001-MEX_SITE01-0003,3,CIGARETTES,CIGARETTES,TOBACCO,,Y,Y,,,,,SCREENING,2001-02-22,2003-02-22,-8424,-7694,
GB001-2001,SU,GB001-2001-MEX_SITE01-0015,1,BEER/WINE/SPIRITS,ETHANOL,ALCOHOL,,Y,Y,,,,,SCREENING,1998-04-13,2017-04-08,-9514,-2579,
GB001-2001,SU,GB001-2001-MEX_SITE01-0015,2,COFFEE,COFFEE,CAFFEINE,,Y,Y,,3.0,CUPS/DAY,QD,SCREENING,2005-04-11,,-6959,,ONGOING
GB001-2001,SU,GB001-2001-MEX_SITE01-0015,3,CIGARETTES,CIGARETTES,TOBACCO,,Y,N,,,,,SCREENING,,,,,
GB001-2001,SU,GB001-2001-POL_SITE01-0002,1,BEER/WINE/SPIRITS,ETHANOL,ALCOHOL,,Y,N,,,,,SCREENING,,,,,
GB001-2001,SU,GB001-2001-POL_SITE01-0002,2,COFFEE,COFFEE,CAFFEINE,,Y,Y,,1.0,CUPS/DAY,QD,SCREENING,2012-03-13,,-4399,,ONGOING
GB001-2001,SU,GB001-2001-POL_SITE01-0002,3,CIGARETTES,CIGARETTES,TOBACCO,,Y,N,,,,,SCREENING,,,,,
GB001-2001,SU,GB001-2001-POL_SITE01-0004,1,BEER/WINE/SPIRITS,ETHANOL,ALCOHOL,,Y,Y,,4.0,DRINKS/WEEK,QW,SCREENING,2009-03-22,,-5506,,ONGOING
GB001-2001,SU,GB001-2001-POL_SITE01-0004,2,COFFEE,COFFEE,CAFFEINE,,Y,Y,,1.0,CUPS/DAY,QD,SCREENING,1995-03-26,,-10616,,ONGOING
GB001-2001,SU,GB001-2001-POL_SITE01-0004,3,CIGARETTES,CIGARETTES,TOBACCO,,Y,Y,,,,,SCREENING,2009-03-22,2010-03-22,-5506,-5141,
GB001-2001,SU,GB001-2001-POL_SITE01-0014,1,BEER/WINE/SPIRITS,ETHANOL,ALCOHOL,,Y,Y,,10.0,DRINKS/WEEK,QW,SCREENING,2003-02-01,,-7673,,ONGOING
GB001-2001,SU,GB001-2001-POL_SITE01-0014,2,COFFEE,COFFEE,CAFFEINE,,Y,Y,,1.0,CUPS/DAY,QD,SCREENING,2010-01-30,,-5118,,ONGOING
GB001-2001,SU,GB001-2001-POL_SITE01-0014,3,CIGARETTES,CIGARETTES,TOBACCO,,Y,Y,,,,,SCREENING,2010-01-30,2013-01-29,-5118,-4023,
GB001-2001,SU,GB001-2001-USA_SITE01-0007,1,BEER/WINE/SPIRITS,ETHANOL,ALCOHOL,,Y,Y,,,,,SCREENING,2010-01-25,2023-01-22,-5123,-378,
GB001-2001,SU,GB001-2001-USA_SITE01-0007,2,COFFEE,COFFEE,CAFFEINE,,Y,Y,,4.0,CUPS/DAY,QD,SCREENING,2021-01-22,,-1108,,ONGOING
GB001-2001,SU,GB001-2001-USA_SITE01-0007,3,CIGARETTES,CIGARETTES,TOBACCO,,Y,N,,,,,SCREENING,,,,,
GB001-2001,SU,GB001-2001-USA_SITE01-0009,1,BEER/WINE/SPIRITS,ETHANOL,ALCOHOL,,Y,N,,,,,SCREENING,,,,,
GB001-2001,SU,GB001-2001-USA_SITE01-0009,2,COFFEE,COFFEE,CAFFEINE,,Y,Y,,4.0,CUPS/DAY,QD,SCREENING,1995-03-18,,-10599,,ONGOING
GB001-2001,SU,GB001-2001-USA_SITE01-0009,3,CIGARETTES,CIGARETTES,TOBACCO,,Y,N,,,,,SCREENING,,,,,
GB001-2001,SU,GB001-2001-USA_SITE01-0011,1,BEER/WINE/SPIRITS,ETHANOL,ALCOHOL,,Y,Y,,,,,SCREENING,1997-04-07,2021-04-01,-9868,-1108,
GB001-2001,SU,GB001-2001-USA_SITE01-0011,2,COFFEE,COFFEE,CAFFEINE,,Y,N,,,,,SCREENING,,,,,
GB001-2001,SU,GB001-2001-USA_SITE01-0011,3,CIGARETTES,CIGARETTES,TOBACCO,,Y,N,,,,,SCREENING,,,,,
GB001-2001,SU,GB001-2001-USA_SITE01-0013,1,BEER/WINE/SPIRITS,ETHANOL,ALCOHOL,,Y,Y,,4.0,DRINKS/WEEK,QW,SCREENING,2022-03-18,,-746,,ONGOING
GB001-2001,SU,GB001-2001-USA_SITE01-0013,2,COFFEE,COFFEE,CAFFEINE,,Y,Y,,4.0,CUPS/DAY,QD,SCREENING,1996-03-24,,-10236,,ONGOING
GB001-2001,SU,GB001-2001-USA_SITE01-0013,3,CIGARETTES,CIGARETTES,TOBACCO,,Y,N,,,,,SCREENING,,,,,
GB001-2001,SU,GB001-2001-USA_SITE03-0005,1,BEER/WINE/SPIRITS,ETHANOL,ALCOHOL,,Y,N,,,,,SCREENING,,,,,
GB001-2001,SU,GB001-2001-USA_SITE03-0005,2,COFFEE,COFFEE,CAFFEINE,,Y,Y,,5.0,CUPS/DAY,QD,SCREENING,2002-03-16,,-8055,,ONGOING
GB001-2001,SU,GB001-2001-USA_SITE03-0005,3,CIGARETTES,CIGARETTES,TOBACCO,,Y,Y,,19.0,CIGARETTES/DAY,QD,SCREENING,2006-03-15,,-6595,,ONGOING
GB001-2001,SU,GB001-2001-USA_SITE04-0016,1,BEER/WINE/SPIRITS,ETHANOL,ALCOHOL,,Y,Y,,8.0,DRINKS/WEEK,QW,SCREENING,1998-01-25,,-9505,,ONGOING
GB001-2001,SU,GB001-2001-USA_SITE04-0016,2,COFFEE,COFFEE,CAFFEINE,,Y,Y,,2.0,CUPS/DAY,QD,SCREENING,2018-01-20,,-2205,,ONGOING
GB001-2001,SU,GB001-2001-USA_SITE04-0016,3,CIGARETTES,CIGARETTES,TOBACCO,,Y,Y,,,,,SCREENING,1998-01-25,2009-01-22,-9505,-5490,
GB001-2001,SU,GB001-2001-USA_SITE04-0018,1,BEER/WINE/SPIRITS,ETHANOL,ALCOHOL,,Y,N,,,,,SCREENING,,,,,
GB001-2001,SU,GB001-2001-USA_SITE04-0018,2,COFFEE,COFFEE,CAFFEINE,,Y,N,,,,,SCREENING,,,,,
GB001-2001,SU,GB001-2001-USA_SITE04-0018,3,CIGARETTES,CIGARETTES,TOBACCO,,Y,N,,,,,SCREENING,,,,,
GB001-2001,SU,GB001-2001-USA_SITE04-0020,1,BEER/WINE/SPIRITS,ETHANOL,ALCOHOL,,Y,Y,,11.0,DRINKS/WEEK,QW,SCREENING,2015-01-30,,-3318,,ONGOING
GB001-2001,SU,GB001-2001-USA_SITE04-0020,2,COFFEE,COFFEE,CAFFEINE,,Y,Y,,5.0,CUPS/DAY,QD,SCREENING,1995-02-04,,-10618,,ONGOING
GB001-2001,SU,GB001-2001-USA_SITE04-0020,3,CIGARETTES,CIGARETTES,TOBACCO,,Y,N,,,,,SCREENING,,,,,
