{"subject_id":"021IGAN17001-ITA_SITE01-0016","study_id":"021IGAN17001","generated_at":"2026-07-07T06:18:35.915367+00:00","sdtmig_version":"3.4","flags":{"has_serious_ae":true,"has_fatal_ae":false,"has_protocol_deviation":true,"n_protocol_deviations":66,"n_adverse_events":26,"n_concomitant_meds":16,"max_ae_severity":"SEVERE","screen_failure":false,"discontinued_early":false,"discontinuation_reason":null,"death":false,"exposure_days":325},"timeline":[{"dtc":"2006-04-04","dy":"-6582","event":"CM START: LOSARTAN","domain":"CM","category":"concomitant_med"},{"dtc":"2024-02-05","dy":"-66","event":"VISIT: SCREENING","domain":"SV","category":"visit"},{"dtc":"2024-03-30","dy":"-12","event":"INFORMED CONSENT OBTAINED","domain":"DS","category":"milestone"},{"dtc":"2024-04-11","dy":"1","event":"RANDOMIZED","domain":"DS","category":"milestone"},{"dtc":"2024-04-11","dy":"1","event":"AE: Hypotension (SEVERE) [SERIOUS]","domain":"AE","category":"adverse_event"},{"dtc":"2024-04-11","dy":"1","event":"VISIT: BASELINE","domain":"SV","category":"visit"},{"dtc":"2024-04-16","dy":"6","event":"DEVIATION: MISSED DOSE","domain":"DV","category":"deviation"},{"dtc":"2024-04-28","dy":"18","event":"VISIT: WEEK 2","domain":"SV","category":"visit"},{"dtc":"2024-04-29","dy":"19","event":"DEVIATION: MISSED DOSE","domain":"DV","category":"deviation"},{"dtc":"2024-05-03","dy":"23","event":"DEVIATION: MISSED DOSE","domain":"DV","category":"deviation"},{"dtc":"2024-05-07","dy":"27","event":"DEVIATION: VISIT OCCURRED OUTSIDE VISIT WINDOW","domain":"DV","category":"deviation"},{"dtc":"2024-05-07","dy":"27","event":"VISIT: WEEK 4","domain":"SV","category":"visit"},{"dtc":"2024-05-15","dy":"35","event":"AE: Anaemia (MODERATE)","domain":"AE","category":"adverse_event"},{"dtc":"2024-05-16","dy":"36","event":"AE: Dizziness (MODERATE)","domain":"AE","category":"adverse_event"},{"dtc":"2024-05-16","dy":"36","event":"CM START: MECLIZINE","domain":"CM","category":"concomitant_med"},{"dtc":"2024-05-19","dy":"39","event":"DEVIATION: MISSED DOSE","domain":"DV","category":"deviation"},{"dtc":"2024-05-21","dy":"41","event":"AE: Blood creatinine increased (MODERATE)","domain":"AE","category":"adverse_event"},{"dtc":"2024-05-21","dy":"41","event":"CM START: PARACETAMOL","domain":"CM","category":"concomitant_med"},{"dtc":"2024-05-29","dy":"49","event":"DEVIATION: MISSED DOSE","domain":"DV","category":"deviation"},{"dtc":"2024-05-31","dy":"51","event":"DEVIATION: MISSED DOSE","domain":"DV","category":"deviation"},{"dtc":"2024-06-02","dy":"53","event":"DEVIATION: MISSED DOSE","domain":"DV","category":"deviation"},{"dtc":"2024-06-03","dy":"54","event":"DEVIATION: VISIT OCCURRED OUTSIDE VISIT WINDOW","domain":"DV","category":"deviation"},{"dtc":"2024-06-03","dy":"54","event":"VISIT: WEEK 8","domain":"SV","category":"visit"},{"dtc":"2024-06-04","dy":"55","event":"FIRST DOSE: IRBESARTAN","domain":"EX","category":"exposure"},{"dtc":"2024-06-04","dy":"55","event":"DEVIATION: MISSED DOSE","domain":"DV","category":"deviation"},{"dtc":"2024-06-11","dy":"62","event":"DEVIATION: MISSED DOSE","domain":"DV","category":"deviation"},{"dtc":"2024-06-17","dy":"68","event":"DEVIATION: MISSED DOSE","domain":"DV","category":"deviation"},{"dtc":"2024-06-18","dy":"69","event":"AE: Dizziness (MODERATE)","domain":"AE","category":"adverse_event"},{"dtc":"2024-06-18","dy":"69","event":"DEVIATION: MISSED DOSE","domain":"DV","category":"deviation"},{"dtc":"2024-06-18","dy":"69","event":"CM START: MECLIZINE","domain":"CM","category":"concomitant_med"},{"dtc":"2024-06-25","dy":"76","event":"DEVIATION: MISSED DOSE","domain":"DV","category":"deviation"},{"dtc":"2024-06-30","dy":"81","event":"DEVIATION: MISSED DOSE","domain":"DV","category":"deviation"},{"dtc":"2024-07-01","dy":"82","event":"VISIT: WEEK 12","domain":"SV","category":"visit"},{"dtc":"2024-07-09","dy":"90","event":"DEVIATION: MISSED DOSE","domain":"DV","category":"deviation"},{"dtc":"2024-07-19","dy":"100","event":"DEVIATION: MISSED DOSE","domain":"DV","category":"deviation"},{"dtc":"2024-07-21","dy":"102","event":"DEVIATION: MISSED DOSE","domain":"DV","category":"deviation"},{"dtc":"2024-08-12","dy":"124","event":"DEVIATION: MISSED DOSE","domain":"DV","category":"deviation"},{"dtc":"2024-08-13","dy":"125","event":"DEVIATION: MISSED DOSE","domain":"DV","category":"deviation"},{"dtc":"2024-08-20","dy":"132","event":"DEVIATION: MISSED DOSE","domain":"DV","category":"deviation"},{"dtc":"2024-08-24","dy":"136","event":"DEVIATION: MISSED DOSE","domain":"DV","category":"deviation"},{"dtc":"2024-08-28","dy":"140","event":"DEVIATION: MISSED DOSE","domain":"DV","category":"deviation"},{"dtc":"2024-09-11","dy":"154","event":"DEVIATION: MISSED DOSE","domain":"DV","category":"deviation"},{"dtc":"2024-09-18","dy":"161","event":"DEVIATION: MISSED DOSE","domain":"DV","category":"deviation"},{"dtc":"2024-09-25","dy":"168","event":"DEVIATION: VISIT OCCURRED OUTSIDE VISIT WINDOW","domain":"DV","category":"deviation"},{"dtc":"2024-09-25","dy":"168","event":"VISIT: WEEK 24","domain":"SV","category":"visit"},{"dtc":"2024-09-27","dy":"170","event":"AE: Anaemia (SEVERE) [SERIOUS]","domain":"AE","category":"adverse_event"},{"dtc":"2024-09-27","dy":"170","event":"CM START: FERROUS SULFATE","domain":"CM","category":"concomitant_med"},{"dtc":"2024-10-12","dy":"185","event":"DEVIATION: MISSED DOSE","domain":"DV","category":"deviation"},{"dtc":"2024-10-13","dy":"186","event":"DEVIATION: MISSED DOSE","domain":"DV","category":"deviation"},{"dtc":"2024-10-15","dy":"188","event":"DEVIATION: MISSED DOSE","domain":"DV","category":"deviation"},{"dtc":"2024-10-18","dy":"191","event":"DEVIATION: MISSED DOSE","domain":"DV","category":"deviation"},{"dtc":"2024-10-20","dy":"193","event":"DEVIATION: MISSED DOSE","domain":"DV","category":"deviation"},{"dtc":"2024-10-30","dy":"203","event":"DEVIATION: MISSED DOSE","domain":"DV","category":"deviation"},{"dtc":"2024-11-03","dy":"207","event":"DEVIATION: MISSED DOSE","domain":"DV","category":"deviation"},{"dtc":"2024-11-04","dy":"208","event":"DEVIATION: MISSED DOSE","domain":"DV","category":"deviation"},{"dtc":"2024-11-05","dy":"209","event":"AE: Hyperkalaemia (MILD)","domain":"AE","category":"adverse_event"},{"dtc":"2024-11-08","dy":"212","event":"DEVIATION: MISSED DOSE","domain":"DV","category":"deviation"},{"dtc":"2024-11-19","dy":"223","event":"DEVIATION: MISSED DOSE","domain":"DV","category":"deviation"},{"dtc":"2024-11-21","dy":"225","event":"DEVIATION: MISSED DOSE","domain":"DV","category":"deviation"},{"dtc":"2024-11-23","dy":"227","event":"DEVIATION: MISSED DOSE","domain":"DV","category":"deviation"},{"dtc":"2024-11-24","dy":"228","event":"DEVIATION: MISSED DOSE","domain":"DV","category":"deviation"},{"dtc":"2024-12-08","dy":"242","event":"AE: Blood creatinine increased (MODERATE)","domain":"AE","category":"adverse_event"},{"dtc":"2024-12-08","dy":"242","event":"DEVIATION: MISSED DOSE","domain":"DV","category":"deviation"},{"dtc":"2024-12-08","dy":"242","event":"CM START: PARACETAMOL","domain":"CM","category":"concomitant_med"},{"dtc":"2024-12-13","dy":"247","event":"DEVIATION: MISSED DOSE","domain":"DV","category":"deviation"},{"dtc":"2024-12-18","dy":"252","event":"DEVIATION: MISSED DOSE","domain":"DV","category":"deviation"},{"dtc":"2024-12-18","dy":"252","event":"VISIT: WEEK 36","domain":"SV","category":"visit"},{"dtc":"2024-12-22","dy":"256","event":"AE: Oedema peripheral (SEVERE) [SERIOUS]","domain":"AE","category":"adverse_event"},{"dtc":"2024-12-22","dy":"256","event":"CM START: FUROSEMIDE","domain":"CM","category":"concomitant_med"},{"dtc":"2024-12-28","dy":"262","event":"DEVIATION: MISSED DOSE","domain":"DV","category":"deviation"},{"dtc":"2025-01-18","dy":"283","event":"AE: Diarrhoea (MILD)","domain":"AE","category":"adverse_event"},{"dtc":"2025-01-18","dy":"283","event":"CM START: LOPERAMIDE","domain":"CM","category":"concomitant_med"},{"dtc":"2025-02-04","dy":"300","event":"DEVIATION: MISSED DOSE","domain":"DV","category":"deviation"},{"dtc":"2025-02-05","dy":"301","event":"DEVIATION: MISSED DOSE","domain":"DV","category":"deviation"},{"dtc":"2025-02-06","dy":"302","event":"DEVIATION: MISSED DOSE","domain":"DV","category":"deviation"},{"dtc":"2025-02-08","dy":"304","event":"AE: Nausea (MODERATE)","domain":"AE","category":"adverse_event"},{"dtc":"2025-02-08","dy":"304","event":"DEVIATION: MISSED DOSE","domain":"DV","category":"deviation"},{"dtc":"2025-02-10","dy":"306","event":"DEVIATION: MISSED DOSE","domain":"DV","category":"deviation"},{"dtc":"2025-02-16","dy":"312","event":"DEVIATION: MISSED DOSE","domain":"DV","category":"deviation"},{"dtc":"2025-02-18","dy":"314","event":"DEVIATION: MISSED DOSE","domain":"DV","category":"deviation"},{"dtc":"2025-02-27","dy":"323","event":"DEVIATION: MISSED DOSE","domain":"DV","category":"deviation"},{"dtc":"2025-03-08","dy":"332","event":"DEVIATION: MISSED DOSE","domain":"DV","category":"deviation"},{"dtc":"2025-03-12","dy":"336","event":"DEVIATION: MISSED DOSE","domain":"DV","category":"deviation"},{"dtc":"2025-03-13","dy":"337","event":"AE: Headache (SEVERE) [SERIOUS]","domain":"AE","category":"adverse_event"},{"dtc":"2025-03-13","dy":"337","event":"CM START: IBUPROFEN","domain":"CM","category":"concomitant_med"},{"dtc":"2025-03-14","dy":"338","event":"DEVIATION: MISSED DOSE","domain":"DV","category":"deviation"},{"dtc":"2025-03-18","dy":"342","event":"DEVIATION: MISSED DOSE","domain":"DV","category":"deviation"},{"dtc":"2025-03-21","dy":"345","event":"DEVIATION: MISSED DOSE","domain":"DV","category":"deviation"},{"dtc":"2025-03-22","dy":"346","event":"DEVIATION: MISSED DOSE","domain":"DV","category":"deviation"},{"dtc":"2025-04-06","dy":"361","event":"AE: Oedema peripheral (MILD)","domain":"AE","category":"adverse_event"},{"dtc":"2025-04-06","dy":"361","event":"CM START: FUROSEMIDE","domain":"CM","category":"concomitant_med"},{"dtc":"2025-04-09","dy":"364","event":"DEVIATION: MISSED DOSE","domain":"DV","category":"deviation"},{"dtc":"2025-04-10","dy":"365","event":"AE: Blood creatinine increased (MILD)","domain":"AE","category":"adverse_event"},{"dtc":"2025-04-16","dy":"371","event":"DEVIATION: MISSED DOSE","domain":"DV","category":"deviation"},{"dtc":"2025-04-17","dy":"372","event":"DEVIATION: MISSED DOSE","domain":"DV","category":"deviation"},{"dtc":"2025-04-19","dy":"374","event":"DEVIATION: MISSED DOSE","domain":"DV","category":"deviation"},{"dtc":"2025-04-21","dy":"376","event":"DEVIATION: MISSED DOSE","domain":"DV","category":"deviation"},{"dtc":"2025-04-25","dy":"380","event":"LAST DOSE: IRBESARTAN","domain":"EX","category":"exposure"},{"dtc":"2025-04-25","dy":"380","event":"DEVIATION: MISSED DOSE","domain":"DV","category":"deviation"},{"dtc":"2025-05-27","dy":"412","event":"DEVIATION: VISIT OCCURRED OUTSIDE VISIT WINDOW","domain":"DV","category":"deviation"},{"dtc":"2025-05-27","dy":"412","event":"VISIT: WEEK 58","domain":"SV","category":"visit"},{"dtc":"2025-06-16","dy":"432","event":"AE: Fatigue (MODERATE)","domain":"AE","category":"adverse_event"},{"dtc":"2025-07-05","dy":"451","event":"AE: Oedema peripheral (MODERATE)","domain":"AE","category":"adverse_event"},{"dtc":"2025-07-05","dy":"451","event":"AE: Hyperkalaemia (MODERATE)","domain":"AE","category":"adverse_event"},{"dtc":"2025-07-08","dy":"454","event":"AE: Dizziness (MODERATE)","domain":"AE","category":"adverse_event"},{"dtc":"2025-07-08","dy":"454","event":"CM START: MECLIZINE","domain":"CM","category":"concomitant_med"},{"dtc":"2025-07-09","dy":"455","event":"AE: Anaemia (MILD)","domain":"AE","category":"adverse_event"},{"dtc":"2025-07-09","dy":"455","event":"CM START: FERROUS SULFATE","domain":"CM","category":"concomitant_med"},{"dtc":"2025-07-18","dy":"464","event":"AE: Hyperkalaemia (MILD)","domain":"AE","category":"adverse_event"},{"dtc":"2025-07-18","dy":"464","event":"CM START: SODIUM POLYSTYRENE SULFONATE","domain":"CM","category":"concomitant_med"},{"dtc":"2025-08-29","dy":"506","event":"AE: Nausea (MODERATE)","domain":"AE","category":"adverse_event"},{"dtc":"2025-08-29","dy":"506","event":"CM START: ONDANSETRON","domain":"CM","category":"concomitant_med"},{"dtc":"2025-09-11","dy":"519","event":"AE: Oedema peripheral (MODERATE)","domain":"AE","category":"adverse_event"},{"dtc":"2025-09-11","dy":"519","event":"CM START: FUROSEMIDE","domain":"CM","category":"concomitant_med"},{"dtc":"2025-11-22","dy":"591","event":"DEVIATION: VISIT OCCURRED OUTSIDE VISIT WINDOW","domain":"DV","category":"deviation"},{"dtc":"2025-11-22","dy":"591","event":"VISIT: WEEK 84","domain":"SV","category":"visit"},{"dtc":"2025-12-27","dy":"626","event":"AE: Hypotension (MILD)","domain":"AE","category":"adverse_event"},{"dtc":"2026-01-09","dy":"639","event":"AE: Nausea (MILD)","domain":"AE","category":"adverse_event"},{"dtc":"2026-03-01","dy":"690","event":"AE: Dizziness (MODERATE)","domain":"AE","category":"adverse_event"},{"dtc":"2026-03-01","dy":"690","event":"CM START: MECLIZINE","domain":"CM","category":"concomitant_med"},{"dtc":"2026-03-18","dy":"707","event":"AE: Hyperkalaemia (MILD)","domain":"AE","category":"adverse_event"},{"dtc":"2026-05-21","dy":"771","event":"DEVIATION: VISIT OCCURRED OUTSIDE VISIT WINDOW","domain":"DV","category":"deviation"},{"dtc":"2026-05-21","dy":"771","event":"VISIT: WEEK 110","domain":"SV","category":"visit"},{"dtc":"2026-06-16","dy":"797","event":"VISIT: WEEK 114 EOT","domain":"SV","category":"visit"},{"dtc":"2026-07-21","dy":"832","event":"VISIT: SAFETY FU","domain":"SV","category":"visit"},{"dtc":"2026-08-26","dy":"868","event":"COMPLETED","domain":"DS","category":"milestone"}],"section_1_demographics":{"usubjid":"021IGAN17001-ITA_SITE01-0016","subjid":"0016","siteid":"ITA_SITE01","age":"57","ageu":"YEARS","sex":"M","race":"WHITE","ethnicity":"NOT HISPANIC OR LATINO","country":"ITA","arm":"Irbesartan 300 mg QD (active control)","armcd":"IRBESARTAN","actarm":"Irbesartan 300 mg QD (active control)","actarmcd":"IRBESARTAN","randomization_date":null,"informed_consent_date":"2024-03-30","reference_start_date":"2024-04-11","reference_end_date":"2026-08-26","screen_failure":false,"death_flag":null,"death_date":null,"subject_characteristics":[{"testcd":"ALCUSE","test":"Alcohol Use","orres":"NON-DRINKER","stresc":"NON-DRINKER","visit":null,"dtc":"2024-03-30"},{"testcd":"BMI","test":"Body Mass Index","orres":"23.8","stresc":"23.8","visit":null,"dtc":"2024-03-30"},{"testcd":"DURDIS","test":"Duration of Disease","orres":"231 months","stresc":"231","visit":null,"dtc":"2024-03-30"},{"testcd":"TOBUSE","test":"Tobacco Use","orres":"NEVER SMOKED","stresc":"NEVER SMOKED","visit":null,"dtc":"2024-03-30"}]},"section_2_medical_history":{"items":[{"seq":"1","term":"HAEMATURIA","decod":"HAEMATURIA","cat":"RENAL","scat":null,"presp":null,"occur":null,"status":null,"onset_dtc":"2018-04-01","end_dtc":"2021-06-28","visit":null},{"seq":"2","term":"IGA NEPHROPATHY","decod":"IGA NEPHROPATHY","cat":"RENAL","scat":null,"presp":null,"occur":null,"status":null,"onset_dtc":"2006-04-04","end_dtc":null,"visit":null},{"seq":"3","term":"PROTEINURIA","decod":"PROTEINURIA","cat":"RENAL","scat":null,"presp":null,"occur":null,"status":null,"onset_dtc":"2005-04-04","end_dtc":"2020-06-23","visit":null}]},"section_3_inclusion_exclusion":{"criteria":[]},"section_4_trial_participation":{"visits":[{"visitnum":"1.0","visit":"SCREENING","start_dtc":"2024-02-05","end_dtc":"2024-02-05","updes":null},{"visitnum":"2.0","visit":"BASELINE","start_dtc":"2024-04-11","end_dtc":"2024-04-11","updes":null},{"visitnum":"3.0","visit":"WEEK 2","start_dtc":"2024-04-28","end_dtc":"2024-04-28","updes":null},{"visitnum":"4.0","visit":"WEEK 4","start_dtc":"2024-05-07","end_dtc":"2024-05-07","updes":null},{"visitnum":"5.0","visit":"WEEK 8","start_dtc":"2024-06-03","end_dtc":"2024-06-03","updes":null},{"visitnum":"6.0","visit":"WEEK 12","start_dtc":"2024-07-01","end_dtc":"2024-07-01","updes":null},{"visitnum":"7.0","visit":"WEEK 24","start_dtc":"2024-09-25","end_dtc":"2024-09-25","updes":null},{"visitnum":"8.0","visit":"WEEK 36","start_dtc":"2024-12-18","end_dtc":"2024-12-18","updes":null},{"visitnum":"9.0","visit":"WEEK 58","start_dtc":"2025-05-27","end_dtc":"2025-05-27","updes":null},{"visitnum":"10.0","visit":"WEEK 84","start_dtc":"2025-11-22","end_dtc":"2025-11-22","updes":null},{"visitnum":"11.0","visit":"WEEK 110","start_dtc":"2026-05-21","end_dtc":"2026-05-21","updes":null},{"visitnum":"12.0","visit":"WEEK 114 EOT","start_dtc":"2026-06-16","end_dtc":"2026-06-16","updes":null},{"visitnum":"13.0","visit":"SAFETY FU","start_dtc":"2026-07-21","end_dtc":"2026-07-21","updes":null}],"epochs":[{"seq":"1","etcd":"SCRN","element":"Screening","start_dtc":"2024-02-29","end_dtc":"2024-04-11","updes":null},{"seq":"2","etcd":"TRT","element":"Treatment (double-blind)","start_dtc":"2024-04-11","end_dtc":"2026-06-18","updes":null},{"seq":"3","etcd":"FU","element":"Safety follow-up","start_dtc":"2026-06-18","end_dtc":"2026-07-15","updes":null}],"visit_count":13},"section_5_concomitant_medications":{"medications":[{"seq":"1","trt":"LOSARTAN","decod":"LOSARTAN","cat":"PRIOR","dose":"100.0","doseu":null,"dosef":"QD","route":"ORAL","indication":"IGA NEPHROPATHY","start_dtc":"2006-04-04","end_dtc":"2026-08-26","ongoing":null,"visit":null},{"seq":"2","trt":"MECLIZINE","decod":"MECLIZINE","cat":"CONCOMITANT","dose":"25","doseu":null,"dosef":"PRN","route":"ORAL","indication":"DIZZINESS","start_dtc":"2024-05-16","end_dtc":"2024-06-06","ongoing":null,"visit":null},{"seq":"3","trt":"PARACETAMOL","decod":"PARACETAMOL","cat":"CONCOMITANT","dose":"500","doseu":null,"dosef":"PRN","route":"ORAL","indication":"BLOOD CREATININE INCREASED","start_dtc":"2024-05-21","end_dtc":"2024-06-12","ongoing":null,"visit":null},{"seq":"4","trt":"MECLIZINE","decod":"MECLIZINE","cat":"CONCOMITANT","dose":"25","doseu":null,"dosef":"PRN","route":"ORAL","indication":"DIZZINESS","start_dtc":"2024-06-18","end_dtc":"2024-07-10","ongoing":null,"visit":null},{"seq":"5","trt":"FERROUS SULFATE","decod":"FERROUS SULFATE","cat":"CONCOMITANT","dose":"325.0","doseu":null,"dosef":"QD","route":"ORAL","indication":"ANAEMIA","start_dtc":"2024-09-27","end_dtc":"2024-09-30","ongoing":null,"visit":null},{"seq":"6","trt":"PARACETAMOL","decod":"PARACETAMOL","cat":"CONCOMITANT","dose":"500","doseu":null,"dosef":"PRN","route":"ORAL","indication":"BLOOD CREATININE INCREASED","start_dtc":"2024-12-08","end_dtc":"2025-01-04","ongoing":null,"visit":null},{"seq":"7","trt":"FUROSEMIDE","decod":"FUROSEMIDE","cat":"CONCOMITANT","dose":"20.0","doseu":null,"dosef":"QD","route":"ORAL","indication":"OEDEMA PERIPHERAL","start_dtc":"2024-12-22","end_dtc":"2025-01-18","ongoing":null,"visit":null},{"seq":"8","trt":"LOPERAMIDE","decod":"LOPERAMIDE","cat":"CONCOMITANT","dose":"2","doseu":null,"dosef":"PRN","route":"ORAL","indication":"DIARRHOEA","start_dtc":"2025-01-18","end_dtc":"2025-02-08","ongoing":null,"visit":null},{"seq":"9","trt":"IBUPROFEN","decod":"IBUPROFEN","cat":"CONCOMITANT","dose":"400","doseu":null,"dosef":"PRN","route":"ORAL","indication":"HEADACHE","start_dtc":"2025-03-13","end_dtc":"2025-03-22","ongoing":null,"visit":null},{"seq":"10","trt":"FUROSEMIDE","decod":"FUROSEMIDE","cat":"CONCOMITANT","dose":"20.0","doseu":null,"dosef":"QD","route":"ORAL","indication":"OEDEMA PERIPHERAL","start_dtc":"2025-04-06","end_dtc":"2025-04-22","ongoing":null,"visit":null},{"seq":"11","trt":"MECLIZINE","decod":"MECLIZINE","cat":"CONCOMITANT","dose":"25","doseu":null,"dosef":"PRN","route":"ORAL","indication":"DIZZINESS","start_dtc":"2025-07-08","end_dtc":"2025-08-04","ongoing":null,"visit":null},{"seq":"12","trt":"FERROUS SULFATE","decod":"FERROUS SULFATE","cat":"CONCOMITANT","dose":"325.0","doseu":null,"dosef":"QD","route":"ORAL","indication":"ANAEMIA","start_dtc":"2025-07-09","end_dtc":"2025-08-08","ongoing":null,"visit":null},{"seq":"13","trt":"SODIUM POLYSTYRENE SULFONATE","decod":"SODIUM POLYSTYRENE SULFONATE","cat":"CONCOMITANT","dose":"15.0","doseu":null,"dosef":"QD","route":"ORAL","indication":"HYPERKALAEMIA","start_dtc":"2025-07-18","end_dtc":"2025-07-22","ongoing":null,"visit":null},{"seq":"14","trt":"ONDANSETRON","decod":"ONDANSETRON","cat":"CONCOMITANT","dose":"4","doseu":null,"dosef":"PRN","route":"ORAL","indication":"NAUSEA","start_dtc":"2025-08-29","end_dtc":"2025-09-18","ongoing":null,"visit":null},{"seq":"15","trt":"FUROSEMIDE","decod":"FUROSEMIDE","cat":"CONCOMITANT","dose":"20.0","doseu":null,"dosef":"QD","route":"ORAL","indication":"OEDEMA PERIPHERAL","start_dtc":"2025-09-11","end_dtc":"2025-09-29","ongoing":null,"visit":null},{"seq":"16","trt":"MECLIZINE","decod":"MECLIZINE","cat":"CONCOMITANT","dose":"25","doseu":null,"dosef":"PRN","route":"ORAL","indication":"DIZZINESS","start_dtc":"2026-03-01","end_dtc":"2026-03-16","ongoing":null,"visit":null}]},"section_6_exposure":{"exposure_as_administered":[{"seq":"1","trt":"IRBESARTAN","dose":"300.0","doseu":null,"dosef":"QD","route":"ORAL","lot":null,"start_dtc":"2024-06-04","end_dtc":"2024-06-17","start_dy":"55","end_dy":"68","epoch":"TREATMENT","visit":null},{"seq":"2","trt":"IRBESARTAN","dose":"150.0","doseu":null,"dosef":"QD","route":"ORAL","lot":null,"start_dtc":"2024-06-18","end_dtc":"2024-12-21","start_dy":"69","end_dy":"255","epoch":"TREATMENT","visit":null},{"seq":"3","trt":"IRBESARTAN","dose":"150.0","doseu":null,"dosef":"QD","route":"ORAL","lot":null,"start_dtc":"2025-01-22","end_dtc":"2025-04-05","start_dy":"287","end_dy":"360","epoch":"TREATMENT","visit":null},{"seq":"4","trt":"IRBESARTAN","dose":"150.0","doseu":null,"dosef":"QD","route":"ORAL","lot":null,"start_dtc":"2025-04-06","end_dtc":"2025-04-25","start_dy":"361","end_dy":"380","epoch":"TREATMENT","visit":null}],"exposure_as_collected":[{"seq":"1","trt":"IRBESARTAN","dose":null,"doseu":null,"dosef":"QD","route":"ORAL","start_dtc":"2024-04-11","end_dtc":"2024-04-11","visit":"BASELINE"},{"seq":"2","trt":"IRBESARTAN","dose":"300.0","doseu":null,"dosef":"QD","route":"ORAL","start_dtc":"2024-04-12","end_dtc":"2024-04-12","visit":"BASELINE"},{"seq":"3","trt":"IRBESARTAN","dose":"300.0","doseu":null,"dosef":"QD","route":"ORAL","start_dtc":"2024-04-13","end_dtc":"2024-04-13","visit":"BASELINE"},{"seq":"4","trt":"IRBESARTAN","dose":"300.0","doseu":null,"dosef":"QD","route":"ORAL","start_dtc":"2024-04-14","end_dtc":"2024-04-14","visit":"BASELINE"},{"seq":"5","trt":"IRBESARTAN","dose":"300.0","doseu":null,"dosef":"QD","route":"ORAL","start_dtc":"2024-04-15","end_dtc":"2024-04-15","visit":null},{"seq":"6","trt":"IRBESARTAN","dose":null,"doseu":null,"dosef":"QD","route":"ORAL","start_dtc":"2024-04-16","end_dtc":"2024-04-16","visit":null},{"seq":"7","trt":"IRBESARTAN","dose":"300.0","doseu":null,"dosef":"QD","route":"ORAL","start_dtc":"2024-04-17","end_dtc":"2024-04-17","visit":null},{"seq":"8","trt":"IRBESARTAN","dose":"300.0","doseu":null,"dosef":"QD","route":"ORAL","start_dtc":"2024-04-18","end_dtc":"2024-04-18","visit":null},{"seq":"9","trt":"IRBESARTAN","dose":"300.0","doseu":null,"dosef":"QD","route":"ORAL","start_dtc":"2024-04-19","end_dtc":"2024-04-19","visit":null},{"seq":"10","trt":"IRBESARTAN","dose":"300.0","doseu":null,"dosef":"QD","route":"ORAL","start_dtc":"2024-04-20","end_dtc":"2024-04-20","visit":null},{"seq":"11","trt":"IRBESARTAN","dose":"300.0","doseu":null,"dosef":"QD","route":"ORAL","start_dtc":"2024-04-21","end_dtc":"2024-04-21","visit":null},{"seq":"12","trt":"IRBESARTAN","dose":"300.0","doseu":null,"dosef":"QD","route":"ORAL","start_dtc":"2024-04-22","end_dtc":"2024-04-22","visit":"WEEK 2"},{"seq":"13","trt":"IRBESARTAN","dose":"300.0","doseu":null,"dosef":"QD","route":"ORAL","start_dtc":"2024-04-23","end_dtc":"2024-04-23","visit":"WEEK 2"},{"seq":"14","trt":"IRBESARTAN","dose":"300.0","doseu":null,"dosef":"QD","route":"ORAL","start_dtc":"2024-04-24","end_dtc":"2024-04-24","visit":"WEEK 2"},{"seq":"15","trt":"IRBESARTAN","dose":"300.0","doseu":null,"dosef":"QD","route":"ORAL","start_dtc":"2024-04-25","end_dtc":"2024-04-25","visit":"WEEK 2"},{"seq":"16","trt":"IRBESARTAN","dose":"300.0","doseu":null,"dosef":"QD","route":"ORAL","start_dtc":"2024-04-26","end_dtc":"2024-04-26","visit":"WEEK 2"},{"seq":"17","trt":"IRBESARTAN","dose":"300.0","doseu":null,"dosef":"QD","route":"ORAL","start_dtc":"2024-04-27","end_dtc":"2024-04-27","visit":"WEEK 2"},{"seq":"18","trt":"IRBESARTAN","dose":"300.0","doseu":null,"dosef":"QD","route":"ORAL","start_dtc":"2024-04-28","end_dtc":"2024-04-28","visit":"WEEK 2"},{"seq":"19","trt":"IRBESARTAN","dose":null,"doseu":null,"dosef":"QD","route":"ORAL","start_dtc":"2024-04-29","end_dtc":"2024-04-29","visit":null},{"seq":"20","trt":"IRBESARTAN","dose":"300.0","doseu":null,"dosef":"QD","route":"ORAL","start_dtc":"2024-04-30","end_dtc":"2024-04-30","visit":null},{"seq":"21","trt":"IRBESARTAN","dose":"300.0","doseu":null,"dosef":"QD","route":"ORAL","start_dtc":"2024-05-01","end_dtc":"2024-05-01","visit":null},{"seq":"22","trt":"IRBESARTAN","dose":"300.0","doseu":null,"dosef":"QD","route":"ORAL","start_dtc":"2024-05-02","end_dtc":"2024-05-02","visit":null},{"seq":"23","trt":"IRBESARTAN","dose":null,"doseu":null,"dosef":"QD","route":"ORAL","start_dtc":"2024-05-03","end_dtc":"2024-05-03","visit":null},{"seq":"24","trt":"IRBESARTAN","dose":"300.0","doseu":null,"dosef":"QD","route":"ORAL","start_dtc":"2024-05-04","end_dtc":"2024-05-04","visit":null},{"seq":"25","trt":"IRBESARTAN","dose":"300.0","doseu":null,"dosef":"QD","route":"ORAL","start_dtc":"2024-05-05","end_dtc":"2024-05-05","visit":null},{"seq":"26","trt":"IRBESARTAN","dose":"300.0","doseu":null,"dosef":"QD","route":"ORAL","start_dtc":"2024-05-06","end_dtc":"2024-05-06","visit":"WEEK 4"},{"seq":"27","trt":"IRBESARTAN","dose":"300.0","doseu":null,"dosef":"QD","route":"ORAL","start_dtc":"2024-05-07","end_dtc":"2024-05-07","visit":"WEEK 4"},{"seq":"28","trt":"IRBESARTAN","dose":"300.0","doseu":null,"dosef":"QD","route":"ORAL","start_dtc":"2024-05-08","end_dtc":"2024-05-08","visit":"WEEK 4"},{"seq":"29","trt":"IRBESARTAN","dose":"300.0","doseu":null,"dosef":"QD","route":"ORAL","start_dtc":"2024-05-09","end_dtc":"2024-05-09","visit":"WEEK 4"},{"seq":"30","trt":"IRBESARTAN","dose":"300.0","doseu":null,"dosef":"QD","route":"ORAL","start_dtc":"2024-05-10","end_dtc":"2024-05-10","visit":"WEEK 4"},{"seq":"31","trt":"IRBESARTAN","dose":"300.0","doseu":null,"dosef":"QD","route":"ORAL","start_dtc":"2024-05-11","end_dtc":"2024-05-11","visit":"WEEK 4"},{"seq":"32","trt":"IRBESARTAN","dose":"300.0","doseu":null,"dosef":"QD","route":"ORAL","start_dtc":"2024-05-12","end_dtc":"2024-05-12","visit":"WEEK 4"},{"seq":"33","trt":"IRBESARTAN","dose":"300.0","doseu":null,"dosef":"QD","route":"ORAL","start_dtc":"2024-05-13","end_dtc":"2024-05-13","visit":null},{"seq":"34","trt":"IRBESARTAN","dose":"300.0","doseu":null,"dosef":"QD","route":"ORAL","start_dtc":"2024-05-14","end_dtc":"2024-05-14","visit":null},{"seq":"35","trt":"IRBESARTAN","dose":"300.0","doseu":null,"dosef":"QD","route":"ORAL","start_dtc":"2024-05-15","end_dtc":"2024-05-15","visit":null},{"seq":"36","trt":"IRBESARTAN","dose":"300.0","doseu":null,"dosef":"QD","route":"ORAL","start_dtc":"2024-05-16","end_dtc":"2024-05-16","visit":null},{"seq":"37","trt":"IRBESARTAN","dose":"300.0","doseu":null,"dosef":"QD","route":"ORAL","start_dtc":"2024-05-17","end_dtc":"2024-05-17","visit":null},{"seq":"38","trt":"IRBESARTAN","dose":null,"doseu":null,"dosef":"QD","route":"ORAL","start_dtc":"2024-05-18","end_dtc":"2024-05-18","visit":null},{"seq":"39","trt":"IRBESARTAN","dose":null,"doseu":null,"dosef":"QD","route":"ORAL","start_dtc":"2024-05-19","end_dtc":"2024-05-19","visit":null},{"seq":"40","trt":"IRBESARTAN","dose":"300.0","doseu":null,"dosef":"QD","route":"ORAL","start_dtc":"2024-05-20","end_dtc":"2024-05-20","visit":null},{"seq":"41","trt":"IRBESARTAN","dose":"300.0","doseu":null,"dosef":"QD","route":"ORAL","start_dtc":"2024-05-21","end_dtc":"2024-05-21","visit":null},{"seq":"42","trt":"IRBESARTAN","dose":"300.0","doseu":null,"dosef":"QD","route":"ORAL","start_dtc":"2024-05-22","end_dtc":"2024-05-22","visit":null},{"seq":"43","trt":"IRBESARTAN","dose":"300.0","doseu":null,"dosef":"QD","route":"ORAL","start_dtc":"2024-05-23","end_dtc":"2024-05-23","visit":null},{"seq":"44","trt":"IRBESARTAN","dose":"300.0","doseu":null,"dosef":"QD","route":"ORAL","start_dtc":"2024-05-24","end_dtc":"2024-05-24","visit":null},{"seq":"45","trt":"IRBESARTAN","dose":"300.0","doseu":null,"dosef":"QD","route":"ORAL","start_dtc":"2024-05-25","end_dtc":"2024-05-25","visit":null},{"seq":"46","trt":"IRBESARTAN","dose":"300.0","doseu":null,"dosef":"QD","route":"ORAL","start_dtc":"2024-05-26","end_dtc":"2024-05-26","visit":null},{"seq":"47","trt":"IRBESARTAN","dose":"300.0","doseu":null,"dosef":"QD","route":"ORAL","start_dtc":"2024-05-27","end_dtc":"2024-05-27","visit":null},{"seq":"48","trt":"IRBESARTAN","dose":"300.0","doseu":null,"dosef":"QD","route":"ORAL","start_dtc":"2024-05-28","end_dtc":"2024-05-28","visit":null},{"seq":"49","trt":"IRBESARTAN","dose":null,"doseu":null,"dosef":"QD","route":"ORAL","start_dtc":"2024-05-29","end_dtc":"2024-05-29","visit":null},{"seq":"50","trt":"IRBESARTAN","dose":"300.0","doseu":null,"dosef":"QD","route":"ORAL","start_dtc":"2024-05-30","end_dtc":"2024-05-30","visit":null},{"seq":"51","trt":"IRBESARTAN","dose":null,"doseu":null,"dosef":"QD","route":"ORAL","start_dtc":"2024-05-31","end_dtc":"2024-05-31","visit":null},{"seq":"52","trt":"IRBESARTAN","dose":"300.0","doseu":null,"dosef":"QD","route":"ORAL","start_dtc":"2024-06-01","end_dtc":"2024-06-01","visit":null},{"seq":"53","trt":"IRBESARTAN","dose":null,"doseu":null,"dosef":"QD","route":"ORAL","start_dtc":"2024-06-02","end_dtc":"2024-06-02","visit":null},{"seq":"54","trt":"IRBESARTAN","dose":"300.0","doseu":null,"dosef":"QD","route":"ORAL","start_dtc":"2024-06-03","end_dtc":"2024-06-03","visit":"WEEK 8"},{"seq":"55","trt":"IRBESARTAN","dose":null,"doseu":null,"dosef":"QD","route":"ORAL","start_dtc":"2024-06-04","end_dtc":"2024-06-04","visit":"WEEK 8"},{"seq":"56","trt":"IRBESARTAN","dose":"300.0","doseu":null,"dosef":"QD","route":"ORAL","start_dtc":"2024-06-05","end_dtc":"2024-06-05","visit":"WEEK 8"},{"seq":"57","trt":"IRBESARTAN","dose":"300.0","doseu":null,"dosef":"QD","route":"ORAL","start_dtc":"2024-06-06","end_dtc":"2024-06-06","visit":"WEEK 8"},{"seq":"58","trt":"IRBESARTAN","dose":"300.0","doseu":null,"dosef":"QD","route":"ORAL","start_dtc":"2024-06-07","end_dtc":"2024-06-07","visit":"WEEK 8"},{"seq":"59","trt":"IRBESARTAN","dose":"300.0","doseu":null,"dosef":"QD","route":"ORAL","start_dtc":"2024-06-08","end_dtc":"2024-06-08","visit":"WEEK 8"},{"seq":"60","trt":"IRBESARTAN","dose":"300.0","doseu":null,"dosef":"QD","route":"ORAL","start_dtc":"2024-06-09","end_dtc":"2024-06-09","visit":"WEEK 8"},{"seq":"61","trt":"IRBESARTAN","dose":"300.0","doseu":null,"dosef":"QD","route":"ORAL","start_dtc":"2024-06-10","end_dtc":"2024-06-10","visit":null},{"seq":"62","trt":"IRBESARTAN","dose":null,"doseu":null,"dosef":"QD","route":"ORAL","start_dtc":"2024-06-11","end_dtc":"2024-06-11","visit":null},{"seq":"63","trt":"IRBESARTAN","dose":"300.0","doseu":null,"dosef":"QD","route":"ORAL","start_dtc":"2024-06-12","end_dtc":"2024-06-12","visit":null},{"seq":"64","trt":"IRBESARTAN","dose":"300.0","doseu":null,"dosef":"QD","route":"ORAL","start_dtc":"2024-06-13","end_dtc":"2024-06-13","visit":null},{"seq":"65","trt":"IRBESARTAN","dose":"300.0","doseu":null,"dosef":"QD","route":"ORAL","start_dtc":"2024-06-14","end_dtc":"2024-06-14","visit":null},{"seq":"66","trt":"IRBESARTAN","dose":"300.0","doseu":null,"dosef":"QD","route":"ORAL","start_dtc":"2024-06-15","end_dtc":"2024-06-15","visit":null},{"seq":"67","trt":"IRBESARTAN","dose":"300.0","doseu":null,"dosef":"QD","route":"ORAL","start_dtc":"2024-06-16","end_dtc":"2024-06-16","visit":null},{"seq":"68","trt":"IRBESARTAN","dose":null,"doseu":null,"dosef":"QD","route":"ORAL","start_dtc":"2024-06-17","end_dtc":"2024-06-17","visit":null},{"seq":"69","trt":"IRBESARTAN","dose":null,"doseu":null,"dosef":"QD","route":"ORAL","start_dtc":"2024-06-18","end_dtc":"2024-06-18","visit":null},{"seq":"70","trt":"IRBESARTAN","dose":"300.0","doseu":null,"dosef":"QD","route":"ORAL","start_dtc":"2024-06-19","end_dtc":"2024-06-19","visit":null},{"seq":"71","trt":"IRBESARTAN","dose":"300.0","doseu":null,"dosef":"QD","route":"ORAL","start_dtc":"2024-06-20","end_dtc":"2024-06-20","visit":null},{"seq":"72","trt":"IRBESARTAN","dose":"300.0","doseu":null,"dosef":"QD","route":"ORAL","start_dtc":"2024-06-21","end_dtc":"2024-06-21","visit":null},{"seq":"73","trt":"IRBESARTAN","dose":"300.0","doseu":null,"dosef":"QD","route":"ORAL","start_dtc":"2024-06-22","end_dtc":"2024-06-22","visit":null},{"seq":"74","trt":"IRBESARTAN","dose":"300.0","doseu":null,"dosef":"QD","route":"ORAL","start_dtc":"2024-06-23","end_dtc":"2024-06-23","visit":null},{"seq":"75","trt":"IRBESARTAN","dose":"300.0","doseu":null,"dosef":"QD","route":"ORAL","start_dtc":"2024-06-24","end_dtc":"2024-06-24","visit":null},{"seq":"76","trt":"IRBESARTAN","dose":null,"doseu":null,"dosef":"QD","route":"ORAL","start_dtc":"2024-06-25","end_dtc":"2024-06-25","visit":null},{"seq":"77","trt":"IRBESARTAN","dose":"300.0","doseu":null,"dosef":"QD","route":"ORAL","start_dtc":"2024-06-26","end_dtc":"2024-06-26","visit":null},{"seq":"78","trt":"IRBESARTAN","dose":"300.0","doseu":null,"dosef":"QD","route":"ORAL","start_dtc":"2024-06-27","end_dtc":"2024-06-27","visit":null},{"seq":"79","trt":"IRBESARTAN","dose":"300.0","doseu":null,"dosef":"QD","route":"ORAL","start_dtc":"2024-06-28","end_dtc":"2024-06-28","visit":null},{"seq":"80","trt":"IRBESARTAN","dose":"300.0","doseu":null,"dosef":"QD","route":"ORAL","start_dtc":"2024-06-29","end_dtc":"2024-06-29","visit":null},{"seq":"81","trt":"IRBESARTAN","dose":null,"doseu":null,"dosef":"QD","route":"ORAL","start_dtc":"2024-06-30","end_dtc":"2024-06-30","visit":null},{"seq":"82","trt":"IRBESARTAN","dose":"300.0","doseu":null,"dosef":"QD","route":"ORAL","start_dtc":"2024-07-01","end_dtc":"2024-07-01","visit":"WEEK 12"},{"seq":"83","trt":"IRBESARTAN","dose":"300.0","doseu":null,"dosef":"QD","route":"ORAL","start_dtc":"2024-07-02","end_dtc":"2024-07-02","visit":"WEEK 12"},{"seq":"84","trt":"IRBESARTAN","dose":"300.0","doseu":null,"dosef":"QD","route":"ORAL","start_dtc":"2024-07-03","end_dtc":"2024-07-03","visit":"WEEK 12"},{"seq":"85","trt":"IRBESARTAN","dose":null,"doseu":null,"dosef":"QD","route":"ORAL","start_dtc":"2024-07-04","end_dtc":"2024-07-04","visit":"WEEK 12"},{"seq":"86","trt":"IRBESARTAN","dose":null,"doseu":null,"dosef":"QD","route":"ORAL","start_dtc":"2024-07-05","end_dtc":"2024-07-05","visit":"WEEK 12"},{"seq":"87","trt":"IRBESARTAN","dose":"300.0","doseu":null,"dosef":"QD","route":"ORAL","start_dtc":"2024-07-06","end_dtc":"2024-07-06","visit":"WEEK 12"},{"seq":"88","trt":"IRBESARTAN","dose":"300.0","doseu":null,"dosef":"QD","route":"ORAL","start_dtc":"2024-07-07","end_dtc":"2024-07-07","visit":"WEEK 12"},{"seq":"89","trt":"IRBESARTAN","dose":"300.0","doseu":null,"dosef":"QD","route":"ORAL","start_dtc":"2024-07-08","end_dtc":"2024-07-08","visit":null},{"seq":"90","trt":"IRBESARTAN","dose":null,"doseu":null,"dosef":"QD","route":"ORAL","start_dtc":"2024-07-09","end_dtc":"2024-07-09","visit":null},{"seq":"91","trt":"IRBESARTAN","dose":"300.0","doseu":null,"dosef":"QD","route":"ORAL","start_dtc":"2024-07-10","end_dtc":"2024-07-10","visit":null},{"seq":"92","trt":"IRBESARTAN","dose":"300.0","doseu":null,"dosef":"QD","route":"ORAL","start_dtc":"2024-07-11","end_dtc":"2024-07-11","visit":null},{"seq":"93","trt":"IRBESARTAN","dose":"300.0","doseu":null,"dosef":"QD","route":"ORAL","start_dtc":"2024-07-12","end_dtc":"2024-07-12","visit":null},{"seq":"94","trt":"IRBESARTAN","dose":"300.0","doseu":null,"dosef":"QD","route":"ORAL","start_dtc":"2024-07-13","end_dtc":"2024-07-13","visit":null},{"seq":"95","trt":"IRBESARTAN","dose":"300.0","doseu":null,"dosef":"QD","route":"ORAL","start_dtc":"2024-07-14","end_dtc":"2024-07-14","visit":null},{"seq":"96","trt":"IRBESARTAN","dose":"300.0","doseu":null,"dosef":"QD","route":"ORAL","start_dtc":"2024-07-15","end_dtc":"2024-07-15","visit":null},{"seq":"97","trt":"IRBESARTAN","dose":"300.0","doseu":null,"dosef":"QD","route":"ORAL","start_dtc":"2024-07-16","end_dtc":"2024-07-16","visit":null},{"seq":"98","trt":"IRBESARTAN","dose":"300.0","doseu":null,"dosef":"QD","route":"ORAL","start_dtc":"2024-07-17","end_dtc":"2024-07-17","visit":null},{"seq":"99","trt":"IRBESARTAN","dose":"300.0","doseu":null,"dosef":"QD","route":"ORAL","start_dtc":"2024-07-18","end_dtc":"2024-07-18","visit":null},{"seq":"100","trt":"IRBESARTAN","dose":null,"doseu":null,"dosef":"QD","route":"ORAL","start_dtc":"2024-07-19","end_dtc":"2024-07-19","visit":null},{"seq":"101","trt":"IRBESARTAN","dose":"300.0","doseu":null,"dosef":"QD","route":"ORAL","start_dtc":"2024-07-20","end_dtc":"2024-07-20","visit":null},{"seq":"102","trt":"IRBESARTAN","dose":null,"doseu":null,"dosef":"QD","route":"ORAL","start_dtc":"2024-07-21","end_dtc":"2024-07-21","visit":null},{"seq":"103","trt":"IRBESARTAN","dose":"300.0","doseu":null,"dosef":"QD","route":"ORAL","start_dtc":"2024-07-22","end_dtc":"2024-07-22","visit":null},{"seq":"104","trt":"IRBESARTAN","dose":"300.0","doseu":null,"dosef":"QD","route":"ORAL","start_dtc":"2024-07-23","end_dtc":"2024-07-23","visit":null},{"seq":"105","trt":"IRBESARTAN","dose":"300.0","doseu":null,"dosef":"QD","route":"ORAL","start_dtc":"2024-07-24","end_dtc":"2024-07-24","visit":null},{"seq":"106","trt":"IRBESARTAN","dose":"300.0","doseu":null,"dosef":"QD","route":"ORAL","start_dtc":"2024-07-25","end_dtc":"2024-07-25","visit":null},{"seq":"107","trt":"IRBESARTAN","dose":"300.0","doseu":null,"dosef":"QD","route":"ORAL","start_dtc":"2024-07-26","end_dtc":"2024-07-26","visit":null},{"seq":"108","trt":"IRBESARTAN","dose":"300.0","doseu":null,"dosef":"QD","route":"ORAL","start_dtc":"2024-07-27","end_dtc":"2024-07-27","visit":null},{"seq":"109","trt":"IRBESARTAN","dose":"300.0","doseu":null,"dosef":"QD","route":"ORAL","start_dtc":"2024-07-28","end_dtc":"2024-07-28","visit":null},{"seq":"110","trt":"IRBESARTAN","dose":"300.0","doseu":null,"dosef":"QD","route":"ORAL","start_dtc":"2024-07-29","end_dtc":"2024-07-29","visit":null},{"seq":"111","trt":"IRBESARTAN","dose":"300.0","doseu":null,"dosef":"QD","route":"ORAL","start_dtc":"2024-07-30","end_dtc":"2024-07-30","visit":null},{"seq":"112","trt":"IRBESARTAN","dose":"300.0","doseu":null,"dosef":"QD","route":"ORAL","start_dtc":"2024-07-31","end_dtc":"2024-07-31","visit":null},{"seq":"113","trt":"IRBESARTAN","dose":"300.0","doseu":null,"dosef":"QD","route":"ORAL","start_dtc":"2024-08-01","end_dtc":"2024-08-01","visit":null},{"seq":"114","trt":"IRBESARTAN","dose":"300.0","doseu":null,"dosef":"QD","route":"ORAL","start_dtc":"2024-08-02","end_dtc":"2024-08-02","visit":null},{"seq":"115","trt":"IRBESARTAN","dose":"300.0","doseu":null,"dosef":"QD","route":"ORAL","start_dtc":"2024-08-03","end_dtc":"2024-08-03","visit":null},{"seq":"116","trt":"IRBESARTAN","dose":"300.0","doseu":null,"dosef":"QD","route":"ORAL","start_dtc":"2024-08-04","end_dtc":"2024-08-04","visit":null},{"seq":"117","trt":"IRBESARTAN","dose":"300.0","doseu":null,"dosef":"QD","route":"ORAL","start_dtc":"2024-08-05","end_dtc":"2024-08-05","visit":null},{"seq":"118","trt":"IRBESARTAN","dose":"300.0","doseu":null,"dosef":"QD","route":"ORAL","start_dtc":"2024-08-06","end_dtc":"2024-08-06","visit":null},{"seq":"119","trt":"IRBESARTAN","dose":"300.0","doseu":null,"dosef":"QD","route":"ORAL","start_dtc":"2024-08-07","end_dtc":"2024-08-07","visit":null},{"seq":"120","trt":"IRBESARTAN","dose":"300.0","doseu":null,"dosef":"QD","route":"ORAL","start_dtc":"2024-08-08","end_dtc":"2024-08-08","visit":null},{"seq":"121","trt":"IRBESARTAN","dose":"300.0","doseu":null,"dosef":"QD","route":"ORAL","start_dtc":"2024-08-09","end_dtc":"2024-08-09","visit":null},{"seq":"122","trt":"IRBESARTAN","dose":"300.0","doseu":null,"dosef":"QD","route":"ORAL","start_dtc":"2024-08-10","end_dtc":"2024-08-10","visit":null},{"seq":"123","trt":"IRBESARTAN","dose":"300.0","doseu":null,"dosef":"QD","route":"ORAL","start_dtc":"2024-08-11","end_dtc":"2024-08-11","visit":null},{"seq":"124","trt":"IRBESARTAN","dose":null,"doseu":null,"dosef":"QD","route":"ORAL","start_dtc":"2024-08-12","end_dtc":"2024-08-12","visit":null},{"seq":"125","trt":"IRBESARTAN","dose":null,"doseu":null,"dosef":"QD","route":"ORAL","start_dtc":"2024-08-13","end_dtc":"2024-08-13","visit":null},{"seq":"126","trt":"IRBESARTAN","dose":"300.0","doseu":null,"dosef":"QD","route":"ORAL","start_dtc":"2024-08-14","end_dtc":"2024-08-14","visit":null},{"seq":"127","trt":"IRBESARTAN","dose":"300.0","doseu":null,"dosef":"QD","route":"ORAL","start_dtc":"2024-08-15","end_dtc":"2024-08-15","visit":null},{"seq":"128","trt":"IRBESARTAN","dose":"300.0","doseu":null,"dosef":"QD","route":"ORAL","start_dtc":"2024-08-16","end_dtc":"2024-08-16","visit":null},{"seq":"129","trt":"IRBESARTAN","dose":"300.0","doseu":null,"dosef":"QD","route":"ORAL","start_dtc":"2024-08-17","end_dtc":"2024-08-17","visit":null},{"seq":"130","trt":"IRBESARTAN","dose":"300.0","doseu":null,"dosef":"QD","route":"ORAL","start_dtc":"2024-08-18","end_dtc":"2024-08-18","visit":null},{"seq":"131","trt":"IRBESARTAN","dose":"300.0","doseu":null,"dosef":"QD","route":"ORAL","start_dtc":"2024-08-19","end_dtc":"2024-08-19","visit":null},{"seq":"132","trt":"IRBESARTAN","dose":null,"doseu":null,"dosef":"QD","route":"ORAL","start_dtc":"2024-08-20","end_dtc":"2024-08-20","visit":null},{"seq":"133","trt":"IRBESARTAN","dose":"300.0","doseu":null,"dosef":"QD","route":"ORAL","start_dtc":"2024-08-21","end_dtc":"2024-08-21","visit":null},{"seq":"134","trt":"IRBESARTAN","dose":"300.0","doseu":null,"dosef":"QD","route":"ORAL","start_dtc":"2024-08-22","end_dtc":"2024-08-22","visit":null},{"seq":"135","trt":"IRBESARTAN","dose":"300.0","doseu":null,"dosef":"QD","route":"ORAL","start_dtc":"2024-08-23","end_dtc":"2024-08-23","visit":null},{"seq":"136","trt":"IRBESARTAN","dose":null,"doseu":null,"dosef":"QD","route":"ORAL","start_dtc":"2024-08-24","end_dtc":"2024-08-24","visit":null},{"seq":"137","trt":"IRBESARTAN","dose":"300.0","doseu":null,"dosef":"QD","route":"ORAL","start_dtc":"2024-08-25","end_dtc":"2024-08-25","visit":null},{"seq":"138","trt":"IRBESARTAN","dose":"300.0","doseu":null,"dosef":"QD","route":"ORAL","start_dtc":"2024-08-26","end_dtc":"2024-08-26","visit":null},{"seq":"139","trt":"IRBESARTAN","dose":"300.0","doseu":null,"dosef":"QD","route":"ORAL","start_dtc":"2024-08-27","end_dtc":"2024-08-27","visit":null},{"seq":"140","trt":"IRBESARTAN","dose":null,"doseu":null,"dosef":"QD","route":"ORAL","start_dtc":"2024-08-28","end_dtc":"2024-08-28","visit":null},{"seq":"141","trt":"IRBESARTAN","dose":"300.0","doseu":null,"dosef":"QD","route":"ORAL","start_dtc":"2024-08-29","end_dtc":"2024-08-29","visit":null},{"seq":"142","trt":"IRBESARTAN","dose":"300.0","doseu":null,"dosef":"QD","route":"ORAL","start_dtc":"2024-08-30","end_dtc":"2024-08-30","visit":null},{"seq":"143","trt":"IRBESARTAN","dose":"300.0","doseu":null,"dosef":"QD","route":"ORAL","start_dtc":"2024-08-31","end_dtc":"2024-08-31","visit":null},{"seq":"144","trt":"IRBESARTAN","dose":"300.0","doseu":null,"dosef":"QD","route":"ORAL","start_dtc":"2024-09-01","end_dtc":"2024-09-01","visit":null},{"seq":"145","trt":"IRBESARTAN","dose":"300.0","doseu":null,"dosef":"QD","route":"ORAL","start_dtc":"2024-09-02","end_dtc":"2024-09-02","visit":null},{"seq":"146","trt":"IRBESARTAN","dose":"300.0","doseu":null,"dosef":"QD","route":"ORAL","start_dtc":"2024-09-03","end_dtc":"2024-09-03","visit":null},{"seq":"147","trt":"IRBESARTAN","dose":"300.0","doseu":null,"dosef":"QD","route":"ORAL","start_dtc":"2024-09-04","end_dtc":"2024-09-04","visit":null},{"seq":"148","trt":"IRBESARTAN","dose":"300.0","doseu":null,"dosef":"QD","route":"ORAL","start_dtc":"2024-09-05","end_dtc":"2024-09-05","visit":null},{"seq":"149","trt":"IRBESARTAN","dose":"300.0","doseu":null,"dosef":"QD","route":"ORAL","start_dtc":"2024-09-06","end_dtc":"2024-09-06","visit":null},{"seq":"150","trt":"IRBESARTAN","dose":"300.0","doseu":null,"dosef":"QD","route":"ORAL","start_dtc":"2024-09-07","end_dtc":"2024-09-07","visit":null},{"seq":"151","trt":"IRBESARTAN","dose":"300.0","doseu":null,"dosef":"QD","route":"ORAL","start_dtc":"2024-09-08","end_dtc":"2024-09-08","visit":null},{"seq":"152","trt":"IRBESARTAN","dose":"300.0","doseu":null,"dosef":"QD","route":"ORAL","start_dtc":"2024-09-09","end_dtc":"2024-09-09","visit":null},{"seq":"153","trt":"IRBESARTAN","dose":"300.0","doseu":null,"dosef":"QD","route":"ORAL","start_dtc":"2024-09-10","end_dtc":"2024-09-10","visit":null},{"seq":"154","trt":"IRBESARTAN","dose":null,"doseu":null,"dosef":"QD","route":"ORAL","start_dtc":"2024-09-11","end_dtc":"2024-09-11","visit":null},{"seq":"155","trt":"IRBESARTAN","dose":"300.0","doseu":null,"dosef":"QD","route":"ORAL","start_dtc":"2024-09-12","end_dtc":"2024-09-12","visit":null},{"seq":"156","trt":"IRBESARTAN","dose":"300.0","doseu":null,"dosef":"QD","route":"ORAL","start_dtc":"2024-09-13","end_dtc":"2024-09-13","visit":null},{"seq":"157","trt":"IRBESARTAN","dose":"300.0","doseu":null,"dosef":"QD","route":"ORAL","start_dtc":"2024-09-14","end_dtc":"2024-09-14","visit":null},{"seq":"158","trt":"IRBESARTAN","dose":"300.0","doseu":null,"dosef":"QD","route":"ORAL","start_dtc":"2024-09-15","end_dtc":"2024-09-15","visit":null},{"seq":"159","trt":"IRBESARTAN","dose":"300.0","doseu":null,"dosef":"QD","route":"ORAL","start_dtc":"2024-09-16","end_dtc":"2024-09-16","visit":null},{"seq":"160","trt":"IRBESARTAN","dose":"300.0","doseu":null,"dosef":"QD","route":"ORAL","start_dtc":"2024-09-17","end_dtc":"2024-09-17","visit":null},{"seq":"161","trt":"IRBESARTAN","dose":null,"doseu":null,"dosef":"QD","route":"ORAL","start_dtc":"2024-09-18","end_dtc":"2024-09-18","visit":null},{"seq":"162","trt":"IRBESARTAN","dose":"300.0","doseu":null,"dosef":"QD","route":"ORAL","start_dtc":"2024-09-19","end_dtc":"2024-09-19","visit":null},{"seq":"163","trt":"IRBESARTAN","dose":"300.0","doseu":null,"dosef":"QD","route":"ORAL","start_dtc":"2024-09-20","end_dtc":"2024-09-20","visit":null},{"seq":"164","trt":"IRBESARTAN","dose":"300.0","doseu":null,"dosef":"QD","route":"ORAL","start_dtc":"2024-09-21","end_dtc":"2024-09-21","visit":null},{"seq":"165","trt":"IRBESARTAN","dose":"300.0","doseu":null,"dosef":"QD","route":"ORAL","start_dtc":"2024-09-22","end_dtc":"2024-09-22","visit":null},{"seq":"166","trt":"IRBESARTAN","dose":"300.0","doseu":null,"dosef":"QD","route":"ORAL","start_dtc":"2024-09-23","end_dtc":"2024-09-23","visit":"WEEK 24"},{"seq":"167","trt":"IRBESARTAN","dose":"300.0","doseu":null,"dosef":"QD","route":"ORAL","start_dtc":"2024-09-24","end_dtc":"2024-09-24","visit":"WEEK 24"},{"seq":"168","trt":"IRBESARTAN","dose":"300.0","doseu":null,"dosef":"QD","route":"ORAL","start_dtc":"2024-09-25","end_dtc":"2024-09-25","visit":"WEEK 24"},{"seq":"169","trt":"IRBESARTAN","dose":"300.0","doseu":null,"dosef":"QD","route":"ORAL","start_dtc":"2024-09-26","end_dtc":"2024-09-26","visit":"WEEK 24"},{"seq":"170","trt":"IRBESARTAN","dose":"300.0","doseu":null,"dosef":"QD","route":"ORAL","start_dtc":"2024-09-27","end_dtc":"2024-09-27","visit":"WEEK 24"},{"seq":"171","trt":"IRBESARTAN","dose":"300.0","doseu":null,"dosef":"QD","route":"ORAL","start_dtc":"2024-09-28","end_dtc":"2024-09-28","visit":"WEEK 24"},{"seq":"172","trt":"IRBESARTAN","dose":"300.0","doseu":null,"dosef":"QD","route":"ORAL","start_dtc":"2024-09-29","end_dtc":"2024-09-29","visit":"WEEK 24"},{"seq":"173","trt":"IRBESARTAN","dose":"300.0","doseu":null,"dosef":"QD","route":"ORAL","start_dtc":"2024-09-30","end_dtc":"2024-09-30","visit":null},{"seq":"174","trt":"IRBESARTAN","dose":"300.0","doseu":null,"dosef":"QD","route":"ORAL","start_dtc":"2024-10-01","end_dtc":"2024-10-01","visit":null},{"seq":"175","trt":"IRBESARTAN","dose":"300.0","doseu":null,"dosef":"QD","route":"ORAL","start_dtc":"2024-10-02","end_dtc":"2024-10-02","visit":null},{"seq":"176","trt":"IRBESARTAN","dose":"300.0","doseu":null,"dosef":"QD","route":"ORAL","start_dtc":"2024-10-03","end_dtc":"2024-10-03","visit":null},{"seq":"177","trt":"IRBESARTAN","dose":"300.0","doseu":null,"dosef":"QD","route":"ORAL","start_dtc":"2024-10-04","end_dtc":"2024-10-04","visit":null},{"seq":"178","trt":"IRBESARTAN","dose":"300.0","doseu":null,"dosef":"QD","route":"ORAL","start_dtc":"2024-10-05","end_dtc":"2024-10-05","visit":null},{"seq":"179","trt":"IRBESARTAN","dose":"300.0","doseu":null,"dosef":"QD","route":"ORAL","start_dtc":"2024-10-06","end_dtc":"2024-10-06","visit":null},{"seq":"180","trt":"IRBESARTAN","dose":"300.0","doseu":null,"dosef":"QD","route":"ORAL","start_dtc":"2024-10-07","end_dtc":"2024-10-07","visit":null},{"seq":"181","trt":"IRBESARTAN","dose":"300.0","doseu":null,"dosef":"QD","route":"ORAL","start_dtc":"2024-10-08","end_dtc":"2024-10-08","visit":null},{"seq":"182","trt":"IRBESARTAN","dose":"300.0","doseu":null,"dosef":"QD","route":"ORAL","start_dtc":"2024-10-09","end_dtc":"2024-10-09","visit":null},{"seq":"183","trt":"IRBESARTAN","dose":"300.0","doseu":null,"dosef":"QD","route":"ORAL","start_dtc":"2024-10-10","end_dtc":"2024-10-10","visit":null},{"seq":"184","trt":"IRBESARTAN","dose":"300.0","doseu":null,"dosef":"QD","route":"ORAL","start_dtc":"2024-10-11","end_dtc":"2024-10-11","visit":null},{"seq":"185","trt":"IRBESARTAN","dose":null,"doseu":null,"dosef":"QD","route":"ORAL","start_dtc":"2024-10-12","end_dtc":"2024-10-12","visit":null},{"seq":"186","trt":"IRBESARTAN","dose":null,"doseu":null,"dosef":"QD","route":"ORAL","start_dtc":"2024-10-13","end_dtc":"2024-10-13","visit":null},{"seq":"187","trt":"IRBESARTAN","dose":"300.0","doseu":null,"dosef":"QD","route":"ORAL","start_dtc":"2024-10-14","end_dtc":"2024-10-14","visit":null},{"seq":"188","trt":"IRBESARTAN","dose":null,"doseu":null,"dosef":"QD","route":"ORAL","start_dtc":"2024-10-15","end_dtc":"2024-10-15","visit":null},{"seq":"189","trt":"IRBESARTAN","dose":"300.0","doseu":null,"dosef":"QD","route":"ORAL","start_dtc":"2024-10-16","end_dtc":"2024-10-16","visit":null},{"seq":"190","trt":"IRBESARTAN","dose":"300.0","doseu":null,"dosef":"QD","route":"ORAL","start_dtc":"2024-10-17","end_dtc":"2024-10-17","visit":null},{"seq":"191","trt":"IRBESARTAN","dose":null,"doseu":null,"dosef":"QD","route":"ORAL","start_dtc":"2024-10-18","end_dtc":"2024-10-18","visit":null},{"seq":"192","trt":"IRBESARTAN","dose":"300.0","doseu":null,"dosef":"QD","route":"ORAL","start_dtc":"2024-10-19","end_dtc":"2024-10-19","visit":null},{"seq":"193","trt":"IRBESARTAN","dose":null,"doseu":null,"dosef":"QD","route":"ORAL","start_dtc":"2024-10-20","end_dtc":"2024-10-20","visit":null},{"seq":"194","trt":"IRBESARTAN","dose":"300.0","doseu":null,"dosef":"QD","route":"ORAL","start_dtc":"2024-10-21","end_dtc":"2024-10-21","visit":null},{"seq":"195","trt":"IRBESARTAN","dose":"300.0","doseu":null,"dosef":"QD","route":"ORAL","start_dtc":"2024-10-22","end_dtc":"2024-10-22","visit":null},{"seq":"196","trt":"IRBESARTAN","dose":"300.0","doseu":null,"dosef":"QD","route":"ORAL","start_dtc":"2024-10-23","end_dtc":"2024-10-23","visit":null},{"seq":"197","trt":"IRBESARTAN","dose":"300.0","doseu":null,"dosef":"QD","route":"ORAL","start_dtc":"2024-10-24","end_dtc":"2024-10-24","visit":null},{"seq":"198","trt":"IRBESARTAN","dose":"300.0","doseu":null,"dosef":"QD","route":"ORAL","start_dtc":"2024-10-25","end_dtc":"2024-10-25","visit":null},{"seq":"199","trt":"IRBESARTAN","dose":"300.0","doseu":null,"dosef":"QD","route":"ORAL","start_dtc":"2024-10-26","end_dtc":"2024-10-26","visit":null},{"seq":"200","trt":"IRBESARTAN","dose":null,"doseu":null,"dosef":"QD","route":"ORAL","start_dtc":"2024-10-27","end_dtc":"2024-10-27","visit":null},{"seq":"201","trt":"IRBESARTAN","dose":"300.0","doseu":null,"dosef":"QD","route":"ORAL","start_dtc":"2024-10-28","end_dtc":"2024-10-28","visit":null},{"seq":"202","trt":"IRBESARTAN","dose":"300.0","doseu":null,"dosef":"QD","route":"ORAL","start_dtc":"2024-10-29","end_dtc":"2024-10-29","visit":null},{"seq":"203","trt":"IRBESARTAN","dose":null,"doseu":null,"dosef":"QD","route":"ORAL","start_dtc":"2024-10-30","end_dtc":"2024-10-30","visit":null},{"seq":"204","trt":"IRBESARTAN","dose":"300.0","doseu":null,"dosef":"QD","route":"ORAL","start_dtc":"2024-10-31","end_dtc":"2024-10-31","visit":null},{"seq":"205","trt":"IRBESARTAN","dose":"300.0","doseu":null,"dosef":"QD","route":"ORAL","start_dtc":"2024-11-01","end_dtc":"2024-11-01","visit":null},{"seq":"206","trt":"IRBESARTAN","dose":"300.0","doseu":null,"dosef":"QD","route":"ORAL","start_dtc":"2024-11-02","end_dtc":"2024-11-02","visit":null},{"seq":"207","trt":"IRBESARTAN","dose":null,"doseu":null,"dosef":"QD","route":"ORAL","start_dtc":"2024-11-03","end_dtc":"2024-11-03","visit":null},{"seq":"208","trt":"IRBESARTAN","dose":null,"doseu":null,"dosef":"QD","route":"ORAL","start_dtc":"2024-11-04","end_dtc":"2024-11-04","visit":null},{"seq":"209","trt":"IRBESARTAN","dose":"300.0","doseu":null,"dosef":"QD","route":"ORAL","start_dtc":"2024-11-05","end_dtc":"2024-11-05","visit":null},{"seq":"210","trt":"IRBESARTAN","dose":"300.0","doseu":null,"dosef":"QD","route":"ORAL","start_dtc":"2024-11-06","end_dtc":"2024-11-06","visit":null},{"seq":"211","trt":"IRBESARTAN","dose":"300.0","doseu":null,"dosef":"QD","route":"ORAL","start_dtc":"2024-11-07","end_dtc":"2024-11-07","visit":null},{"seq":"212","trt":"IRBESARTAN","dose":null,"doseu":null,"dosef":"QD","route":"ORAL","start_dtc":"2024-11-08","end_dtc":"2024-11-08","visit":null},{"seq":"213","trt":"IRBESARTAN","dose":"300.0","doseu":null,"dosef":"QD","route":"ORAL","start_dtc":"2024-11-09","end_dtc":"2024-11-09","visit":null},{"seq":"214","trt":"IRBESARTAN","dose":"300.0","doseu":null,"dosef":"QD","route":"ORAL","start_dtc":"2024-11-10","end_dtc":"2024-11-10","visit":null},{"seq":"215","trt":"IRBESARTAN","dose":"300.0","doseu":null,"dosef":"QD","route":"ORAL","start_dtc":"2024-11-11","end_dtc":"2024-11-11","visit":null},{"seq":"216","trt":"IRBESARTAN","dose":"300.0","doseu":null,"dosef":"QD","route":"ORAL","start_dtc":"2024-11-12","end_dtc":"2024-11-12","visit":null},{"seq":"217","trt":"IRBESARTAN","dose":"300.0","doseu":null,"dosef":"QD","route":"ORAL","start_dtc":"2024-11-13","end_dtc":"2024-11-13","visit":null},{"seq":"218","trt":"IRBESARTAN","dose":"300.0","doseu":null,"dosef":"QD","route":"ORAL","start_dtc":"2024-11-14","end_dtc":"2024-11-14","visit":null},{"seq":"219","trt":"IRBESARTAN","dose":"300.0","doseu":null,"dosef":"QD","route":"ORAL","start_dtc":"2024-11-15","end_dtc":"2024-11-15","visit":null},{"seq":"220","trt":"IRBESARTAN","dose":"300.0","doseu":null,"dosef":"QD","route":"ORAL","start_dtc":"2024-11-16","end_dtc":"2024-11-16","visit":null},{"seq":"221","trt":"IRBESARTAN","dose":"300.0","doseu":null,"dosef":"QD","route":"ORAL","start_dtc":"2024-11-17","end_dtc":"2024-11-17","visit":null},{"seq":"222","trt":"IRBESARTAN","dose":"300.0","doseu":null,"dosef":"QD","route":"ORAL","start_dtc":"2024-11-18","end_dtc":"2024-11-18","visit":null},{"seq":"223","trt":"IRBESARTAN","dose":null,"doseu":null,"dosef":"QD","route":"ORAL","start_dtc":"2024-11-19","end_dtc":"2024-11-19","visit":null},{"seq":"224","trt":"IRBESARTAN","dose":"300.0","doseu":null,"dosef":"QD","route":"ORAL","start_dtc":"2024-11-20","end_dtc":"2024-11-20","visit":null},{"seq":"225","trt":"IRBESARTAN","dose":null,"doseu":null,"dosef":"QD","route":"ORAL","start_dtc":"2024-11-21","end_dtc":"2024-11-21","visit":null},{"seq":"226","trt":"IRBESARTAN","dose":"300.0","doseu":null,"dosef":"QD","route":"ORAL","start_dtc":"2024-11-22","end_dtc":"2024-11-22","visit":null},{"seq":"227","trt":"IRBESARTAN","dose":null,"doseu":null,"dosef":"QD","route":"ORAL","start_dtc":"2024-11-23","end_dtc":"2024-11-23","visit":null},{"seq":"228","trt":"IRBESARTAN","dose":null,"doseu":null,"dosef":"QD","route":"ORAL","start_dtc":"2024-11-24","end_dtc":"2024-11-24","visit":null},{"seq":"229","trt":"IRBESARTAN","dose":"300.0","doseu":null,"dosef":"QD","route":"ORAL","start_dtc":"2024-11-25","end_dtc":"2024-11-25","visit":null},{"seq":"230","trt":"IRBESARTAN","dose":"300.0","doseu":null,"dosef":"QD","route":"ORAL","start_dtc":"2024-11-26","end_dtc":"2024-11-26","visit":null},{"seq":"231","trt":"IRBESARTAN","dose":"300.0","doseu":null,"dosef":"QD","route":"ORAL","start_dtc":"2024-11-27","end_dtc":"2024-11-27","visit":null},{"seq":"232","trt":"IRBESARTAN","dose":"300.0","doseu":null,"dosef":"QD","route":"ORAL","start_dtc":"2024-11-28","end_dtc":"2024-11-28","visit":null},{"seq":"233","trt":"IRBESARTAN","dose":"300.0","doseu":null,"dosef":"QD","route":"ORAL","start_dtc":"2024-11-29","end_dtc":"2024-11-29","visit":null},{"seq":"234","trt":"IRBESARTAN","dose":"300.0","doseu":null,"dosef":"QD","route":"ORAL","start_dtc":"2024-11-30","end_dtc":"2024-11-30","visit":null},{"seq":"235","trt":"IRBESARTAN","dose":"300.0","doseu":null,"dosef":"QD","route":"ORAL","start_dtc":"2024-12-01","end_dtc":"2024-12-01","visit":null},{"seq":"236","trt":"IRBESARTAN","dose":"300.0","doseu":null,"dosef":"QD","route":"ORAL","start_dtc":"2024-12-02","end_dtc":"2024-12-02","visit":null},{"seq":"237","trt":"IRBESARTAN","dose":"300.0","doseu":null,"dosef":"QD","route":"ORAL","start_dtc":"2024-12-03","end_dtc":"2024-12-03","visit":null},{"seq":"238","trt":"IRBESARTAN","dose":"300.0","doseu":null,"dosef":"QD","route":"ORAL","start_dtc":"2024-12-04","end_dtc":"2024-12-04","visit":null},{"seq":"239","trt":"IRBESARTAN","dose":"300.0","doseu":null,"dosef":"QD","route":"ORAL","start_dtc":"2024-12-05","end_dtc":"2024-12-05","visit":null},{"seq":"240","trt":"IRBESARTAN","dose":"300.0","doseu":null,"dosef":"QD","route":"ORAL","start_dtc":"2024-12-06","end_dtc":"2024-12-06","visit":null},{"seq":"241","trt":"IRBESARTAN","dose":"300.0","doseu":null,"dosef":"QD","route":"ORAL","start_dtc":"2024-12-07","end_dtc":"2024-12-07","visit":null},{"seq":"242","trt":"IRBESARTAN","dose":null,"doseu":null,"dosef":"QD","route":"ORAL","start_dtc":"2024-12-08","end_dtc":"2024-12-08","visit":null},{"seq":"243","trt":"IRBESARTAN","dose":"300.0","doseu":null,"dosef":"QD","route":"ORAL","start_dtc":"2024-12-09","end_dtc":"2024-12-09","visit":null},{"seq":"244","trt":"IRBESARTAN","dose":"300.0","doseu":null,"dosef":"QD","route":"ORAL","start_dtc":"2024-12-10","end_dtc":"2024-12-10","visit":null},{"seq":"245","trt":"IRBESARTAN","dose":"300.0","doseu":null,"dosef":"QD","route":"ORAL","start_dtc":"2024-12-11","end_dtc":"2024-12-11","visit":null},{"seq":"246","trt":"IRBESARTAN","dose":"300.0","doseu":null,"dosef":"QD","route":"ORAL","start_dtc":"2024-12-12","end_dtc":"2024-12-12","visit":null},{"seq":"247","trt":"IRBESARTAN","dose":null,"doseu":null,"dosef":"QD","route":"ORAL","start_dtc":"2024-12-13","end_dtc":"2024-12-13","visit":null},{"seq":"248","trt":"IRBESARTAN","dose":"300.0","doseu":null,"dosef":"QD","route":"ORAL","start_dtc":"2024-12-14","end_dtc":"2024-12-14","visit":null},{"seq":"249","trt":"IRBESARTAN","dose":"300.0","doseu":null,"dosef":"QD","route":"ORAL","start_dtc":"2024-12-15","end_dtc":"2024-12-15","visit":null},{"seq":"250","trt":"IRBESARTAN","dose":"300.0","doseu":null,"dosef":"QD","route":"ORAL","start_dtc":"2024-12-16","end_dtc":"2024-12-16","visit":"WEEK 36"},{"seq":"251","trt":"IRBESARTAN","dose":"300.0","doseu":null,"dosef":"QD","route":"ORAL","start_dtc":"2024-12-17","end_dtc":"2024-12-17","visit":"WEEK 36"},{"seq":"252","trt":"IRBESARTAN","dose":null,"doseu":null,"dosef":"QD","route":"ORAL","start_dtc":"2024-12-18","end_dtc":"2024-12-18","visit":"WEEK 36"},{"seq":"253","trt":"IRBESARTAN","dose":"300.0","doseu":null,"dosef":"QD","route":"ORAL","start_dtc":"2024-12-19","end_dtc":"2024-12-19","visit":"WEEK 36"},{"seq":"254","trt":"IRBESARTAN","dose":"300.0","doseu":null,"dosef":"QD","route":"ORAL","start_dtc":"2024-12-20","end_dtc":"2024-12-20","visit":"WEEK 36"},{"seq":"255","trt":"IRBESARTAN","dose":"300.0","doseu":null,"dosef":"QD","route":"ORAL","start_dtc":"2024-12-21","end_dtc":"2024-12-21","visit":"WEEK 36"},{"seq":"256","trt":"IRBESARTAN","dose":"300.0","doseu":null,"dosef":"QD","route":"ORAL","start_dtc":"2024-12-22","end_dtc":"2024-12-22","visit":"WEEK 36"},{"seq":"257","trt":"IRBESARTAN","dose":"300.0","doseu":null,"dosef":"QD","route":"ORAL","start_dtc":"2024-12-23","end_dtc":"2024-12-23","visit":null},{"seq":"258","trt":"IRBESARTAN","dose":"300.0","doseu":null,"dosef":"QD","route":"ORAL","start_dtc":"2024-12-24","end_dtc":"2024-12-24","visit":null},{"seq":"259","trt":"IRBESARTAN","dose":"300.0","doseu":null,"dosef":"QD","route":"ORAL","start_dtc":"2024-12-25","end_dtc":"2024-12-25","visit":null},{"seq":"260","trt":"IRBESARTAN","dose":"300.0","doseu":null,"dosef":"QD","route":"ORAL","start_dtc":"2024-12-26","end_dtc":"2024-12-26","visit":null},{"seq":"261","trt":"IRBESARTAN","dose":"300.0","doseu":null,"dosef":"QD","route":"ORAL","start_dtc":"2024-12-27","end_dtc":"2024-12-27","visit":null},{"seq":"262","trt":"IRBESARTAN","dose":null,"doseu":null,"dosef":"QD","route":"ORAL","start_dtc":"2024-12-28","end_dtc":"2024-12-28","visit":null},{"seq":"263","trt":"IRBESARTAN","dose":"300.0","doseu":null,"dosef":"QD","route":"ORAL","start_dtc":"2024-12-29","end_dtc":"2024-12-29","visit":null},{"seq":"264","trt":"IRBESARTAN","dose":"300.0","doseu":null,"dosef":"QD","route":"ORAL","start_dtc":"2024-12-30","end_dtc":"2024-12-30","visit":null},{"seq":"265","trt":"IRBESARTAN","dose":"300.0","doseu":null,"dosef":"QD","route":"ORAL","start_dtc":"2024-12-31","end_dtc":"2024-12-31","visit":null},{"seq":"266","trt":"IRBESARTAN","dose":"300.0","doseu":null,"dosef":"QD","route":"ORAL","start_dtc":"2025-01-01","end_dtc":"2025-01-01","visit":null},{"seq":"267","trt":"IRBESARTAN","dose":"300.0","doseu":null,"dosef":"QD","route":"ORAL","start_dtc":"2025-01-02","end_dtc":"2025-01-02","visit":null},{"seq":"268","trt":"IRBESARTAN","dose":"300.0","doseu":null,"dosef":"QD","route":"ORAL","start_dtc":"2025-01-03","end_dtc":"2025-01-03","visit":null},{"seq":"269","trt":"IRBESARTAN","dose":"300.0","doseu":null,"dosef":"QD","route":"ORAL","start_dtc":"2025-01-04","end_dtc":"2025-01-04","visit":null},{"seq":"270","trt":"IRBESARTAN","dose":"300.0","doseu":null,"dosef":"QD","route":"ORAL","start_dtc":"2025-01-05","end_dtc":"2025-01-05","visit":null},{"seq":"271","trt":"IRBESARTAN","dose":"300.0","doseu":null,"dosef":"QD","route":"ORAL","start_dtc":"2025-01-06","end_dtc":"2025-01-06","visit":null},{"seq":"272","trt":"IRBESARTAN","dose":"300.0","doseu":null,"dosef":"QD","route":"ORAL","start_dtc":"2025-01-07","end_dtc":"2025-01-07","visit":null},{"seq":"273","trt":"IRBESARTAN","dose":"300.0","doseu":null,"dosef":"QD","route":"ORAL","start_dtc":"2025-01-08","end_dtc":"2025-01-08","visit":null},{"seq":"274","trt":"IRBESARTAN","dose":"300.0","doseu":null,"dosef":"QD","route":"ORAL","start_dtc":"2025-01-09","end_dtc":"2025-01-09","visit":null},{"seq":"275","trt":"IRBESARTAN","dose":"300.0","doseu":null,"dosef":"QD","route":"ORAL","start_dtc":"2025-01-10","end_dtc":"2025-01-10","visit":null},{"seq":"276","trt":"IRBESARTAN","dose":"300.0","doseu":null,"dosef":"QD","route":"ORAL","start_dtc":"2025-01-11","end_dtc":"2025-01-11","visit":null},{"seq":"277","trt":"IRBESARTAN","dose":"300.0","doseu":null,"dosef":"QD","route":"ORAL","start_dtc":"2025-01-12","end_dtc":"2025-01-12","visit":null},{"seq":"278","trt":"IRBESARTAN","dose":"300.0","doseu":null,"dosef":"QD","route":"ORAL","start_dtc":"2025-01-13","end_dtc":"2025-01-13","visit":null},{"seq":"279","trt":"IRBESARTAN","dose":"300.0","doseu":null,"dosef":"QD","route":"ORAL","start_dtc":"2025-01-14","end_dtc":"2025-01-14","visit":null},{"seq":"280","trt":"IRBESARTAN","dose":"300.0","doseu":null,"dosef":"QD","route":"ORAL","start_dtc":"2025-01-15","end_dtc":"2025-01-15","visit":null},{"seq":"281","trt":"IRBESARTAN","dose":"300.0","doseu":null,"dosef":"QD","route":"ORAL","start_dtc":"2025-01-16","end_dtc":"2025-01-16","visit":null},{"seq":"282","trt":"IRBESARTAN","dose":"300.0","doseu":null,"dosef":"QD","route":"ORAL","start_dtc":"2025-01-17","end_dtc":"2025-01-17","visit":null},{"seq":"283","trt":"IRBESARTAN","dose":"300.0","doseu":null,"dosef":"QD","route":"ORAL","start_dtc":"2025-01-18","end_dtc":"2025-01-18","visit":null},{"seq":"284","trt":"IRBESARTAN","dose":"300.0","doseu":null,"dosef":"QD","route":"ORAL","start_dtc":"2025-01-19","end_dtc":"2025-01-19","visit":null},{"seq":"285","trt":"IRBESARTAN","dose":"300.0","doseu":null,"dosef":"QD","route":"ORAL","start_dtc":"2025-01-20","end_dtc":"2025-01-20","visit":null},{"seq":"286","trt":"IRBESARTAN","dose":"300.0","doseu":null,"dosef":"QD","route":"ORAL","start_dtc":"2025-01-21","end_dtc":"2025-01-21","visit":null},{"seq":"287","trt":"IRBESARTAN","dose":"300.0","doseu":null,"dosef":"QD","route":"ORAL","start_dtc":"2025-01-22","end_dtc":"2025-01-22","visit":null},{"seq":"288","trt":"IRBESARTAN","dose":"300.0","doseu":null,"dosef":"QD","route":"ORAL","start_dtc":"2025-01-23","end_dtc":"2025-01-23","visit":null},{"seq":"289","trt":"IRBESARTAN","dose":"300.0","doseu":null,"dosef":"QD","route":"ORAL","start_dtc":"2025-01-24","end_dtc":"2025-01-24","visit":null},{"seq":"290","trt":"IRBESARTAN","dose":"300.0","doseu":null,"dosef":"QD","route":"ORAL","start_dtc":"2025-01-25","end_dtc":"2025-01-25","visit":null},{"seq":"291","trt":"IRBESARTAN","dose":"300.0","doseu":null,"dosef":"QD","route":"ORAL","start_dtc":"2025-01-26","end_dtc":"2025-01-26","visit":null},{"seq":"292","trt":"IRBESARTAN","dose":"300.0","doseu":null,"dosef":"QD","route":"ORAL","start_dtc":"2025-01-27","end_dtc":"2025-01-27","visit":null},{"seq":"293","trt":"IRBESARTAN","dose":"300.0","doseu":null,"dosef":"QD","route":"ORAL","start_dtc":"2025-01-28","end_dtc":"2025-01-28","visit":null},{"seq":"294","trt":"IRBESARTAN","dose":"300.0","doseu":null,"dosef":"QD","route":"ORAL","start_dtc":"2025-01-29","end_dtc":"2025-01-29","visit":null},{"seq":"295","trt":"IRBESARTAN","dose":"300.0","doseu":null,"dosef":"QD","route":"ORAL","start_dtc":"2025-01-30","end_dtc":"2025-01-30","visit":null},{"seq":"296","trt":"IRBESARTAN","dose":"300.0","doseu":null,"dosef":"QD","route":"ORAL","start_dtc":"2025-01-31","end_dtc":"2025-01-31","visit":null},{"seq":"297","trt":"IRBESARTAN","dose":"300.0","doseu":null,"dosef":"QD","route":"ORAL","start_dtc":"2025-02-01","end_dtc":"2025-02-01","visit":null},{"seq":"298","trt":"IRBESARTAN","dose":"300.0","doseu":null,"dosef":"QD","route":"ORAL","start_dtc":"2025-02-02","end_dtc":"2025-02-02","visit":null},{"seq":"299","trt":"IRBESARTAN","dose":"300.0","doseu":null,"dosef":"QD","route":"ORAL","start_dtc":"2025-02-03","end_dtc":"2025-02-03","visit":null},{"seq":"300","trt":"IRBESARTAN","dose":null,"doseu":null,"dosef":"QD","route":"ORAL","start_dtc":"2025-02-04","end_dtc":"2025-02-04","visit":null},{"seq":"301","trt":"IRBESARTAN","dose":null,"doseu":null,"dosef":"QD","route":"ORAL","start_dtc":"2025-02-05","end_dtc":"2025-02-05","visit":null},{"seq":"302","trt":"IRBESARTAN","dose":null,"doseu":null,"dosef":"QD","route":"ORAL","start_dtc":"2025-02-06","end_dtc":"2025-02-06","visit":null},{"seq":"303","trt":"IRBESARTAN","dose":"300.0","doseu":null,"dosef":"QD","route":"ORAL","start_dtc":"2025-02-07","end_dtc":"2025-02-07","visit":null},{"seq":"304","trt":"IRBESARTAN","dose":null,"doseu":null,"dosef":"QD","route":"ORAL","start_dtc":"2025-02-08","end_dtc":"2025-02-08","visit":null},{"seq":"305","trt":"IRBESARTAN","dose":"300.0","doseu":null,"dosef":"QD","route":"ORAL","start_dtc":"2025-02-09","end_dtc":"2025-02-09","visit":null},{"seq":"306","trt":"IRBESARTAN","dose":null,"doseu":null,"dosef":"QD","route":"ORAL","start_dtc":"2025-02-10","end_dtc":"2025-02-10","visit":null},{"seq":"307","trt":"IRBESARTAN","dose":"300.0","doseu":null,"dosef":"QD","route":"ORAL","start_dtc":"2025-02-11","end_dtc":"2025-02-11","visit":null},{"seq":"308","trt":"IRBESARTAN","dose":"300.0","doseu":null,"dosef":"QD","route":"ORAL","start_dtc":"2025-02-12","end_dtc":"2025-02-12","visit":null},{"seq":"309","trt":"IRBESARTAN","dose":"300.0","doseu":null,"dosef":"QD","route":"ORAL","start_dtc":"2025-02-13","end_dtc":"2025-02-13","visit":null},{"seq":"310","trt":"IRBESARTAN","dose":"300.0","doseu":null,"dosef":"QD","route":"ORAL","start_dtc":"2025-02-14","end_dtc":"2025-02-14","visit":null},{"seq":"311","trt":"IRBESARTAN","dose":"300.0","doseu":null,"dosef":"QD","route":"ORAL","start_dtc":"2025-02-15","end_dtc":"2025-02-15","visit":null},{"seq":"312","trt":"IRBESARTAN","dose":null,"doseu":null,"dosef":"QD","route":"ORAL","start_dtc":"2025-02-16","end_dtc":"2025-02-16","visit":null},{"seq":"313","trt":"IRBESARTAN","dose":"300.0","doseu":null,"dosef":"QD","route":"ORAL","start_dtc":"2025-02-17","end_dtc":"2025-02-17","visit":null},{"seq":"314","trt":"IRBESARTAN","dose":null,"doseu":null,"dosef":"QD","route":"ORAL","start_dtc":"2025-02-18","end_dtc":"2025-02-18","visit":null},{"seq":"315","trt":"IRBESARTAN","dose":"300.0","doseu":null,"dosef":"QD","route":"ORAL","start_dtc":"2025-02-19","end_dtc":"2025-02-19","visit":null},{"seq":"316","trt":"IRBESARTAN","dose":"300.0","doseu":null,"dosef":"QD","route":"ORAL","start_dtc":"2025-02-20","end_dtc":"2025-02-20","visit":null},{"seq":"317","trt":"IRBESARTAN","dose":"300.0","doseu":null,"dosef":"QD","route":"ORAL","start_dtc":"2025-02-21","end_dtc":"2025-02-21","visit":null},{"seq":"318","trt":"IRBESARTAN","dose":"300.0","doseu":null,"dosef":"QD","route":"ORAL","start_dtc":"2025-02-22","end_dtc":"2025-02-22","visit":null},{"seq":"319","trt":"IRBESARTAN","dose":"300.0","doseu":null,"dosef":"QD","route":"ORAL","start_dtc":"2025-02-23","end_dtc":"2025-02-23","visit":null},{"seq":"320","trt":"IRBESARTAN","dose":"300.0","doseu":null,"dosef":"QD","route":"ORAL","start_dtc":"2025-02-24","end_dtc":"2025-02-24","visit":null},{"seq":"321","trt":"IRBESARTAN","dose":"300.0","doseu":null,"dosef":"QD","route":"ORAL","start_dtc":"2025-02-25","end_dtc":"2025-02-25","visit":null},{"seq":"322","trt":"IRBESARTAN","dose":"300.0","doseu":null,"dosef":"QD","route":"ORAL","start_dtc":"2025-02-26","end_dtc":"2025-02-26","visit":null},{"seq":"323","trt":"IRBESARTAN","dose":null,"doseu":null,"dosef":"QD","route":"ORAL","start_dtc":"2025-02-27","end_dtc":"2025-02-27","visit":null},{"seq":"324","trt":"IRBESARTAN","dose":"300.0","doseu":null,"dosef":"QD","route":"ORAL","start_dtc":"2025-02-28","end_dtc":"2025-02-28","visit":null},{"seq":"325","trt":"IRBESARTAN","dose":"300.0","doseu":null,"dosef":"QD","route":"ORAL","start_dtc":"2025-03-01","end_dtc":"2025-03-01","visit":null},{"seq":"326","trt":"IRBESARTAN","dose":"300.0","doseu":null,"dosef":"QD","route":"ORAL","start_dtc":"2025-03-02","end_dtc":"2025-03-02","visit":null},{"seq":"327","trt":"IRBESARTAN","dose":"300.0","doseu":null,"dosef":"QD","route":"ORAL","start_dtc":"2025-03-03","end_dtc":"2025-03-03","visit":null},{"seq":"328","trt":"IRBESARTAN","dose":"300.0","doseu":null,"dosef":"QD","route":"ORAL","start_dtc":"2025-03-04","end_dtc":"2025-03-04","visit":null},{"seq":"329","trt":"IRBESARTAN","dose":"300.0","doseu":null,"dosef":"QD","route":"ORAL","start_dtc":"2025-03-05","end_dtc":"2025-03-05","visit":null},{"seq":"330","trt":"IRBESARTAN","dose":"300.0","doseu":null,"dosef":"QD","route":"ORAL","start_dtc":"2025-03-06","end_dtc":"2025-03-06","visit":null},{"seq":"331","trt":"IRBESARTAN","dose":"300.0","doseu":null,"dosef":"QD","route":"ORAL","start_dtc":"2025-03-07","end_dtc":"2025-03-07","visit":null},{"seq":"332","trt":"IRBESARTAN","dose":null,"doseu":null,"dosef":"QD","route":"ORAL","start_dtc":"2025-03-08","end_dtc":"2025-03-08","visit":null},{"seq":"333","trt":"IRBESARTAN","dose":"300.0","doseu":null,"dosef":"QD","route":"ORAL","start_dtc":"2025-03-09","end_dtc":"2025-03-09","visit":null},{"seq":"334","trt":"IRBESARTAN","dose":"300.0","doseu":null,"dosef":"QD","route":"ORAL","start_dtc":"2025-03-10","end_dtc":"2025-03-10","visit":null},{"seq":"335","trt":"IRBESARTAN","dose":"300.0","doseu":null,"dosef":"QD","route":"ORAL","start_dtc":"2025-03-11","end_dtc":"2025-03-11","visit":null},{"seq":"336","trt":"IRBESARTAN","dose":null,"doseu":null,"dosef":"QD","route":"ORAL","start_dtc":"2025-03-12","end_dtc":"2025-03-12","visit":null},{"seq":"337","trt":"IRBESARTAN","dose":"300.0","doseu":null,"dosef":"QD","route":"ORAL","start_dtc":"2025-03-13","end_dtc":"2025-03-13","visit":null},{"seq":"338","trt":"IRBESARTAN","dose":null,"doseu":null,"dosef":"QD","route":"ORAL","start_dtc":"2025-03-14","end_dtc":"2025-03-14","visit":null},{"seq":"339","trt":"IRBESARTAN","dose":"300.0","doseu":null,"dosef":"QD","route":"ORAL","start_dtc":"2025-03-15","end_dtc":"2025-03-15","visit":null},{"seq":"340","trt":"IRBESARTAN","dose":"300.0","doseu":null,"dosef":"QD","route":"ORAL","start_dtc":"2025-03-16","end_dtc":"2025-03-16","visit":null},{"seq":"341","trt":"IRBESARTAN","dose":"300.0","doseu":null,"dosef":"QD","route":"ORAL","start_dtc":"2025-03-17","end_dtc":"2025-03-17","visit":null},{"seq":"342","trt":"IRBESARTAN","dose":null,"doseu":null,"dosef":"QD","route":"ORAL","start_dtc":"2025-03-18","end_dtc":"2025-03-18","visit":null},{"seq":"343","trt":"IRBESARTAN","dose":"300.0","doseu":null,"dosef":"QD","route":"ORAL","start_dtc":"2025-03-19","end_dtc":"2025-03-19","visit":null},{"seq":"344","trt":"IRBESARTAN","dose":"300.0","doseu":null,"dosef":"QD","route":"ORAL","start_dtc":"2025-03-20","end_dtc":"2025-03-20","visit":null},{"seq":"345","trt":"IRBESARTAN","dose":null,"doseu":null,"dosef":"QD","route":"ORAL","start_dtc":"2025-03-21","end_dtc":"2025-03-21","visit":null},{"seq":"346","trt":"IRBESARTAN","dose":null,"doseu":null,"dosef":"QD","route":"ORAL","start_dtc":"2025-03-22","end_dtc":"2025-03-22","visit":null},{"seq":"347","trt":"IRBESARTAN","dose":"300.0","doseu":null,"dosef":"QD","route":"ORAL","start_dtc":"2025-03-23","end_dtc":"2025-03-23","visit":null},{"seq":"348","trt":"IRBESARTAN","dose":"300.0","doseu":null,"dosef":"QD","route":"ORAL","start_dtc":"2025-03-24","end_dtc":"2025-03-24","visit":null},{"seq":"349","trt":"IRBESARTAN","dose":"300.0","doseu":null,"dosef":"QD","route":"ORAL","start_dtc":"2025-03-25","end_dtc":"2025-03-25","visit":null},{"seq":"350","trt":"IRBESARTAN","dose":"300.0","doseu":null,"dosef":"QD","route":"ORAL","start_dtc":"2025-03-26","end_dtc":"2025-03-26","visit":null},{"seq":"351","trt":"IRBESARTAN","dose":"300.0","doseu":null,"dosef":"QD","route":"ORAL","start_dtc":"2025-03-27","end_dtc":"2025-03-27","visit":null},{"seq":"352","trt":"IRBESARTAN","dose":"300.0","doseu":null,"dosef":"QD","route":"ORAL","start_dtc":"2025-03-28","end_dtc":"2025-03-28","visit":null},{"seq":"353","trt":"IRBESARTAN","dose":"300.0","doseu":null,"dosef":"QD","route":"ORAL","start_dtc":"2025-03-29","end_dtc":"2025-03-29","visit":null},{"seq":"354","trt":"IRBESARTAN","dose":"300.0","doseu":null,"dosef":"QD","route":"ORAL","start_dtc":"2025-03-30","end_dtc":"2025-03-30","visit":null},{"seq":"355","trt":"IRBESARTAN","dose":"300.0","doseu":null,"dosef":"QD","route":"ORAL","start_dtc":"2025-03-31","end_dtc":"2025-03-31","visit":null},{"seq":"356","trt":"IRBESARTAN","dose":"300.0","doseu":null,"dosef":"QD","route":"ORAL","start_dtc":"2025-04-01","end_dtc":"2025-04-01","visit":null},{"seq":"357","trt":"IRBESARTAN","dose":"300.0","doseu":null,"dosef":"QD","route":"ORAL","start_dtc":"2025-04-02","end_dtc":"2025-04-02","visit":null},{"seq":"358","trt":"IRBESARTAN","dose":"300.0","doseu":null,"dosef":"QD","route":"ORAL","start_dtc":"2025-04-03","end_dtc":"2025-04-03","visit":null},{"seq":"359","trt":"IRBESARTAN","dose":"300.0","doseu":null,"dosef":"QD","route":"ORAL","start_dtc":"2025-04-04","end_dtc":"2025-04-04","visit":null},{"seq":"360","trt":"IRBESARTAN","dose":"300.0","doseu":null,"dosef":"QD","route":"ORAL","start_dtc":"2025-04-05","end_dtc":"2025-04-05","visit":null},{"seq":"361","trt":"IRBESARTAN","dose":"300.0","doseu":null,"dosef":"QD","route":"ORAL","start_dtc":"2025-04-06","end_dtc":"2025-04-06","visit":null},{"seq":"362","trt":"IRBESARTAN","dose":"300.0","doseu":null,"dosef":"QD","route":"ORAL","start_dtc":"2025-04-07","end_dtc":"2025-04-07","visit":null},{"seq":"363","trt":"IRBESARTAN","dose":"300.0","doseu":null,"dosef":"QD","route":"ORAL","start_dtc":"2025-04-08","end_dtc":"2025-04-08","visit":null},{"seq":"364","trt":"IRBESARTAN","dose":null,"doseu":null,"dosef":"QD","route":"ORAL","start_dtc":"2025-04-09","end_dtc":"2025-04-09","visit":null},{"seq":"365","trt":"IRBESARTAN","dose":"300.0","doseu":null,"dosef":"QD","route":"ORAL","start_dtc":"2025-04-10","end_dtc":"2025-04-10","visit":null},{"seq":"366","trt":"IRBESARTAN","dose":"300.0","doseu":null,"dosef":"QD","route":"ORAL","start_dtc":"2025-04-11","end_dtc":"2025-04-11","visit":null},{"seq":"367","trt":"IRBESARTAN","dose":"300.0","doseu":null,"dosef":"QD","route":"ORAL","start_dtc":"2025-04-12","end_dtc":"2025-04-12","visit":null},{"seq":"368","trt":"IRBESARTAN","dose":"300.0","doseu":null,"dosef":"QD","route":"ORAL","start_dtc":"2025-04-13","end_dtc":"2025-04-13","visit":null},{"seq":"369","trt":"IRBESARTAN","dose":"300.0","doseu":null,"dosef":"QD","route":"ORAL","start_dtc":"2025-04-14","end_dtc":"2025-04-14","visit":null},{"seq":"370","trt":"IRBESARTAN","dose":"300.0","doseu":null,"dosef":"QD","route":"ORAL","start_dtc":"2025-04-15","end_dtc":"2025-04-15","visit":null},{"seq":"371","trt":"IRBESARTAN","dose":null,"doseu":null,"dosef":"QD","route":"ORAL","start_dtc":"2025-04-16","end_dtc":"2025-04-16","visit":null},{"seq":"372","trt":"IRBESARTAN","dose":null,"doseu":null,"dosef":"QD","route":"ORAL","start_dtc":"2025-04-17","end_dtc":"2025-04-17","visit":null},{"seq":"373","trt":"IRBESARTAN","dose":"300.0","doseu":null,"dosef":"QD","route":"ORAL","start_dtc":"2025-04-18","end_dtc":"2025-04-18","visit":null},{"seq":"374","trt":"IRBESARTAN","dose":null,"doseu":null,"dosef":"QD","route":"ORAL","start_dtc":"2025-04-19","end_dtc":"2025-04-19","visit":null},{"seq":"375","trt":"IRBESARTAN","dose":"300.0","doseu":null,"dosef":"QD","route":"ORAL","start_dtc":"2025-04-20","end_dtc":"2025-04-20","visit":null},{"seq":"376","trt":"IRBESARTAN","dose":null,"doseu":null,"dosef":"QD","route":"ORAL","start_dtc":"2025-04-21","end_dtc":"2025-04-21","visit":null},{"seq":"377","trt":"IRBESARTAN","dose":"300.0","doseu":null,"dosef":"QD","route":"ORAL","start_dtc":"2025-04-22","end_dtc":"2025-04-22","visit":null},{"seq":"378","trt":"IRBESARTAN","dose":"300.0","doseu":null,"dosef":"QD","route":"ORAL","start_dtc":"2025-04-23","end_dtc":"2025-04-23","visit":null},{"seq":"379","trt":"IRBESARTAN","dose":"300.0","doseu":null,"dosef":"QD","route":"ORAL","start_dtc":"2025-04-24","end_dtc":"2025-04-24","visit":null},{"seq":"380","trt":"IRBESARTAN","dose":null,"doseu":null,"dosef":"QD","route":"ORAL","start_dtc":"2025-04-25","end_dtc":"2025-04-25","visit":null}]},"section_7_adverse_events":{"summary":{"total_aes":26,"serious_aes":4,"fatal_aes":0,"by_severity":{"SEVERE":4,"MODERATE":13,"MILD":9},"by_soc":{"Vascular disorders":2,"Blood and lymphatic system disorders":3,"Nervous system disorders":5,"Investigations":3,"Metabolism and nutrition disorders":4,"General disorders and administration site conditions":5,"Gastrointestinal disorders":4}},"events":[{"seq":"1","term":"HYPOTENSION","decod":"Hypotension","llt":"Hypotension","hlt":"Vascular hypotensive disorders","hlgt":"Vascular disorders NEC","soc":"Vascular disorders","bodsys":"Vascular disorders","severity":"SEVERE","serious":"Y","causality":"NOT RELATED","action_taken":"DOSE NOT CHANGED","outcome":"RECOVERING/RESOLVING","fatal":"N","hospitalization":"Y","life_threatening":"N","onset_dtc":"2024-04-11","end_dtc":"2024-06-04","onset_dy":"1","end_dy":"55","duration":null,"epoch":"TREATMENT","visit":null,"supplemental":{"AETRTEM":"Y"}},{"seq":"2","term":"ANAEMIA","decod":"Anaemia","llt":"Anaemia","hlt":"Anaemias NEC","hlgt":"Anaemias nonhaemolytic and marrow depression","soc":"Blood and lymphatic system disorders","bodsys":"Blood and lymphatic system disorders","severity":"MODERATE","serious":"N","causality":"NOT RELATED","action_taken":"DOSE NOT CHANGED","outcome":"RECOVERED/RESOLVED","fatal":"N","hospitalization":"N","life_threatening":"N","onset_dtc":"2024-05-15","end_dtc":"2024-06-26","onset_dy":"35","end_dy":"77","duration":null,"epoch":"TREATMENT","visit":null,"supplemental":{"AETRTEM":"Y"}},{"seq":"3","term":"DIZZINESS","decod":"Dizziness","llt":"Dizziness","hlt":"Dizziness and vertigo symptoms","hlgt":"Neurological signs and symptoms NEC","soc":"Nervous system disorders","bodsys":"Nervous system disorders","severity":"MODERATE","serious":"N","causality":"UNLIKELY RELATED","action_taken":"DOSE NOT CHANGED","outcome":"RECOVERED/RESOLVED","fatal":"N","hospitalization":"N","life_threatening":"N","onset_dtc":"2024-05-16","end_dtc":"2024-05-17","onset_dy":"36","end_dy":"37","duration":null,"epoch":"TREATMENT","visit":null,"supplemental":{"AETRTEM":"Y"}},{"seq":"4","term":"BLOOD CREATININE INCREASED","decod":"Blood creatinine increased","llt":"Blood creatinine increased","hlt":"Renal function analyses","hlgt":"Renal and urinary tract investigations and urinalyses","soc":"Investigations","bodsys":"Investigations","severity":"MODERATE","serious":"N","causality":"NOT RELATED","action_taken":"DOSE NOT CHANGED","outcome":"RECOVERED/RESOLVED","fatal":"N","hospitalization":"N","life_threatening":"N","onset_dtc":"2024-05-21","end_dtc":"2024-05-29","onset_dy":"41","end_dy":"49","duration":null,"epoch":"TREATMENT","visit":null,"supplemental":{"AETRTEM":"Y"}},{"seq":"5","term":"DIZZINESS","decod":"Dizziness","llt":"Dizziness","hlt":"Dizziness and vertigo symptoms","hlgt":"Neurological signs and symptoms NEC","soc":"Nervous system disorders","bodsys":"Nervous system disorders","severity":"MODERATE","serious":"N","causality":"RELATED","action_taken":"DOSE REDUCED","outcome":"RECOVERING/RESOLVING","fatal":"N","hospitalization":"N","life_threatening":"N","onset_dtc":"2024-06-18","end_dtc":"2024-06-25","onset_dy":"69","end_dy":"76","duration":null,"epoch":"TREATMENT","visit":null,"supplemental":{"AETRTEM":"Y"}},{"seq":"6","term":"ANAEMIA","decod":"Anaemia","llt":"Anaemia","hlt":"Anaemias NEC","hlgt":"Anaemias nonhaemolytic and marrow depression","soc":"Blood and lymphatic system disorders","bodsys":"Blood and lymphatic system disorders","severity":"SEVERE","serious":"Y","causality":"NOT RELATED","action_taken":"DOSE NOT CHANGED","outcome":"RECOVERED/RESOLVED","fatal":"N","hospitalization":"Y","life_threatening":"N","onset_dtc":"2024-09-27","end_dtc":"2024-11-24","onset_dy":"170","end_dy":"228","duration":null,"epoch":"TREATMENT","visit":null,"supplemental":{"AETRTEM":"Y"}},{"seq":"7","term":"HYPERKALAEMIA","decod":"Hyperkalaemia","llt":"Hyperkalaemia","hlt":"Electrolyte and fluid balance conditions","hlgt":"Fluid and electrolyte conditions NEC","soc":"Metabolism and nutrition disorders","bodsys":"Metabolism and nutrition disorders","severity":"MILD","serious":"N","causality":"POSSIBLY RELATED","action_taken":"DOSE NOT CHANGED","outcome":"RECOVERING/RESOLVING","fatal":"N","hospitalization":"N","life_threatening":"N","onset_dtc":"2024-11-05","end_dtc":"2024-11-12","onset_dy":"209","end_dy":"216","duration":null,"epoch":"TREATMENT","visit":null,"supplemental":{"AETRTEM":"Y"}},{"seq":"8","term":"BLOOD CREATININE INCREASED","decod":"Blood creatinine increased","llt":"Blood creatinine increased","hlt":"Renal function analyses","hlgt":"Renal and urinary tract investigations and urinalyses","soc":"Investigations","bodsys":"Investigations","severity":"MODERATE","serious":"N","causality":"NOT RELATED","action_taken":"DOSE NOT CHANGED","outcome":"RECOVERED/RESOLVED","fatal":"N","hospitalization":"N","life_threatening":"N","onset_dtc":"2024-12-08","end_dtc":"2024-12-23","onset_dy":"242","end_dy":"257","duration":null,"epoch":"TREATMENT","visit":null,"supplemental":{"AETRTEM":"Y"}},{"seq":"9","term":"OEDEMA PERIPHERAL","decod":"Oedema peripheral","llt":"Oedema peripheral","hlt":"Oedema NEC","hlgt":"Oedema NEC","soc":"General disorders and administration site conditions","bodsys":"General disorders and administration site conditions","severity":"SEVERE","serious":"Y","causality":"POSSIBLY RELATED","action_taken":"DRUG INTERRUPTED","outcome":"NOT RECOVERED/NOT RESOLVED","fatal":"N","hospitalization":"N","life_threatening":"N","onset_dtc":"2024-12-22","end_dtc":null,"onset_dy":"256","end_dy":null,"duration":null,"epoch":"TREATMENT","visit":null,"supplemental":{"AETRTEM":"Y"}},{"seq":"10","term":"DIARRHOEA","decod":"Diarrhoea","llt":"Diarrhoea","hlt":"Diarrhoea (excl infective)","hlgt":"Gastrointestinal motility and defaecation conditions","soc":"Gastrointestinal disorders","bodsys":"Gastrointestinal disorders","severity":"MILD","serious":"N","causality":"UNLIKELY RELATED","action_taken":"DOSE NOT CHANGED","outcome":"RECOVERED/RESOLVED","fatal":"N","hospitalization":"N","life_threatening":"N","onset_dtc":"2025-01-18","end_dtc":"2025-01-20","onset_dy":"283","end_dy":"285","duration":null,"epoch":"TREATMENT","visit":null,"supplemental":{"AETRTEM":"Y"}},{"seq":"11","term":"NAUSEA","decod":"Nausea","llt":"Nausea","hlt":"Nausea and vomiting symptoms","hlgt":"Gastrointestinal signs and symptoms","soc":"Gastrointestinal disorders","bodsys":"Gastrointestinal disorders","severity":"MODERATE","serious":"N","causality":"UNLIKELY RELATED","action_taken":"DOSE NOT CHANGED","outcome":"RECOVERING/RESOLVING","fatal":"N","hospitalization":"N","life_threatening":"N","onset_dtc":"2025-02-08","end_dtc":"2025-02-10","onset_dy":"304","end_dy":"306","duration":null,"epoch":"TREATMENT","visit":null,"supplemental":{"AETRTEM":"Y"}},{"seq":"12","term":"HEADACHE","decod":"Headache","llt":"Headache","hlt":"Headaches NEC","hlgt":"Headaches","soc":"Nervous system disorders","bodsys":"Nervous system disorders","severity":"SEVERE","serious":"Y","causality":"NOT RELATED","action_taken":"DOSE NOT CHANGED","outcome":"RECOVERING/RESOLVING","fatal":"N","hospitalization":"Y","life_threatening":"N","onset_dtc":"2025-03-13","end_dtc":"2025-03-25","onset_dy":"337","end_dy":"349","duration":null,"epoch":"TREATMENT","visit":null,"supplemental":{"AETRTEM":"Y"}},{"seq":"13","term":"OEDEMA PERIPHERAL","decod":"Oedema peripheral","llt":"Oedema peripheral","hlt":"Oedema NEC","hlgt":"Oedema NEC","soc":"General disorders and administration site conditions","bodsys":"General disorders and administration site conditions","severity":"MILD","serious":"N","causality":"PROBABLY RELATED","action_taken":"DOSE REDUCED","outcome":"RECOVERING/RESOLVING","fatal":"N","hospitalization":"N","life_threatening":"N","onset_dtc":"2025-04-06","end_dtc":"2025-04-16","onset_dy":"361","end_dy":"371","duration":null,"epoch":"TREATMENT","visit":null,"supplemental":{"AETRTEM":"Y"}},{"seq":"14","term":"BLOOD CREATININE INCREASED","decod":"Blood creatinine increased","llt":"Blood creatinine increased","hlt":"Renal function analyses","hlgt":"Renal and urinary tract investigations and urinalyses","soc":"Investigations","bodsys":"Investigations","severity":"MILD","serious":"N","causality":"NOT RELATED","action_taken":"DOSE NOT CHANGED","outcome":"RECOVERED/RESOLVED","fatal":"N","hospitalization":"N","life_threatening":"N","onset_dtc":"2025-04-10","end_dtc":"2025-04-12","onset_dy":"365","end_dy":"367","duration":null,"epoch":"TREATMENT","visit":null,"supplemental":{"AETRTEM":"Y"}},{"seq":"15","term":"FATIGUE","decod":"Fatigue","llt":"Fatigue","hlt":"Asthenic conditions","hlgt":"General system disorders NEC","soc":"General disorders and administration site conditions","bodsys":"General disorders and administration site conditions","severity":"MODERATE","serious":"N","causality":"NOT RELATED","action_taken":"DOSE NOT CHANGED","outcome":"RECOVERED/RESOLVED","fatal":"N","hospitalization":"N","life_threatening":"N","onset_dtc":"2025-06-16","end_dtc":"2025-06-28","onset_dy":"432","end_dy":"444","duration":null,"epoch":"TREATMENT","visit":null,"supplemental":{"AETRTEM":"Y"}},{"seq":"16","term":"OEDEMA PERIPHERAL","decod":"Oedema peripheral","llt":"Oedema peripheral","hlt":"Oedema NEC","hlgt":"Oedema NEC","soc":"General disorders and administration site conditions","bodsys":"General disorders and administration site conditions","severity":"MODERATE","serious":"N","causality":"NOT RELATED","action_taken":"DOSE NOT CHANGED","outcome":"NOT RECOVERED/NOT RESOLVED","fatal":"N","hospitalization":"N","life_threatening":"N","onset_dtc":"2025-07-05","end_dtc":null,"onset_dy":"451","end_dy":null,"duration":null,"epoch":"TREATMENT","visit":null,"supplemental":{"AETRTEM":"Y"}},{"seq":"17","term":"HYPERKALAEMIA","decod":"Hyperkalaemia","llt":"Hyperkalaemia","hlt":"Electrolyte and fluid balance conditions","hlgt":"Fluid and electrolyte conditions NEC","soc":"Metabolism and nutrition disorders","bodsys":"Metabolism and nutrition disorders","severity":"MODERATE","serious":"N","causality":"NOT RELATED","action_taken":"DOSE NOT CHANGED","outcome":"RECOVERING/RESOLVING","fatal":"N","hospitalization":"N","life_threatening":"N","onset_dtc":"2025-07-05","end_dtc":"2025-07-12","onset_dy":"451","end_dy":"458","duration":null,"epoch":"TREATMENT","visit":null,"supplemental":{"AETRTEM":"Y"}},{"seq":"18","term":"DIZZINESS","decod":"Dizziness","llt":"Dizziness","hlt":"Dizziness and vertigo symptoms","hlgt":"Neurological signs and symptoms NEC","soc":"Nervous system disorders","bodsys":"Nervous system disorders","severity":"MODERATE","serious":"N","causality":"UNLIKELY RELATED","action_taken":"DOSE NOT CHANGED","outcome":"RECOVERED/RESOLVED","fatal":"N","hospitalization":"N","life_threatening":"N","onset_dtc":"2025-07-08","end_dtc":"2025-07-10","onset_dy":"454","end_dy":"456","duration":null,"epoch":"TREATMENT","visit":null,"supplemental":{"AETRTEM":"Y"}},{"seq":"19","term":"ANAEMIA","decod":"Anaemia","llt":"Anaemia","hlt":"Anaemias NEC","hlgt":"Anaemias nonhaemolytic and marrow depression","soc":"Blood and lymphatic system disorders","bodsys":"Blood and lymphatic system disorders","severity":"MILD","serious":"N","causality":"NOT RELATED","action_taken":"DOSE NOT CHANGED","outcome":"RECOVERED/RESOLVED","fatal":"N","hospitalization":"N","life_threatening":"N","onset_dtc":"2025-07-09","end_dtc":"2025-07-21","onset_dy":"455","end_dy":"467","duration":null,"epoch":"TREATMENT","visit":null,"supplemental":{"AETRTEM":"Y"}},{"seq":"20","term":"HYPERKALAEMIA","decod":"Hyperkalaemia","llt":"Hyperkalaemia","hlt":"Electrolyte and fluid balance conditions","hlgt":"Fluid and electrolyte conditions NEC","soc":"Metabolism and nutrition disorders","bodsys":"Metabolism and nutrition disorders","severity":"MILD","serious":"N","causality":"NOT RELATED","action_taken":"DOSE NOT CHANGED","outcome":"RECOVERED/RESOLVED","fatal":"N","hospitalization":"N","life_threatening":"N","onset_dtc":"2025-07-18","end_dtc":"2025-07-26","onset_dy":"464","end_dy":"472","duration":null,"epoch":"TREATMENT","visit":null,"supplemental":{"AETRTEM":"Y"}},{"seq":"21","term":"NAUSEA","decod":"Nausea","llt":"Nausea","hlt":"Nausea and vomiting symptoms","hlgt":"Gastrointestinal signs and symptoms","soc":"Gastrointestinal disorders","bodsys":"Gastrointestinal disorders","severity":"MODERATE","serious":"N","causality":"UNLIKELY RELATED","action_taken":"DOSE NOT CHANGED","outcome":"RECOVERED/RESOLVED","fatal":"N","hospitalization":"N","life_threatening":"N","onset_dtc":"2025-08-29","end_dtc":"2025-09-02","onset_dy":"506","end_dy":"510","duration":null,"epoch":"TREATMENT","visit":null,"supplemental":{"AETRTEM":"Y"}},{"seq":"22","term":"OEDEMA PERIPHERAL","decod":"Oedema peripheral","llt":"Oedema peripheral","hlt":"Oedema NEC","hlgt":"Oedema NEC","soc":"General disorders and administration site conditions","bodsys":"General disorders and administration site conditions","severity":"MODERATE","serious":"N","causality":"NOT RELATED","action_taken":"DOSE NOT CHANGED","outcome":"RECOVERED/RESOLVED","fatal":"N","hospitalization":"N","life_threatening":"N","onset_dtc":"2025-09-11","end_dtc":"2025-09-28","onset_dy":"519","end_dy":"536","duration":null,"epoch":"TREATMENT","visit":null,"supplemental":{"AETRTEM":"Y"}},{"seq":"23","term":"HYPOTENSION","decod":"Hypotension","llt":"Hypotension","hlt":"Vascular hypotensive disorders","hlgt":"Vascular disorders NEC","soc":"Vascular disorders","bodsys":"Vascular disorders","severity":"MILD","serious":"N","causality":"NOT RELATED","action_taken":"DOSE NOT CHANGED","outcome":"NOT RECOVERED/NOT RESOLVED","fatal":"N","hospitalization":"N","life_threatening":"N","onset_dtc":"2025-12-27","end_dtc":null,"onset_dy":"626","end_dy":null,"duration":null,"epoch":"TREATMENT","visit":null,"supplemental":{"AETRTEM":"Y"}},{"seq":"24","term":"NAUSEA","decod":"Nausea","llt":"Nausea","hlt":"Nausea and vomiting symptoms","hlgt":"Gastrointestinal signs and symptoms","soc":"Gastrointestinal disorders","bodsys":"Gastrointestinal disorders","severity":"MILD","serious":"N","causality":"NOT RELATED","action_taken":"DOSE NOT CHANGED","outcome":"RECOVERING/RESOLVING","fatal":"N","hospitalization":"N","life_threatening":"N","onset_dtc":"2026-01-09","end_dtc":"2026-01-12","onset_dy":"639","end_dy":"642","duration":null,"epoch":"TREATMENT","visit":null,"supplemental":{"AETRTEM":"Y"}},{"seq":"25","term":"DIZZINESS","decod":"Dizziness","llt":"Dizziness","hlt":"Dizziness and vertigo symptoms","hlgt":"Neurological signs and symptoms NEC","soc":"Nervous system disorders","bodsys":"Nervous system disorders","severity":"MODERATE","serious":"N","causality":"NOT RELATED","action_taken":"DOSE NOT CHANGED","outcome":"RECOVERED/RESOLVED","fatal":"N","hospitalization":"N","life_threatening":"N","onset_dtc":"2026-03-01","end_dtc":"2026-03-29","onset_dy":"690","end_dy":"718","duration":null,"epoch":"TREATMENT","visit":null,"supplemental":{"AETRTEM":"Y"}},{"seq":"26","term":"HYPERKALAEMIA","decod":"Hyperkalaemia","llt":"Hyperkalaemia","hlt":"Electrolyte and fluid balance conditions","hlgt":"Fluid and electrolyte conditions NEC","soc":"Metabolism and nutrition disorders","bodsys":"Metabolism and nutrition disorders","severity":"MILD","serious":"N","causality":"NOT RELATED","action_taken":"DOSE NOT CHANGED","outcome":"RECOVERED/RESOLVED","fatal":"N","hospitalization":"N","life_threatening":"N","onset_dtc":"2026-03-18","end_dtc":"2026-03-30","onset_dy":"707","end_dy":"719","duration":null,"epoch":"TREATMENT","visit":null,"supplemental":{"AETRTEM":"Y"}}]},"section_8_laboratory_results":{"summary":{"total_records":84,"abnormal_count":21,"abnormal_pct":25.0},"shift_summary":[{"testcd":"ALT","baseline_value":31.47,"baseline_nrind":"NORMAL","worst_post_baseline_value":31.49,"worst_post_baseline_nrind":"NORMAL","worst_visit":"BASELINE"},{"testcd":"AST","baseline_value":5.58,"baseline_nrind":"LOW","worst_post_baseline_value":9.29,"worst_post_baseline_nrind":"LOW","worst_visit":"WEEK 84"},{"testcd":"CREAT","baseline_value":95.57,"baseline_nrind":"NORMAL","worst_post_baseline_value":98.79,"worst_post_baseline_nrind":"NORMAL","worst_visit":"WEEK 8"},{"testcd":"GLUC","baseline_value":5.11,"baseline_nrind":"NORMAL","worst_post_baseline_value":5.09,"worst_post_baseline_nrind":"NORMAL","worst_visit":"WEEK 8"},{"testcd":"HGB","baseline_value":129.27,"baseline_nrind":"LOW","worst_post_baseline_value":95.78,"worst_post_baseline_nrind":"LOW","worst_visit":"WEEK 24"},{"testcd":"PLAT","baseline_value":232.54,"baseline_nrind":"NORMAL","worst_post_baseline_value":287.86,"worst_post_baseline_nrind":"NORMAL","worst_visit":"WEEK 12"},{"testcd":"WBC","baseline_value":8.32,"baseline_nrind":"NORMAL","worst_post_baseline_value":9.19,"worst_post_baseline_nrind":"NORMAL","worst_visit":"WEEK 84"}],"results":[{"seq":"1","testcd":"ALT","test":"Alanine Aminotransferase","cat":"CHEMISTRY","orres":"31.47","orresu":"U/L","stresc":"31.47","stresn":"31.47","stresu":"U/L","stnrlo":"7","stnrhi":"56","nrind":"NORMAL","fast":null,"dtc":"2024-02-05","dy":"-66","visit":"SCREENING","visitnum":"1.0","epoch":"SCREENING","spec":null,"method":null},{"seq":"2","testcd":"AST","test":"Aspartate Aminotransferase","cat":"CHEMISTRY","orres":"5.58","orresu":"U/L","stresc":"5.58","stresn":"5.58","stresu":"U/L","stnrlo":"10","stnrhi":"40","nrind":"LOW","fast":null,"dtc":"2024-02-05","dy":"-66","visit":"SCREENING","visitnum":"1.0","epoch":"SCREENING","spec":null,"method":null},{"seq":"3","testcd":"CREAT","test":"Creatinine","cat":"CHEMISTRY","orres":"95.57","orresu":"umol/L","stresc":"95.57","stresn":"95.57","stresu":"umol/L","stnrlo":"62","stnrhi":"106","nrind":"NORMAL","fast":null,"dtc":"2024-02-05","dy":"-66","visit":"SCREENING","visitnum":"1.0","epoch":"SCREENING","spec":null,"method":null},{"seq":"4","testcd":"GLUC","test":"Glucose","cat":"CHEMISTRY","orres":"5.11","orresu":"mmol/L","stresc":"5.11","stresn":"5.11","stresu":"mmol/L","stnrlo":"3.9","stnrhi":"5.6","nrind":"NORMAL","fast":null,"dtc":"2024-02-05","dy":"-66","visit":"SCREENING","visitnum":"1.0","epoch":"SCREENING","spec":null,"method":null},{"seq":"5","testcd":"HGB","test":"Hemoglobin","cat":"HEMATOLOGY","orres":"129.27","orresu":"g/L","stresc":"129.27","stresn":"129.27","stresu":"g/L","stnrlo":"130","stnrhi":"175","nrind":"LOW","fast":null,"dtc":"2024-02-05","dy":"-66","visit":"SCREENING","visitnum":"1.0","epoch":"SCREENING","spec":null,"method":null},{"seq":"6","testcd":"PLAT","test":"Platelets","cat":"HEMATOLOGY","orres":"232.54","orresu":"10^9/L","stresc":"232.54","stresn":"232.54","stresu":"10^9/L","stnrlo":"150","stnrhi":"400","nrind":"NORMAL","fast":null,"dtc":"2024-02-05","dy":"-66","visit":"SCREENING","visitnum":"1.0","epoch":"SCREENING","spec":null,"method":null},{"seq":"7","testcd":"WBC","test":"Leukocytes","cat":"HEMATOLOGY","orres":"8.32","orresu":"10^9/L","stresc":"8.32","stresn":"8.32","stresu":"10^9/L","stnrlo":"4.0","stnrhi":"11.0","nrind":"NORMAL","fast":null,"dtc":"2024-02-05","dy":"-66","visit":"SCREENING","visitnum":"1.0","epoch":"SCREENING","spec":null,"method":null},{"seq":"8","testcd":"ALT","test":"Alanine Aminotransferase","cat":"CHEMISTRY","orres":"31.49","orresu":"U/L","stresc":"31.49","stresn":"31.49","stresu":"U/L","stnrlo":"7","stnrhi":"56","nrind":"NORMAL","fast":null,"dtc":"2024-04-11","dy":"1","visit":"BASELINE","visitnum":"2.0","epoch":"TREATMENT","spec":null,"method":null},{"seq":"9","testcd":"AST","test":"Aspartate Aminotransferase","cat":"CHEMISTRY","orres":"6.31","orresu":"U/L","stresc":"6.31","stresn":"6.31","stresu":"U/L","stnrlo":"10","stnrhi":"40","nrind":"LOW","fast":null,"dtc":"2024-04-11","dy":"1","visit":"BASELINE","visitnum":"2.0","epoch":"TREATMENT","spec":null,"method":null},{"seq":"10","testcd":"CREAT","test":"Creatinine","cat":"CHEMISTRY","orres":"94.85","orresu":"umol/L","stresc":"94.85","stresn":"94.85","stresu":"umol/L","stnrlo":"62","stnrhi":"106","nrind":"NORMAL","fast":null,"dtc":"2024-04-11","dy":"1","visit":"BASELINE","visitnum":"2.0","epoch":"TREATMENT","spec":null,"method":null},{"seq":"11","testcd":"GLUC","test":"Glucose","cat":"CHEMISTRY","orres":"5.03","orresu":"mmol/L","stresc":"5.03","stresn":"5.03","stresu":"mmol/L","stnrlo":"3.9","stnrhi":"5.6","nrind":"NORMAL","fast":null,"dtc":"2024-04-11","dy":"1","visit":"BASELINE","visitnum":"2.0","epoch":"TREATMENT","spec":null,"method":null},{"seq":"12","testcd":"HGB","test":"Hemoglobin","cat":"HEMATOLOGY","orres":"130.52","orresu":"g/L","stresc":"130.52","stresn":"130.52","stresu":"g/L","stnrlo":"130","stnrhi":"175","nrind":"NORMAL","fast":null,"dtc":"2024-04-11","dy":"1","visit":"BASELINE","visitnum":"2.0","epoch":"TREATMENT","spec":null,"method":null},{"seq":"13","testcd":"PLAT","test":"Platelets","cat":"HEMATOLOGY","orres":"242.12","orresu":"10^9/L","stresc":"242.12","stresn":"242.12","stresu":"10^9/L","stnrlo":"150","stnrhi":"400","nrind":"NORMAL","fast":null,"dtc":"2024-04-11","dy":"1","visit":"BASELINE","visitnum":"2.0","epoch":"TREATMENT","spec":null,"method":null},{"seq":"14","testcd":"WBC","test":"Leukocytes","cat":"HEMATOLOGY","orres":"9.06","orresu":"10^9/L","stresc":"9.06","stresn":"9.06","stresu":"10^9/L","stnrlo":"4.0","stnrhi":"11.0","nrind":"NORMAL","fast":null,"dtc":"2024-04-11","dy":"1","visit":"BASELINE","visitnum":"2.0","epoch":"TREATMENT","spec":null,"method":null},{"seq":"15","testcd":"ALT","test":"Alanine Aminotransferase","cat":"CHEMISTRY","orres":"31.07","orresu":"U/L","stresc":"31.07","stresn":"31.07","stresu":"U/L","stnrlo":"7","stnrhi":"56","nrind":"NORMAL","fast":null,"dtc":"2024-04-28","dy":"18","visit":"WEEK 2","visitnum":"3.0","epoch":"TREATMENT","spec":null,"method":null},{"seq":"16","testcd":"AST","test":"Aspartate Aminotransferase","cat":"CHEMISTRY","orres":"5.93","orresu":"U/L","stresc":"5.93","stresn":"5.93","stresu":"U/L","stnrlo":"10","stnrhi":"40","nrind":"LOW","fast":null,"dtc":"2024-04-28","dy":"18","visit":"WEEK 2","visitnum":"3.0","epoch":"TREATMENT","spec":null,"method":null},{"seq":"17","testcd":"CREAT","test":"Creatinine","cat":"CHEMISTRY","orres":null,"orresu":null,"stresc":null,"stresn":null,"stresu":null,"stnrlo":null,"stnrhi":null,"nrind":null,"fast":null,"dtc":"2024-04-28","dy":"18","visit":"WEEK 2","visitnum":"3.0","epoch":"TREATMENT","spec":null,"method":null},{"seq":"18","testcd":"GLUC","test":"Glucose","cat":"CHEMISTRY","orres":"4.79","orresu":"mmol/L","stresc":"4.79","stresn":"4.79","stresu":"mmol/L","stnrlo":"3.9","stnrhi":"5.6","nrind":"NORMAL","fast":null,"dtc":"2024-04-28","dy":"18","visit":"WEEK 2","visitnum":"3.0","epoch":"TREATMENT","spec":null,"method":null},{"seq":"19","testcd":"HGB","test":"Hemoglobin","cat":"HEMATOLOGY","orres":"130.23","orresu":"g/L","stresc":"130.23","stresn":"130.23","stresu":"g/L","stnrlo":"130","stnrhi":"175","nrind":"NORMAL","fast":null,"dtc":"2024-04-28","dy":"18","visit":"WEEK 2","visitnum":"3.0","epoch":"TREATMENT","spec":null,"method":null},{"seq":"20","testcd":"PLAT","test":"Platelets","cat":"HEMATOLOGY","orres":"235.28","orresu":"10^9/L","stresc":"235.28","stresn":"235.28","stresu":"10^9/L","stnrlo":"150","stnrhi":"400","nrind":"NORMAL","fast":null,"dtc":"2024-04-28","dy":"18","visit":"WEEK 2","visitnum":"3.0","epoch":"TREATMENT","spec":null,"method":null},{"seq":"21","testcd":"WBC","test":"Leukocytes","cat":"HEMATOLOGY","orres":"8.3","orresu":"10^9/L","stresc":"8.3","stresn":"8.3","stresu":"10^9/L","stnrlo":"4.0","stnrhi":"11.0","nrind":"NORMAL","fast":null,"dtc":"2024-04-28","dy":"18","visit":"WEEK 2","visitnum":"3.0","epoch":"TREATMENT","spec":null,"method":null},{"seq":"22","testcd":"ALT","test":"Alanine Aminotransferase","cat":"CHEMISTRY","orres":"29.94","orresu":"U/L","stresc":"29.94","stresn":"29.94","stresu":"U/L","stnrlo":"7","stnrhi":"56","nrind":"NORMAL","fast":null,"dtc":"2024-05-07","dy":"27","visit":"WEEK 4","visitnum":"4.0","epoch":"TREATMENT","spec":null,"method":null},{"seq":"23","testcd":"AST","test":"Aspartate Aminotransferase","cat":"CHEMISTRY","orres":"6.84","orresu":"U/L","stresc":"6.84","stresn":"6.84","stresu":"U/L","stnrlo":"10","stnrhi":"40","nrind":"LOW","fast":null,"dtc":"2024-05-07","dy":"27","visit":"WEEK 4","visitnum":"4.0","epoch":"TREATMENT","spec":null,"method":null},{"seq":"24","testcd":"CREAT","test":"Creatinine","cat":"CHEMISTRY","orres":"95.42","orresu":"umol/L","stresc":"95.42","stresn":"95.42","stresu":"umol/L","stnrlo":"62","stnrhi":"106","nrind":"NORMAL","fast":null,"dtc":"2024-05-07","dy":"27","visit":"WEEK 4","visitnum":"4.0","epoch":"TREATMENT","spec":null,"method":null},{"seq":"25","testcd":"GLUC","test":"Glucose","cat":"CHEMISTRY","orres":"4.94","orresu":"mmol/L","stresc":"4.94","stresn":"4.94","stresu":"mmol/L","stnrlo":"3.9","stnrhi":"5.6","nrind":"NORMAL","fast":null,"dtc":"2024-05-07","dy":"27","visit":"WEEK 4","visitnum":"4.0","epoch":"TREATMENT","spec":null,"method":null},{"seq":"26","testcd":"HGB","test":"Hemoglobin","cat":"HEMATOLOGY","orres":"128.21","orresu":"g/L","stresc":"128.21","stresn":"128.21","stresu":"g/L","stnrlo":"130","stnrhi":"175","nrind":"LOW","fast":null,"dtc":"2024-05-07","dy":"27","visit":"WEEK 4","visitnum":"4.0","epoch":"TREATMENT","spec":null,"method":null},{"seq":"27","testcd":"PLAT","test":"Platelets","cat":"HEMATOLOGY","orres":"265.03","orresu":"10^9/L","stresc":"265.03","stresn":"265.03","stresu":"10^9/L","stnrlo":"150","stnrhi":"400","nrind":"NORMAL","fast":null,"dtc":"2024-05-07","dy":"27","visit":"WEEK 4","visitnum":"4.0","epoch":"TREATMENT","spec":null,"method":null},{"seq":"28","testcd":"WBC","test":"Leukocytes","cat":"HEMATOLOGY","orres":"8.47","orresu":"10^9/L","stresc":"8.47","stresn":"8.47","stresu":"10^9/L","stnrlo":"4.0","stnrhi":"11.0","nrind":"NORMAL","fast":null,"dtc":"2024-05-07","dy":"27","visit":"WEEK 4","visitnum":"4.0","epoch":"TREATMENT","spec":null,"method":null},{"seq":"29","testcd":"ALT","test":"Alanine Aminotransferase","cat":"CHEMISTRY","orres":"29.02","orresu":"U/L","stresc":"29.02","stresn":"29.02","stresu":"U/L","stnrlo":"7","stnrhi":"56","nrind":"NORMAL","fast":null,"dtc":"2024-06-03","dy":"54","visit":"WEEK 8","visitnum":"5.0","epoch":"TREATMENT","spec":null,"method":null},{"seq":"30","testcd":"AST","test":"Aspartate Aminotransferase","cat":"CHEMISTRY","orres":"7.84","orresu":"U/L","stresc":"7.84","stresn":"7.84","stresu":"U/L","stnrlo":"10","stnrhi":"40","nrind":"LOW","fast":null,"dtc":"2024-06-03","dy":"54","visit":"WEEK 8","visitnum":"5.0","epoch":"TREATMENT","spec":null,"method":null},{"seq":"31","testcd":"CREAT","test":"Creatinine","cat":"CHEMISTRY","orres":"98.79","orresu":"umol/L","stresc":"98.79","stresn":"98.79","stresu":"umol/L","stnrlo":"62","stnrhi":"106","nrind":"NORMAL","fast":null,"dtc":"2024-06-03","dy":"54","visit":"WEEK 8","visitnum":"5.0","epoch":"TREATMENT","spec":null,"method":null},{"seq":"32","testcd":"GLUC","test":"Glucose","cat":"CHEMISTRY","orres":"5.09","orresu":"mmol/L","stresc":"5.09","stresn":"5.09","stresu":"mmol/L","stnrlo":"3.9","stnrhi":"5.6","nrind":"NORMAL","fast":null,"dtc":"2024-06-03","dy":"54","visit":"WEEK 8","visitnum":"5.0","epoch":"TREATMENT","spec":null,"method":null},{"seq":"33","testcd":"HGB","test":"Hemoglobin","cat":"HEMATOLOGY","orres":"107.67","orresu":"g/L","stresc":"107.67","stresn":"107.67","stresu":"g/L","stnrlo":"130","stnrhi":"175","nrind":"LOW","fast":null,"dtc":"2024-06-03","dy":"54","visit":"WEEK 8","visitnum":"5.0","epoch":"TREATMENT","spec":null,"method":null},{"seq":"34","testcd":"PLAT","test":"Platelets","cat":"HEMATOLOGY","orres":"282.93","orresu":"10^9/L","stresc":"282.93","stresn":"282.93","stresu":"10^9/L","stnrlo":"150","stnrhi":"400","nrind":"NORMAL","fast":null,"dtc":"2024-06-03","dy":"54","visit":"WEEK 8","visitnum":"5.0","epoch":"TREATMENT","spec":null,"method":null},{"seq":"35","testcd":"WBC","test":"Leukocytes","cat":"HEMATOLOGY","orres":"8.97","orresu":"10^9/L","stresc":"8.97","stresn":"8.97","stresu":"10^9/L","stnrlo":"4.0","stnrhi":"11.0","nrind":"NORMAL","fast":null,"dtc":"2024-06-03","dy":"54","visit":"WEEK 8","visitnum":"5.0","epoch":"TREATMENT","spec":null,"method":null},{"seq":"36","testcd":"ALT","test":"Alanine Aminotransferase","cat":"CHEMISTRY","orres":"29.15","orresu":"U/L","stresc":"29.15","stresn":"29.15","stresu":"U/L","stnrlo":"7","stnrhi":"56","nrind":"NORMAL","fast":null,"dtc":"2024-07-01","dy":"82","visit":"WEEK 12","visitnum":"6.0","epoch":"TREATMENT","spec":null,"method":null},{"seq":"37","testcd":"AST","test":"Aspartate Aminotransferase","cat":"CHEMISTRY","orres":"7.84","orresu":"U/L","stresc":"7.84","stresn":"7.84","stresu":"U/L","stnrlo":"10","stnrhi":"40","nrind":"LOW","fast":null,"dtc":"2024-07-01","dy":"82","visit":"WEEK 12","visitnum":"6.0","epoch":"TREATMENT","spec":null,"method":null},{"seq":"38","testcd":"CREAT","test":"Creatinine","cat":"CHEMISTRY","orres":"95.93","orresu":"umol/L","stresc":"95.93","stresn":"95.93","stresu":"umol/L","stnrlo":"62","stnrhi":"106","nrind":"NORMAL","fast":null,"dtc":"2024-07-01","dy":"82","visit":"WEEK 12","visitnum":"6.0","epoch":"TREATMENT","spec":null,"method":null},{"seq":"39","testcd":"GLUC","test":"Glucose","cat":"CHEMISTRY","orres":"5.02","orresu":"mmol/L","stresc":"5.02","stresn":"5.02","stresu":"mmol/L","stnrlo":"3.9","stnrhi":"5.6","nrind":"NORMAL","fast":null,"dtc":"2024-07-01","dy":"82","visit":"WEEK 12","visitnum":"6.0","epoch":"TREATMENT","spec":null,"method":null},{"seq":"40","testcd":"HGB","test":"Hemoglobin","cat":"HEMATOLOGY","orres":"115.17","orresu":"g/L","stresc":"115.17","stresn":"115.17","stresu":"g/L","stnrlo":"130","stnrhi":"175","nrind":"LOW","fast":null,"dtc":"2024-07-01","dy":"82","visit":"WEEK 12","visitnum":"6.0","epoch":"TREATMENT","spec":null,"method":null},{"seq":"41","testcd":"PLAT","test":"Platelets","cat":"HEMATOLOGY","orres":"287.86","orresu":"10^9/L","stresc":"287.86","stresn":"287.86","stresu":"10^9/L","stnrlo":"150","stnrhi":"400","nrind":"NORMAL","fast":null,"dtc":"2024-07-01","dy":"82","visit":"WEEK 12","visitnum":"6.0","epoch":"TREATMENT","spec":null,"method":null},{"seq":"42","testcd":"WBC","test":"Leukocytes","cat":"HEMATOLOGY","orres":"9.15","orresu":"10^9/L","stresc":"9.15","stresn":"9.15","stresu":"10^9/L","stnrlo":"4.0","stnrhi":"11.0","nrind":"NORMAL","fast":null,"dtc":"2024-07-01","dy":"82","visit":"WEEK 12","visitnum":"6.0","epoch":"TREATMENT","spec":null,"method":null},{"seq":"43","testcd":"ALT","test":"Alanine Aminotransferase","cat":"CHEMISTRY","orres":"30.38","orresu":"U/L","stresc":"30.38","stresn":"30.38","stresu":"U/L","stnrlo":"7","stnrhi":"56","nrind":"NORMAL","fast":null,"dtc":"2024-09-25","dy":"168","visit":"WEEK 24","visitnum":"7.0","epoch":"TREATMENT","spec":null,"method":null},{"seq":"44","testcd":"AST","test":"Aspartate Aminotransferase","cat":"CHEMISTRY","orres":"8.12","orresu":"U/L","stresc":"8.12","stresn":"8.12","stresu":"U/L","stnrlo":"10","stnrhi":"40","nrind":"LOW","fast":null,"dtc":"2024-09-25","dy":"168","visit":"WEEK 24","visitnum":"7.0","epoch":"TREATMENT","spec":null,"method":null},{"seq":"45","testcd":"CREAT","test":"Creatinine","cat":"CHEMISTRY","orres":"94.39","orresu":"umol/L","stresc":"94.39","stresn":"94.39","stresu":"umol/L","stnrlo":"62","stnrhi":"106","nrind":"NORMAL","fast":null,"dtc":"2024-09-25","dy":"168","visit":"WEEK 24","visitnum":"7.0","epoch":"TREATMENT","spec":null,"method":null},{"seq":"46","testcd":"GLUC","test":"Glucose","cat":"CHEMISTRY","orres":"4.95","orresu":"mmol/L","stresc":"4.95","stresn":"4.95","stresu":"mmol/L","stnrlo":"3.9","stnrhi":"5.6","nrind":"NORMAL","fast":null,"dtc":"2024-09-25","dy":"168","visit":"WEEK 24","visitnum":"7.0","epoch":"TREATMENT","spec":null,"method":null},{"seq":"47","testcd":"HGB","test":"Hemoglobin","cat":"HEMATOLOGY","orres":"95.78","orresu":"g/L","stresc":"95.78","stresn":"95.78","stresu":"g/L","stnrlo":"130","stnrhi":"175","nrind":"LOW","fast":null,"dtc":"2024-09-25","dy":"168","visit":"WEEK 24","visitnum":"7.0","epoch":"TREATMENT","spec":null,"method":null},{"seq":"48","testcd":"PLAT","test":"Platelets","cat":"HEMATOLOGY","orres":"277.43","orresu":"10^9/L","stresc":"277.43","stresn":"277.43","stresu":"10^9/L","stnrlo":"150","stnrhi":"400","nrind":"NORMAL","fast":null,"dtc":"2024-09-25","dy":"168","visit":"WEEK 24","visitnum":"7.0","epoch":"TREATMENT","spec":null,"method":null},{"seq":"49","testcd":"WBC","test":"Leukocytes","cat":"HEMATOLOGY","orres":"8.87","orresu":"10^9/L","stresc":"8.87","stresn":"8.87","stresu":"10^9/L","stnrlo":"4.0","stnrhi":"11.0","nrind":"NORMAL","fast":null,"dtc":"2024-09-25","dy":"168","visit":"WEEK 24","visitnum":"7.0","epoch":"TREATMENT","spec":null,"method":null},{"seq":"50","testcd":"ALT","test":"Alanine Aminotransferase","cat":"CHEMISTRY","orres":"28.67","orresu":"U/L","stresc":"28.67","stresn":"28.67","stresu":"U/L","stnrlo":"7","stnrhi":"56","nrind":"NORMAL","fast":null,"dtc":"2025-05-27","dy":"412","visit":"WEEK 58","visitnum":"9.0","epoch":"TREATMENT","spec":null,"method":null},{"seq":"51","testcd":"AST","test":"Aspartate Aminotransferase","cat":"CHEMISTRY","orres":"8.41","orresu":"U/L","stresc":"8.41","stresn":"8.41","stresu":"U/L","stnrlo":"10","stnrhi":"40","nrind":"LOW","fast":null,"dtc":"2025-05-27","dy":"412","visit":"WEEK 58","visitnum":"9.0","epoch":"TREATMENT","spec":null,"method":null},{"seq":"52","testcd":"CREAT","test":"Creatinine","cat":"CHEMISTRY","orres":null,"orresu":null,"stresc":null,"stresn":null,"stresu":null,"stnrlo":null,"stnrhi":null,"nrind":null,"fast":null,"dtc":"2025-05-27","dy":"412","visit":"WEEK 58","visitnum":"9.0","epoch":"TREATMENT","spec":null,"method":null},{"seq":"53","testcd":"GLUC","test":"Glucose","cat":"CHEMISTRY","orres":"4.78","orresu":"mmol/L","stresc":"4.78","stresn":"4.78","stresu":"mmol/L","stnrlo":"3.9","stnrhi":"5.6","nrind":"NORMAL","fast":null,"dtc":"2025-05-27","dy":"412","visit":"WEEK 58","visitnum":"9.0","epoch":"TREATMENT","spec":null,"method":null},{"seq":"54","testcd":"HGB","test":"Hemoglobin","cat":"HEMATOLOGY","orres":null,"orresu":null,"stresc":null,"stresn":null,"stresu":null,"stnrlo":null,"stnrhi":null,"nrind":null,"fast":null,"dtc":"2025-05-27","dy":"412","visit":"WEEK 58","visitnum":"9.0","epoch":"TREATMENT","spec":null,"method":null},{"seq":"55","testcd":"PLAT","test":"Platelets","cat":"HEMATOLOGY","orres":"259.91","orresu":"10^9/L","stresc":"259.91","stresn":"259.91","stresu":"10^9/L","stnrlo":"150","stnrhi":"400","nrind":"NORMAL","fast":null,"dtc":"2025-05-27","dy":"412","visit":"WEEK 58","visitnum":"9.0","epoch":"TREATMENT","spec":null,"method":null},{"seq":"56","testcd":"WBC","test":"Leukocytes","cat":"HEMATOLOGY","orres":"8.98","orresu":"10^9/L","stresc":"8.98","stresn":"8.98","stresu":"10^9/L","stnrlo":"4.0","stnrhi":"11.0","nrind":"NORMAL","fast":null,"dtc":"2025-05-27","dy":"412","visit":"WEEK 58","visitnum":"9.0","epoch":"TREATMENT","spec":null,"method":null},{"seq":"57","testcd":"ALT","test":"Alanine Aminotransferase","cat":"CHEMISTRY","orres":"28.71","orresu":"U/L","stresc":"28.71","stresn":"28.71","stresu":"U/L","stnrlo":"7","stnrhi":"56","nrind":"NORMAL","fast":null,"dtc":"2025-11-22","dy":"591","visit":"WEEK 84","visitnum":"10.0","epoch":"TREATMENT","spec":null,"method":null},{"seq":"58","testcd":"AST","test":"Aspartate Aminotransferase","cat":"CHEMISTRY","orres":"9.29","orresu":"U/L","stresc":"9.29","stresn":"9.29","stresu":"U/L","stnrlo":"10","stnrhi":"40","nrind":"LOW","fast":null,"dtc":"2025-11-22","dy":"591","visit":"WEEK 84","visitnum":"10.0","epoch":"TREATMENT","spec":null,"method":null},{"seq":"59","testcd":"CREAT","test":"Creatinine","cat":"CHEMISTRY","orres":"95.55","orresu":"umol/L","stresc":"95.55","stresn":"95.55","stresu":"umol/L","stnrlo":"62","stnrhi":"106","nrind":"NORMAL","fast":null,"dtc":"2025-11-22","dy":"591","visit":"WEEK 84","visitnum":"10.0","epoch":"TREATMENT","spec":null,"method":null},{"seq":"60","testcd":"GLUC","test":"Glucose","cat":"CHEMISTRY","orres":"4.66","orresu":"mmol/L","stresc":"4.66","stresn":"4.66","stresu":"mmol/L","stnrlo":"3.9","stnrhi":"5.6","nrind":"NORMAL","fast":null,"dtc":"2025-11-22","dy":"591","visit":"WEEK 84","visitnum":"10.0","epoch":"TREATMENT","spec":null,"method":null},{"seq":"61","testcd":"HGB","test":"Hemoglobin","cat":"HEMATOLOGY","orres":"123.79","orresu":"g/L","stresc":"123.79","stresn":"123.79","stresu":"g/L","stnrlo":"130","stnrhi":"175","nrind":"LOW","fast":null,"dtc":"2025-11-22","dy":"591","visit":"WEEK 84","visitnum":"10.0","epoch":"TREATMENT","spec":null,"method":null},{"seq":"62","testcd":"PLAT","test":"Platelets","cat":"HEMATOLOGY","orres":"273.74","orresu":"10^9/L","stresc":"273.74","stresn":"273.74","stresu":"10^9/L","stnrlo":"150","stnrhi":"400","nrind":"NORMAL","fast":null,"dtc":"2025-11-22","dy":"591","visit":"WEEK 84","visitnum":"10.0","epoch":"TREATMENT","spec":null,"method":null},{"seq":"63","testcd":"WBC","test":"Leukocytes","cat":"HEMATOLOGY","orres":"9.19","orresu":"10^9/L","stresc":"9.19","stresn":"9.19","stresu":"10^9/L","stnrlo":"4.0","stnrhi":"11.0","nrind":"NORMAL","fast":null,"dtc":"2025-11-22","dy":"591","visit":"WEEK 84","visitnum":"10.0","epoch":"TREATMENT","spec":null,"method":null},{"seq":"64","testcd":"ALT","test":"Alanine Aminotransferase","cat":"CHEMISTRY","orres":"30.99","orresu":"U/L","stresc":"30.99","stresn":"30.99","stresu":"U/L","stnrlo":"7","stnrhi":"56","nrind":"NORMAL","fast":null,"dtc":"2026-05-21","dy":"771","visit":"WEEK 110","visitnum":"11.0","epoch":"TREATMENT","spec":null,"method":null},{"seq":"65","testcd":"AST","test":"Aspartate Aminotransferase","cat":"CHEMISTRY","orres":"7.94","orresu":"U/L","stresc":"7.94","stresn":"7.94","stresu":"U/L","stnrlo":"10","stnrhi":"40","nrind":"LOW","fast":null,"dtc":"2026-05-21","dy":"771","visit":"WEEK 110","visitnum":"11.0","epoch":"TREATMENT","spec":null,"method":null},{"seq":"66","testcd":"CREAT","test":"Creatinine","cat":"CHEMISTRY","orres":null,"orresu":null,"stresc":null,"stresn":null,"stresu":null,"stnrlo":null,"stnrhi":null,"nrind":null,"fast":null,"dtc":"2026-05-21","dy":"771","visit":"WEEK 110","visitnum":"11.0","epoch":"TREATMENT","spec":null,"method":null},{"seq":"67","testcd":"GLUC","test":"Glucose","cat":"CHEMISTRY","orres":"4.8","orresu":"mmol/L","stresc":"4.8","stresn":"4.8","stresu":"mmol/L","stnrlo":"3.9","stnrhi":"5.6","nrind":"NORMAL","fast":null,"dtc":"2026-05-21","dy":"771","visit":"WEEK 110","visitnum":"11.0","epoch":"TREATMENT","spec":null,"method":null},{"seq":"68","testcd":"HGB","test":"Hemoglobin","cat":"HEMATOLOGY","orres":"122.83","orresu":"g/L","stresc":"122.83","stresn":"122.83","stresu":"g/L","stnrlo":"130","stnrhi":"175","nrind":"LOW","fast":null,"dtc":"2026-05-21","dy":"771","visit":"WEEK 110","visitnum":"11.0","epoch":"TREATMENT","spec":null,"method":null},{"seq":"69","testcd":"PLAT","test":"Platelets","cat":"HEMATOLOGY","orres":"280.79","orresu":"10^9/L","stresc":"280.79","stresn":"280.79","stresu":"10^9/L","stnrlo":"150","stnrhi":"400","nrind":"NORMAL","fast":null,"dtc":"2026-05-21","dy":"771","visit":"WEEK 110","visitnum":"11.0","epoch":"TREATMENT","spec":null,"method":null},{"seq":"70","testcd":"WBC","test":"Leukocytes","cat":"HEMATOLOGY","orres":"9.15","orresu":"10^9/L","stresc":"9.15","stresn":"9.15","stresu":"10^9/L","stnrlo":"4.0","stnrhi":"11.0","nrind":"NORMAL","fast":null,"dtc":"2026-05-21","dy":"771","visit":"WEEK 110","visitnum":"11.0","epoch":"TREATMENT","spec":null,"method":null},{"seq":"71","testcd":"ALT","test":"Alanine Aminotransferase","cat":"CHEMISTRY","orres":"30.52","orresu":"U/L","stresc":"30.52","stresn":"30.52","stresu":"U/L","stnrlo":"7","stnrhi":"56","nrind":"NORMAL","fast":null,"dtc":"2026-06-16","dy":"797","visit":"WEEK 114 EOT","visitnum":"12.0","epoch":"TREATMENT","spec":null,"method":null},{"seq":"72","testcd":"AST","test":"Aspartate Aminotransferase","cat":"CHEMISTRY","orres":"7.93","orresu":"U/L","stresc":"7.93","stresn":"7.93","stresu":"U/L","stnrlo":"10","stnrhi":"40","nrind":"LOW","fast":null,"dtc":"2026-06-16","dy":"797","visit":"WEEK 114 EOT","visitnum":"12.0","epoch":"TREATMENT","spec":null,"method":null},{"seq":"73","testcd":"CREAT","test":"Creatinine","cat":"CHEMISTRY","orres":"95.36","orresu":"umol/L","stresc":"95.36","stresn":"95.36","stresu":"umol/L","stnrlo":"62","stnrhi":"106","nrind":"NORMAL","fast":null,"dtc":"2026-06-16","dy":"797","visit":"WEEK 114 EOT","visitnum":"12.0","epoch":"TREATMENT","spec":null,"method":null},{"seq":"74","testcd":"GLUC","test":"Glucose","cat":"CHEMISTRY","orres":"5.02","orresu":"mmol/L","stresc":"5.02","stresn":"5.02","stresu":"mmol/L","stnrlo":"3.9","stnrhi":"5.6","nrind":"NORMAL","fast":null,"dtc":"2026-06-16","dy":"797","visit":"WEEK 114 EOT","visitnum":"12.0","epoch":"TREATMENT","spec":null,"method":null},{"seq":"75","testcd":"HGB","test":"Hemoglobin","cat":"HEMATOLOGY","orres":"124.08","orresu":"g/L","stresc":"124.08","stresn":"124.08","stresu":"g/L","stnrlo":"130","stnrhi":"175","nrind":"LOW","fast":null,"dtc":"2026-06-16","dy":"797","visit":"WEEK 114 EOT","visitnum":"12.0","epoch":"TREATMENT","spec":null,"method":null},{"seq":"76","testcd":"PLAT","test":"Platelets","cat":"HEMATOLOGY","orres":"284.22","orresu":"10^9/L","stresc":"284.22","stresn":"284.22","stresu":"10^9/L","stnrlo":"150","stnrhi":"400","nrind":"NORMAL","fast":null,"dtc":"2026-06-16","dy":"797","visit":"WEEK 114 EOT","visitnum":"12.0","epoch":"TREATMENT","spec":null,"method":null},{"seq":"77","testcd":"WBC","test":"Leukocytes","cat":"HEMATOLOGY","orres":"8.91","orresu":"10^9/L","stresc":"8.91","stresn":"8.91","stresu":"10^9/L","stnrlo":"4.0","stnrhi":"11.0","nrind":"NORMAL","fast":null,"dtc":"2026-06-16","dy":"797","visit":"WEEK 114 EOT","visitnum":"12.0","epoch":"TREATMENT","spec":null,"method":null},{"seq":"78","testcd":"ALT","test":"Alanine Aminotransferase","cat":"CHEMISTRY","orres":"29.36","orresu":"U/L","stresc":"29.36","stresn":"29.36","stresu":"U/L","stnrlo":"7","stnrhi":"56","nrind":"NORMAL","fast":null,"dtc":"2026-07-21","dy":"832","visit":"SAFETY FU","visitnum":"13.0","epoch":"FOLLOW-UP","spec":null,"method":null},{"seq":"79","testcd":"AST","test":"Aspartate Aminotransferase","cat":"CHEMISTRY","orres":"8.49","orresu":"U/L","stresc":"8.49","stresn":"8.49","stresu":"U/L","stnrlo":"10","stnrhi":"40","nrind":"LOW","fast":null,"dtc":"2026-07-21","dy":"832","visit":"SAFETY FU","visitnum":"13.0","epoch":"FOLLOW-UP","spec":null,"method":null},{"seq":"80","testcd":"CREAT","test":"Creatinine","cat":"CHEMISTRY","orres":"94.24","orresu":"umol/L","stresc":"94.24","stresn":"94.24","stresu":"umol/L","stnrlo":"62","stnrhi":"106","nrind":"NORMAL","fast":null,"dtc":"2026-07-21","dy":"832","visit":"SAFETY FU","visitnum":"13.0","epoch":"FOLLOW-UP","spec":null,"method":null},{"seq":"81","testcd":"GLUC","test":"Glucose","cat":"CHEMISTRY","orres":"5.03","orresu":"mmol/L","stresc":"5.03","stresn":"5.03","stresu":"mmol/L","stnrlo":"3.9","stnrhi":"5.6","nrind":"NORMAL","fast":null,"dtc":"2026-07-21","dy":"832","visit":"SAFETY FU","visitnum":"13.0","epoch":"FOLLOW-UP","spec":null,"method":null},{"seq":"82","testcd":"HGB","test":"Hemoglobin","cat":"HEMATOLOGY","orres":"122.91","orresu":"g/L","stresc":"122.91","stresn":"122.91","stresu":"g/L","stnrlo":"130","stnrhi":"175","nrind":"LOW","fast":null,"dtc":"2026-07-21","dy":"832","visit":"SAFETY FU","visitnum":"13.0","epoch":"FOLLOW-UP","spec":null,"method":null},{"seq":"83","testcd":"PLAT","test":"Platelets","cat":"HEMATOLOGY","orres":"272.79","orresu":"10^9/L","stresc":"272.79","stresn":"272.79","stresu":"10^9/L","stnrlo":"150","stnrhi":"400","nrind":"NORMAL","fast":null,"dtc":"2026-07-21","dy":"832","visit":"SAFETY FU","visitnum":"13.0","epoch":"FOLLOW-UP","spec":null,"method":null},{"seq":"84","testcd":"WBC","test":"Leukocytes","cat":"HEMATOLOGY","orres":"9.02","orresu":"10^9/L","stresc":"9.02","stresn":"9.02","stresu":"10^9/L","stnrlo":"4.0","stnrhi":"11.0","nrind":"NORMAL","fast":null,"dtc":"2026-07-21","dy":"832","visit":"SAFETY FU","visitnum":"13.0","epoch":"FOLLOW-UP","spec":null,"method":null}]},"section_9_vital_signs":{"summary":{"total_records":96},"trends":{"BMI":[{"visit":"SCREENING","visitnum":"1.0","dtc":"2024-02-05","value":"23.8","unit":"kg/m2"},{"visit":"BASELINE","visitnum":"2.0","dtc":"2024-04-11","value":"23.1","unit":"kg/m2"},{"visit":"WEEK 2","visitnum":"3.0","dtc":"2024-04-28","value":"23.4","unit":"kg/m2"},{"visit":"WEEK 4","visitnum":"4.0","dtc":"2024-05-07","value":"24.0","unit":"kg/m2"},{"visit":"WEEK 8","visitnum":"5.0","dtc":"2024-06-03","value":"23.9","unit":"kg/m2"},{"visit":"WEEK 12","visitnum":"6.0","dtc":"2024-07-01","value":"24.3","unit":"kg/m2"},{"visit":"WEEK 24","visitnum":"7.0","dtc":"2024-09-25","value":"24.4","unit":"kg/m2"},{"visit":"WEEK 58","visitnum":"9.0","dtc":"2025-05-27","value":"24.0","unit":"kg/m2"},{"visit":"WEEK 84","visitnum":"10.0","dtc":"2025-11-22","value":"24.0","unit":"kg/m2"},{"visit":"WEEK 110","visitnum":"11.0","dtc":"2026-05-21","value":"24.4","unit":"kg/m2"},{"visit":"WEEK 114 EOT","visitnum":"12.0","dtc":"2026-06-16","value":"24.6","unit":"kg/m2"},{"visit":"SAFETY FU","visitnum":"13.0","dtc":"2026-07-21","value":"25.4","unit":"kg/m2"}],"DIABP":[{"visit":"SCREENING","visitnum":"1.0","dtc":"2024-02-05","value":"69.5","unit":"mmHg"},{"visit":"BASELINE","visitnum":"2.0","dtc":"2024-04-11","value":"52.1","unit":"mmHg"},{"visit":"WEEK 2","visitnum":"3.0","dtc":"2024-04-28","value":"50.1","unit":"mmHg"},{"visit":"WEEK 8","visitnum":"5.0","dtc":"2024-06-03","value":"51.8","unit":"mmHg"},{"visit":"WEEK 12","visitnum":"6.0","dtc":"2024-07-01","value":"69.1","unit":"mmHg"},{"visit":"WEEK 24","visitnum":"7.0","dtc":"2024-09-25","value":"69.1","unit":"mmHg"},{"visit":"WEEK 58","visitnum":"9.0","dtc":"2025-05-27","value":"67.0","unit":"mmHg"},{"visit":"WEEK 84","visitnum":"10.0","dtc":"2025-11-22","value":"65.7","unit":"mmHg"},{"visit":"WEEK 110","visitnum":"11.0","dtc":"2026-05-21","value":"62.8","unit":"mmHg"},{"visit":"WEEK 114 EOT","visitnum":"12.0","dtc":"2026-06-16","value":"62.1","unit":"mmHg"},{"visit":"SAFETY FU","visitnum":"13.0","dtc":"2026-07-21","value":"63.9","unit":"mmHg"}],"HEIGHT":[{"visit":"SCREENING","visitnum":"1.0","dtc":"2024-02-05","value":"181.4","unit":"cm"},{"visit":"BASELINE","visitnum":"2.0","dtc":"2024-04-11","value":"182.0","unit":"cm"},{"visit":"WEEK 2","visitnum":"3.0","dtc":"2024-04-28","value":"181.8","unit":"cm"},{"visit":"WEEK 4","visitnum":"4.0","dtc":"2024-05-07","value":"182.1","unit":"cm"},{"visit":"WEEK 8","visitnum":"5.0","dtc":"2024-06-03","value":"182.7","unit":"cm"},{"visit":"WEEK 12","visitnum":"6.0","dtc":"2024-07-01","value":"182.6","unit":"cm"},{"visit":"WEEK 24","visitnum":"7.0","dtc":"2024-09-25","value":"182.2","unit":"cm"},{"visit":"WEEK 58","visitnum":"9.0","dtc":"2025-05-27","value":"182.6","unit":"cm"},{"visit":"WEEK 84","visitnum":"10.0","dtc":"2025-11-22","value":"181.9","unit":"cm"},{"visit":"WEEK 110","visitnum":"11.0","dtc":"2026-05-21","value":"181.6","unit":"cm"},{"visit":"WEEK 114 EOT","visitnum":"12.0","dtc":"2026-06-16","value":"181.3","unit":"cm"},{"visit":"SAFETY FU","visitnum":"13.0","dtc":"2026-07-21","value":"180.5","unit":"cm"}],"PULSE":[{"visit":"SCREENING","visitnum":"1.0","dtc":"2024-02-05","value":"74.3","unit":"beats/min"},{"visit":"BASELINE","visitnum":"2.0","dtc":"2024-04-11","value":"72.4","unit":"beats/min"},{"visit":"WEEK 2","visitnum":"3.0","dtc":"2024-04-28","value":"76.7","unit":"beats/min"},{"visit":"WEEK 4","visitnum":"4.0","dtc":"2024-05-07","value":"76.2","unit":"beats/min"},{"visit":"WEEK 8","visitnum":"5.0","dtc":"2024-06-03","value":"76.7","unit":"beats/min"},{"visit":"WEEK 12","visitnum":"6.0","dtc":"2024-07-01","value":"78.7","unit":"beats/min"},{"visit":"WEEK 24","visitnum":"7.0","dtc":"2024-09-25","value":"77.7","unit":"beats/min"},{"visit":"WEEK 58","visitnum":"9.0","dtc":"2025-05-27","value":"72.3","unit":"beats/min"},{"visit":"WEEK 84","visitnum":"10.0","dtc":"2025-11-22","value":"80.0","unit":"beats/min"},{"visit":"WEEK 110","visitnum":"11.0","dtc":"2026-05-21","value":"82.8","unit":"beats/min"},{"visit":"WEEK 114 EOT","visitnum":"12.0","dtc":"2026-06-16","value":"78.6","unit":"beats/min"},{"visit":"SAFETY FU","visitnum":"13.0","dtc":"2026-07-21","value":"72.3","unit":"beats/min"}],"RESP":[{"visit":"SCREENING","visitnum":"1.0","dtc":"2024-02-05","value":"12.7","unit":"breaths/min"},{"visit":"BASELINE","visitnum":"2.0","dtc":"2024-04-11","value":"12.7","unit":"breaths/min"},{"visit":"WEEK 2","visitnum":"3.0","dtc":"2024-04-28","value":"13.6","unit":"breaths/min"},{"visit":"WEEK 4","visitnum":"4.0","dtc":"2024-05-07","value":"14.7","unit":"breaths/min"},{"visit":"WEEK 8","visitnum":"5.0","dtc":"2024-06-03","value":"14.0","unit":"breaths/min"},{"visit":"WEEK 12","visitnum":"6.0","dtc":"2024-07-01","value":"12.6","unit":"breaths/min"},{"visit":"WEEK 24","visitnum":"7.0","dtc":"2024-09-25","value":"12.8","unit":"breaths/min"},{"visit":"WEEK 58","visitnum":"9.0","dtc":"2025-05-27","value":"13.0","unit":"breaths/min"},{"visit":"WEEK 84","visitnum":"10.0","dtc":"2025-11-22","value":"14.2","unit":"breaths/min"},{"visit":"WEEK 110","visitnum":"11.0","dtc":"2026-05-21","value":"13.9","unit":"breaths/min"},{"visit":"WEEK 114 EOT","visitnum":"12.0","dtc":"2026-06-16","value":"13.2","unit":"breaths/min"},{"visit":"SAFETY FU","visitnum":"13.0","dtc":"2026-07-21","value":"13.5","unit":"breaths/min"}],"SYSBP":[{"visit":"SCREENING","visitnum":"1.0","dtc":"2024-02-05","value":"123.3","unit":"mmHg"},{"visit":"BASELINE","visitnum":"2.0","dtc":"2024-04-11","value":"96.2","unit":"mmHg"},{"visit":"WEEK 2","visitnum":"3.0","dtc":"2024-04-28","value":"95.4","unit":"mmHg"},{"visit":"WEEK 4","visitnum":"4.0","dtc":"2024-05-07","value":"93.4","unit":"mmHg"},{"visit":"WEEK 8","visitnum":"5.0","dtc":"2024-06-03","value":"94.7","unit":"mmHg"},{"visit":"WEEK 12","visitnum":"6.0","dtc":"2024-07-01","value":"124.2","unit":"mmHg"},{"visit":"WEEK 24","visitnum":"7.0","dtc":"2024-09-25","value":"125.5","unit":"mmHg"},{"visit":"WEEK 58","visitnum":"9.0","dtc":"2025-05-27","value":"124.4","unit":"mmHg"},{"visit":"WEEK 84","visitnum":"10.0","dtc":"2025-11-22","value":"122.6","unit":"mmHg"},{"visit":"WEEK 110","visitnum":"11.0","dtc":"2026-05-21","value":"119.4","unit":"mmHg"},{"visit":"WEEK 114 EOT","visitnum":"12.0","dtc":"2026-06-16","value":"116.6","unit":"mmHg"},{"visit":"SAFETY FU","visitnum":"13.0","dtc":"2026-07-21","value":"118.8","unit":"mmHg"}],"TEMP":[{"visit":"SCREENING","visitnum":"1.0","dtc":"2024-02-05","value":"37.0","unit":"C"},{"visit":"BASELINE","visitnum":"2.0","dtc":"2024-04-11","value":"37.1","unit":"C"},{"visit":"WEEK 2","visitnum":"3.0","dtc":"2024-04-28","value":"37.1","unit":"C"},{"visit":"WEEK 4","visitnum":"4.0","dtc":"2024-05-07","value":"36.9","unit":"C"},{"visit":"WEEK 8","visitnum":"5.0","dtc":"2024-06-03","value":"36.8","unit":"C"},{"visit":"WEEK 12","visitnum":"6.0","dtc":"2024-07-01","value":"37.0","unit":"C"},{"visit":"WEEK 24","visitnum":"7.0","dtc":"2024-09-25","value":"36.6","unit":"C"},{"visit":"WEEK 58","visitnum":"9.0","dtc":"2025-05-27","value":"36.6","unit":"C"},{"visit":"WEEK 84","visitnum":"10.0","dtc":"2025-11-22","value":"36.8","unit":"C"},{"visit":"WEEK 110","visitnum":"11.0","dtc":"2026-05-21","value":"37.0","unit":"C"},{"visit":"WEEK 114 EOT","visitnum":"12.0","dtc":"2026-06-16","value":"37.1","unit":"C"},{"visit":"SAFETY FU","visitnum":"13.0","dtc":"2026-07-21","value":"36.8","unit":"C"}],"WEIGHT":[{"visit":"SCREENING","visitnum":"1.0","dtc":"2024-02-05","value":"78.3","unit":"kg"},{"visit":"BASELINE","visitnum":"2.0","dtc":"2024-04-11","value":"76.4","unit":"kg"},{"visit":"WEEK 2","visitnum":"3.0","dtc":"2024-04-28","value":"77.5","unit":"kg"},{"visit":"WEEK 4","visitnum":"4.0","dtc":"2024-05-07","value":"79.6","unit":"kg"},{"visit":"WEEK 8","visitnum":"5.0","dtc":"2024-06-03","value":"79.8","unit":"kg"},{"visit":"WEEK 12","visitnum":"6.0","dtc":"2024-07-01","value":"80.9","unit":"kg"},{"visit":"WEEK 24","visitnum":"7.0","dtc":"2024-09-25","value":"81.1","unit":"kg"},{"visit":"WEEK 58","visitnum":"9.0","dtc":"2025-05-27","value":"80.1","unit":"kg"},{"visit":"WEEK 84","visitnum":"10.0","dtc":"2025-11-22","value":"79.5","unit":"kg"},{"visit":"WEEK 110","visitnum":"11.0","dtc":"2026-05-21","value":"80.6","unit":"kg"},{"visit":"WEEK 114 EOT","visitnum":"12.0","dtc":"2026-06-16","value":"80.9","unit":"kg"},{"visit":"SAFETY FU","visitnum":"13.0","dtc":"2026-07-21","value":"82.8","unit":"kg"}]},"results":[{"seq":"1","testcd":"BMI","test":"BMI","cat":null,"orres":null,"orresu":null,"stresc":"23.8","stresn":"23.8","stresu":"kg/m2","stnrlo":null,"stnrhi":null,"nrind":null,"pos":null,"loc":null,"dtc":"2024-02-05","dy":"-66","visit":"SCREENING","visitnum":"1.0","epoch":"SCREENING"},{"seq":"2","testcd":"DIABP","test":"Diastolic Blood Pressure","cat":null,"orres":"69.5","orresu":"mmHg","stresc":"69.5","stresn":"69.5","stresu":"mmHg","stnrlo":null,"stnrhi":null,"nrind":null,"pos":null,"loc":null,"dtc":"2024-02-05","dy":"-66","visit":"SCREENING","visitnum":"1.0","epoch":"SCREENING"},{"seq":"3","testcd":"HEIGHT","test":"Height","cat":null,"orres":"181.4","orresu":"cm","stresc":"181.4","stresn":"181.4","stresu":"cm","stnrlo":null,"stnrhi":null,"nrind":null,"pos":null,"loc":null,"dtc":"2024-02-05","dy":"-66","visit":"SCREENING","visitnum":"1.0","epoch":"SCREENING"},{"seq":"4","testcd":"PULSE","test":"Pulse Rate","cat":null,"orres":"74.3","orresu":"beats/min","stresc":"74.3","stresn":"74.3","stresu":"beats/min","stnrlo":null,"stnrhi":null,"nrind":null,"pos":null,"loc":null,"dtc":"2024-02-05","dy":"-66","visit":"SCREENING","visitnum":"1.0","epoch":"SCREENING"},{"seq":"5","testcd":"RESP","test":"Respiratory Rate","cat":null,"orres":"12.7","orresu":"breaths/min","stresc":"12.7","stresn":"12.7","stresu":"breaths/min","stnrlo":null,"stnrhi":null,"nrind":null,"pos":null,"loc":null,"dtc":"2024-02-05","dy":"-66","visit":"SCREENING","visitnum":"1.0","epoch":"SCREENING"},{"seq":"6","testcd":"SYSBP","test":"Systolic Blood Pressure","cat":null,"orres":"123.3","orresu":"mmHg","stresc":"123.3","stresn":"123.3","stresu":"mmHg","stnrlo":null,"stnrhi":null,"nrind":null,"pos":null,"loc":null,"dtc":"2024-02-05","dy":"-66","visit":"SCREENING","visitnum":"1.0","epoch":"SCREENING"},{"seq":"7","testcd":"TEMP","test":"Temperature","cat":null,"orres":"37.0","orresu":"C","stresc":"37.0","stresn":"37.0","stresu":"C","stnrlo":null,"stnrhi":null,"nrind":null,"pos":null,"loc":null,"dtc":"2024-02-05","dy":"-66","visit":"SCREENING","visitnum":"1.0","epoch":"SCREENING"},{"seq":"8","testcd":"WEIGHT","test":"Weight","cat":null,"orres":"78.3","orresu":"kg","stresc":"78.3","stresn":"78.3","stresu":"kg","stnrlo":null,"stnrhi":null,"nrind":null,"pos":null,"loc":null,"dtc":"2024-02-05","dy":"-66","visit":"SCREENING","visitnum":"1.0","epoch":"SCREENING"},{"seq":"9","testcd":"BMI","test":"BMI","cat":null,"orres":null,"orresu":null,"stresc":"23.1","stresn":"23.1","stresu":"kg/m2","stnrlo":null,"stnrhi":null,"nrind":null,"pos":null,"loc":null,"dtc":"2024-04-11","dy":"1","visit":"BASELINE","visitnum":"2.0","epoch":"TREATMENT"},{"seq":"10","testcd":"DIABP","test":"Diastolic Blood Pressure","cat":null,"orres":"52.1","orresu":"mmHg","stresc":"52.1","stresn":"52.1","stresu":"mmHg","stnrlo":null,"stnrhi":null,"nrind":null,"pos":null,"loc":null,"dtc":"2024-04-11","dy":"1","visit":"BASELINE","visitnum":"2.0","epoch":"TREATMENT"},{"seq":"11","testcd":"HEIGHT","test":"Height","cat":null,"orres":"182.0","orresu":"cm","stresc":"182.0","stresn":"182.0","stresu":"cm","stnrlo":null,"stnrhi":null,"nrind":null,"pos":null,"loc":null,"dtc":"2024-04-11","dy":"1","visit":"BASELINE","visitnum":"2.0","epoch":"TREATMENT"},{"seq":"12","testcd":"PULSE","test":"Pulse Rate","cat":null,"orres":"72.4","orresu":"beats/min","stresc":"72.4","stresn":"72.4","stresu":"beats/min","stnrlo":null,"stnrhi":null,"nrind":null,"pos":null,"loc":null,"dtc":"2024-04-11","dy":"1","visit":"BASELINE","visitnum":"2.0","epoch":"TREATMENT"},{"seq":"13","testcd":"RESP","test":"Respiratory Rate","cat":null,"orres":"12.7","orresu":"breaths/min","stresc":"12.7","stresn":"12.7","stresu":"breaths/min","stnrlo":null,"stnrhi":null,"nrind":null,"pos":null,"loc":null,"dtc":"2024-04-11","dy":"1","visit":"BASELINE","visitnum":"2.0","epoch":"TREATMENT"},{"seq":"14","testcd":"SYSBP","test":"Systolic Blood Pressure","cat":null,"orres":"96.2","orresu":"mmHg","stresc":"96.2","stresn":"96.2","stresu":"mmHg","stnrlo":null,"stnrhi":null,"nrind":null,"pos":null,"loc":null,"dtc":"2024-04-11","dy":"1","visit":"BASELINE","visitnum":"2.0","epoch":"TREATMENT"},{"seq":"15","testcd":"TEMP","test":"Temperature","cat":null,"orres":"37.1","orresu":"C","stresc":"37.1","stresn":"37.1","stresu":"C","stnrlo":null,"stnrhi":null,"nrind":null,"pos":null,"loc":null,"dtc":"2024-04-11","dy":"1","visit":"BASELINE","visitnum":"2.0","epoch":"TREATMENT"},{"seq":"16","testcd":"WEIGHT","test":"Weight","cat":null,"orres":"76.4","orresu":"kg","stresc":"76.4","stresn":"76.4","stresu":"kg","stnrlo":null,"stnrhi":null,"nrind":null,"pos":null,"loc":null,"dtc":"2024-04-11","dy":"1","visit":"BASELINE","visitnum":"2.0","epoch":"TREATMENT"},{"seq":"17","testcd":"BMI","test":"BMI","cat":null,"orres":null,"orresu":null,"stresc":"23.4","stresn":"23.4","stresu":"kg/m2","stnrlo":null,"stnrhi":null,"nrind":null,"pos":null,"loc":null,"dtc":"2024-04-28","dy":"18","visit":"WEEK 2","visitnum":"3.0","epoch":"TREATMENT"},{"seq":"18","testcd":"DIABP","test":"Diastolic Blood Pressure","cat":null,"orres":"50.1","orresu":"mmHg","stresc":"50.1","stresn":"50.1","stresu":"mmHg","stnrlo":null,"stnrhi":null,"nrind":null,"pos":null,"loc":null,"dtc":"2024-04-28","dy":"18","visit":"WEEK 2","visitnum":"3.0","epoch":"TREATMENT"},{"seq":"19","testcd":"HEIGHT","test":"Height","cat":null,"orres":"181.8","orresu":"cm","stresc":"181.8","stresn":"181.8","stresu":"cm","stnrlo":null,"stnrhi":null,"nrind":null,"pos":null,"loc":null,"dtc":"2024-04-28","dy":"18","visit":"WEEK 2","visitnum":"3.0","epoch":"TREATMENT"},{"seq":"20","testcd":"PULSE","test":"Pulse Rate","cat":null,"orres":"76.7","orresu":"beats/min","stresc":"76.7","stresn":"76.7","stresu":"beats/min","stnrlo":null,"stnrhi":null,"nrind":null,"pos":null,"loc":null,"dtc":"2024-04-28","dy":"18","visit":"WEEK 2","visitnum":"3.0","epoch":"TREATMENT"},{"seq":"21","testcd":"RESP","test":"Respiratory Rate","cat":null,"orres":"13.6","orresu":"breaths/min","stresc":"13.6","stresn":"13.6","stresu":"breaths/min","stnrlo":null,"stnrhi":null,"nrind":null,"pos":null,"loc":null,"dtc":"2024-04-28","dy":"18","visit":"WEEK 2","visitnum":"3.0","epoch":"TREATMENT"},{"seq":"22","testcd":"SYSBP","test":"Systolic Blood Pressure","cat":null,"orres":"95.4","orresu":"mmHg","stresc":"95.4","stresn":"95.4","stresu":"mmHg","stnrlo":null,"stnrhi":null,"nrind":null,"pos":null,"loc":null,"dtc":"2024-04-28","dy":"18","visit":"WEEK 2","visitnum":"3.0","epoch":"TREATMENT"},{"seq":"23","testcd":"TEMP","test":"Temperature","cat":null,"orres":"37.1","orresu":"C","stresc":"37.1","stresn":"37.1","stresu":"C","stnrlo":null,"stnrhi":null,"nrind":null,"pos":null,"loc":null,"dtc":"2024-04-28","dy":"18","visit":"WEEK 2","visitnum":"3.0","epoch":"TREATMENT"},{"seq":"24","testcd":"WEIGHT","test":"Weight","cat":null,"orres":"77.5","orresu":"kg","stresc":"77.5","stresn":"77.5","stresu":"kg","stnrlo":null,"stnrhi":null,"nrind":null,"pos":null,"loc":null,"dtc":"2024-04-28","dy":"18","visit":"WEEK 2","visitnum":"3.0","epoch":"TREATMENT"},{"seq":"25","testcd":"BMI","test":"BMI","cat":null,"orres":null,"orresu":null,"stresc":"24.0","stresn":"24.0","stresu":"kg/m2","stnrlo":null,"stnrhi":null,"nrind":null,"pos":null,"loc":null,"dtc":"2024-05-07","dy":"27","visit":"WEEK 4","visitnum":"4.0","epoch":"TREATMENT"},{"seq":"26","testcd":"DIABP","test":"Diastolic Blood Pressure","cat":null,"orres":null,"orresu":null,"stresc":null,"stresn":null,"stresu":null,"stnrlo":null,"stnrhi":null,"nrind":null,"pos":null,"loc":null,"dtc":"2024-05-07","dy":"27","visit":"WEEK 4","visitnum":"4.0","epoch":"TREATMENT"},{"seq":"27","testcd":"HEIGHT","test":"Height","cat":null,"orres":"182.1","orresu":"cm","stresc":"182.1","stresn":"182.1","stresu":"cm","stnrlo":null,"stnrhi":null,"nrind":null,"pos":null,"loc":null,"dtc":"2024-05-07","dy":"27","visit":"WEEK 4","visitnum":"4.0","epoch":"TREATMENT"},{"seq":"28","testcd":"PULSE","test":"Pulse Rate","cat":null,"orres":"76.2","orresu":"beats/min","stresc":"76.2","stresn":"76.2","stresu":"beats/min","stnrlo":null,"stnrhi":null,"nrind":null,"pos":null,"loc":null,"dtc":"2024-05-07","dy":"27","visit":"WEEK 4","visitnum":"4.0","epoch":"TREATMENT"},{"seq":"29","testcd":"RESP","test":"Respiratory Rate","cat":null,"orres":"14.7","orresu":"breaths/min","stresc":"14.7","stresn":"14.7","stresu":"breaths/min","stnrlo":null,"stnrhi":null,"nrind":null,"pos":null,"loc":null,"dtc":"2024-05-07","dy":"27","visit":"WEEK 4","visitnum":"4.0","epoch":"TREATMENT"},{"seq":"30","testcd":"SYSBP","test":"Systolic Blood Pressure","cat":null,"orres":"93.4","orresu":"mmHg","stresc":"93.4","stresn":"93.4","stresu":"mmHg","stnrlo":null,"stnrhi":null,"nrind":null,"pos":null,"loc":null,"dtc":"2024-05-07","dy":"27","visit":"WEEK 4","visitnum":"4.0","epoch":"TREATMENT"},{"seq":"31","testcd":"TEMP","test":"Temperature","cat":null,"orres":"36.9","orresu":"C","stresc":"36.9","stresn":"36.9","stresu":"C","stnrlo":null,"stnrhi":null,"nrind":null,"pos":null,"loc":null,"dtc":"2024-05-07","dy":"27","visit":"WEEK 4","visitnum":"4.0","epoch":"TREATMENT"},{"seq":"32","testcd":"WEIGHT","test":"Weight","cat":null,"orres":"79.6","orresu":"kg","stresc":"79.6","stresn":"79.6","stresu":"kg","stnrlo":null,"stnrhi":null,"nrind":null,"pos":null,"loc":null,"dtc":"2024-05-07","dy":"27","visit":"WEEK 4","visitnum":"4.0","epoch":"TREATMENT"},{"seq":"33","testcd":"BMI","test":"BMI","cat":null,"orres":null,"orresu":null,"stresc":"23.9","stresn":"23.9","stresu":"kg/m2","stnrlo":null,"stnrhi":null,"nrind":null,"pos":null,"loc":null,"dtc":"2024-06-03","dy":"54","visit":"WEEK 8","visitnum":"5.0","epoch":"TREATMENT"},{"seq":"34","testcd":"DIABP","test":"Diastolic Blood Pressure","cat":null,"orres":"51.8","orresu":"mmHg","stresc":"51.8","stresn":"51.8","stresu":"mmHg","stnrlo":null,"stnrhi":null,"nrind":null,"pos":null,"loc":null,"dtc":"2024-06-03","dy":"54","visit":"WEEK 8","visitnum":"5.0","epoch":"TREATMENT"},{"seq":"35","testcd":"HEIGHT","test":"Height","cat":null,"orres":"182.7","orresu":"cm","stresc":"182.7","stresn":"182.7","stresu":"cm","stnrlo":null,"stnrhi":null,"nrind":null,"pos":null,"loc":null,"dtc":"2024-06-03","dy":"54","visit":"WEEK 8","visitnum":"5.0","epoch":"TREATMENT"},{"seq":"36","testcd":"PULSE","test":"Pulse Rate","cat":null,"orres":"76.7","orresu":"beats/min","stresc":"76.7","stresn":"76.7","stresu":"beats/min","stnrlo":null,"stnrhi":null,"nrind":null,"pos":null,"loc":null,"dtc":"2024-06-03","dy":"54","visit":"WEEK 8","visitnum":"5.0","epoch":"TREATMENT"},{"seq":"37","testcd":"RESP","test":"Respiratory Rate","cat":null,"orres":"14.0","orresu":"breaths/min","stresc":"14.0","stresn":"14.0","stresu":"breaths/min","stnrlo":null,"stnrhi":null,"nrind":null,"pos":null,"loc":null,"dtc":"2024-06-03","dy":"54","visit":"WEEK 8","visitnum":"5.0","epoch":"TREATMENT"},{"seq":"38","testcd":"SYSBP","test":"Systolic Blood Pressure","cat":null,"orres":"94.7","orresu":"mmHg","stresc":"94.7","stresn":"94.7","stresu":"mmHg","stnrlo":null,"stnrhi":null,"nrind":null,"pos":null,"loc":null,"dtc":"2024-06-03","dy":"54","visit":"WEEK 8","visitnum":"5.0","epoch":"TREATMENT"},{"seq":"39","testcd":"TEMP","test":"Temperature","cat":null,"orres":"36.8","orresu":"C","stresc":"36.8","stresn":"36.8","stresu":"C","stnrlo":null,"stnrhi":null,"nrind":null,"pos":null,"loc":null,"dtc":"2024-06-03","dy":"54","visit":"WEEK 8","visitnum":"5.0","epoch":"TREATMENT"},{"seq":"40","testcd":"WEIGHT","test":"Weight","cat":null,"orres":"79.8","orresu":"kg","stresc":"79.8","stresn":"79.8","stresu":"kg","stnrlo":null,"stnrhi":null,"nrind":null,"pos":null,"loc":null,"dtc":"2024-06-03","dy":"54","visit":"WEEK 8","visitnum":"5.0","epoch":"TREATMENT"},{"seq":"41","testcd":"BMI","test":"BMI","cat":null,"orres":null,"orresu":null,"stresc":"24.3","stresn":"24.3","stresu":"kg/m2","stnrlo":null,"stnrhi":null,"nrind":null,"pos":null,"loc":null,"dtc":"2024-07-01","dy":"82","visit":"WEEK 12","visitnum":"6.0","epoch":"TREATMENT"},{"seq":"42","testcd":"DIABP","test":"Diastolic Blood Pressure","cat":null,"orres":"69.1","orresu":"mmHg","stresc":"69.1","stresn":"69.1","stresu":"mmHg","stnrlo":null,"stnrhi":null,"nrind":null,"pos":null,"loc":null,"dtc":"2024-07-01","dy":"82","visit":"WEEK 12","visitnum":"6.0","epoch":"TREATMENT"},{"seq":"43","testcd":"HEIGHT","test":"Height","cat":null,"orres":"182.6","orresu":"cm","stresc":"182.6","stresn":"182.6","stresu":"cm","stnrlo":null,"stnrhi":null,"nrind":null,"pos":null,"loc":null,"dtc":"2024-07-01","dy":"82","visit":"WEEK 12","visitnum":"6.0","epoch":"TREATMENT"},{"seq":"44","testcd":"PULSE","test":"Pulse Rate","cat":null,"orres":"78.7","orresu":"beats/min","stresc":"78.7","stresn":"78.7","stresu":"beats/min","stnrlo":null,"stnrhi":null,"nrind":null,"pos":null,"loc":null,"dtc":"2024-07-01","dy":"82","visit":"WEEK 12","visitnum":"6.0","epoch":"TREATMENT"},{"seq":"45","testcd":"RESP","test":"Respiratory Rate","cat":null,"orres":"12.6","orresu":"breaths/min","stresc":"12.6","stresn":"12.6","stresu":"breaths/min","stnrlo":null,"stnrhi":null,"nrind":null,"pos":null,"loc":null,"dtc":"2024-07-01","dy":"82","visit":"WEEK 12","visitnum":"6.0","epoch":"TREATMENT"},{"seq":"46","testcd":"SYSBP","test":"Systolic Blood Pressure","cat":null,"orres":"124.2","orresu":"mmHg","stresc":"124.2","stresn":"124.2","stresu":"mmHg","stnrlo":null,"stnrhi":null,"nrind":null,"pos":null,"loc":null,"dtc":"2024-07-01","dy":"82","visit":"WEEK 12","visitnum":"6.0","epoch":"TREATMENT"},{"seq":"47","testcd":"TEMP","test":"Temperature","cat":null,"orres":"37.0","orresu":"C","stresc":"37.0","stresn":"37.0","stresu":"C","stnrlo":null,"stnrhi":null,"nrind":null,"pos":null,"loc":null,"dtc":"2024-07-01","dy":"82","visit":"WEEK 12","visitnum":"6.0","epoch":"TREATMENT"},{"seq":"48","testcd":"WEIGHT","test":"Weight","cat":null,"orres":"80.9","orresu":"kg","stresc":"80.9","stresn":"80.9","stresu":"kg","stnrlo":null,"stnrhi":null,"nrind":null,"pos":null,"loc":null,"dtc":"2024-07-01","dy":"82","visit":"WEEK 12","visitnum":"6.0","epoch":"TREATMENT"},{"seq":"49","testcd":"BMI","test":"BMI","cat":null,"orres":null,"orresu":null,"stresc":"24.4","stresn":"24.4","stresu":"kg/m2","stnrlo":null,"stnrhi":null,"nrind":null,"pos":null,"loc":null,"dtc":"2024-09-25","dy":"168","visit":"WEEK 24","visitnum":"7.0","epoch":"TREATMENT"},{"seq":"50","testcd":"DIABP","test":"Diastolic Blood Pressure","cat":null,"orres":"69.1","orresu":"mmHg","stresc":"69.1","stresn":"69.1","stresu":"mmHg","stnrlo":null,"stnrhi":null,"nrind":null,"pos":null,"loc":null,"dtc":"2024-09-25","dy":"168","visit":"WEEK 24","visitnum":"7.0","epoch":"TREATMENT"},{"seq":"51","testcd":"HEIGHT","test":"Height","cat":null,"orres":"182.2","orresu":"cm","stresc":"182.2","stresn":"182.2","stresu":"cm","stnrlo":null,"stnrhi":null,"nrind":null,"pos":null,"loc":null,"dtc":"2024-09-25","dy":"168","visit":"WEEK 24","visitnum":"7.0","epoch":"TREATMENT"},{"seq":"52","testcd":"PULSE","test":"Pulse Rate","cat":null,"orres":"77.7","orresu":"beats/min","stresc":"77.7","stresn":"77.7","stresu":"beats/min","stnrlo":null,"stnrhi":null,"nrind":null,"pos":null,"loc":null,"dtc":"2024-09-25","dy":"168","visit":"WEEK 24","visitnum":"7.0","epoch":"TREATMENT"},{"seq":"53","testcd":"RESP","test":"Respiratory Rate","cat":null,"orres":"12.8","orresu":"breaths/min","stresc":"12.8","stresn":"12.8","stresu":"breaths/min","stnrlo":null,"stnrhi":null,"nrind":null,"pos":null,"loc":null,"dtc":"2024-09-25","dy":"168","visit":"WEEK 24","visitnum":"7.0","epoch":"TREATMENT"},{"seq":"54","testcd":"SYSBP","test":"Systolic Blood Pressure","cat":null,"orres":"125.5","orresu":"mmHg","stresc":"125.5","stresn":"125.5","stresu":"mmHg","stnrlo":null,"stnrhi":null,"nrind":null,"pos":null,"loc":null,"dtc":"2024-09-25","dy":"168","visit":"WEEK 24","visitnum":"7.0","epoch":"TREATMENT"},{"seq":"55","testcd":"TEMP","test":"Temperature","cat":null,"orres":"36.6","orresu":"C","stresc":"36.6","stresn":"36.6","stresu":"C","stnrlo":null,"stnrhi":null,"nrind":null,"pos":null,"loc":null,"dtc":"2024-09-25","dy":"168","visit":"WEEK 24","visitnum":"7.0","epoch":"TREATMENT"},{"seq":"56","testcd":"WEIGHT","test":"Weight","cat":null,"orres":"81.1","orresu":"kg","stresc":"81.1","stresn":"81.1","stresu":"kg","stnrlo":null,"stnrhi":null,"nrind":null,"pos":null,"loc":null,"dtc":"2024-09-25","dy":"168","visit":"WEEK 24","visitnum":"7.0","epoch":"TREATMENT"},{"seq":"57","testcd":"BMI","test":"BMI","cat":null,"orres":null,"orresu":null,"stresc":"24.0","stresn":"24.0","stresu":"kg/m2","stnrlo":null,"stnrhi":null,"nrind":null,"pos":null,"loc":null,"dtc":"2025-05-27","dy":"412","visit":"WEEK 58","visitnum":"9.0","epoch":"TREATMENT"},{"seq":"58","testcd":"DIABP","test":"Diastolic Blood Pressure","cat":null,"orres":"67.0","orresu":"mmHg","stresc":"67.0","stresn":"67.0","stresu":"mmHg","stnrlo":null,"stnrhi":null,"nrind":null,"pos":null,"loc":null,"dtc":"2025-05-27","dy":"412","visit":"WEEK 58","visitnum":"9.0","epoch":"TREATMENT"},{"seq":"59","testcd":"HEIGHT","test":"Height","cat":null,"orres":"182.6","orresu":"cm","stresc":"182.6","stresn":"182.6","stresu":"cm","stnrlo":null,"stnrhi":null,"nrind":null,"pos":null,"loc":null,"dtc":"2025-05-27","dy":"412","visit":"WEEK 58","visitnum":"9.0","epoch":"TREATMENT"},{"seq":"60","testcd":"PULSE","test":"Pulse Rate","cat":null,"orres":"72.3","orresu":"beats/min","stresc":"72.3","stresn":"72.3","stresu":"beats/min","stnrlo":null,"stnrhi":null,"nrind":null,"pos":null,"loc":null,"dtc":"2025-05-27","dy":"412","visit":"WEEK 58","visitnum":"9.0","epoch":"TREATMENT"},{"seq":"61","testcd":"RESP","test":"Respiratory Rate","cat":null,"orres":"13.0","orresu":"breaths/min","stresc":"13.0","stresn":"13.0","stresu":"breaths/min","stnrlo":null,"stnrhi":null,"nrind":null,"pos":null,"loc":null,"dtc":"2025-05-27","dy":"412","visit":"WEEK 58","visitnum":"9.0","epoch":"TREATMENT"},{"seq":"62","testcd":"SYSBP","test":"Systolic Blood Pressure","cat":null,"orres":"124.4","orresu":"mmHg","stresc":"124.4","stresn":"124.4","stresu":"mmHg","stnrlo":null,"stnrhi":null,"nrind":null,"pos":null,"loc":null,"dtc":"2025-05-27","dy":"412","visit":"WEEK 58","visitnum":"9.0","epoch":"TREATMENT"},{"seq":"63","testcd":"TEMP","test":"Temperature","cat":null,"orres":"36.6","orresu":"C","stresc":"36.6","stresn":"36.6","stresu":"C","stnrlo":null,"stnrhi":null,"nrind":null,"pos":null,"loc":null,"dtc":"2025-05-27","dy":"412","visit":"WEEK 58","visitnum":"9.0","epoch":"TREATMENT"},{"seq":"64","testcd":"WEIGHT","test":"Weight","cat":null,"orres":"80.1","orresu":"kg","stresc":"80.1","stresn":"80.1","stresu":"kg","stnrlo":null,"stnrhi":null,"nrind":null,"pos":null,"loc":null,"dtc":"2025-05-27","dy":"412","visit":"WEEK 58","visitnum":"9.0","epoch":"TREATMENT"},{"seq":"65","testcd":"BMI","test":"BMI","cat":null,"orres":null,"orresu":null,"stresc":"24.0","stresn":"24.0","stresu":"kg/m2","stnrlo":null,"stnrhi":null,"nrind":null,"pos":null,"loc":null,"dtc":"2025-11-22","dy":"591","visit":"WEEK 84","visitnum":"10.0","epoch":"TREATMENT"},{"seq":"66","testcd":"DIABP","test":"Diastolic Blood Pressure","cat":null,"orres":"65.7","orresu":"mmHg","stresc":"65.7","stresn":"65.7","stresu":"mmHg","stnrlo":null,"stnrhi":null,"nrind":null,"pos":null,"loc":null,"dtc":"2025-11-22","dy":"591","visit":"WEEK 84","visitnum":"10.0","epoch":"TREATMENT"},{"seq":"67","testcd":"HEIGHT","test":"Height","cat":null,"orres":"181.9","orresu":"cm","stresc":"181.9","stresn":"181.9","stresu":"cm","stnrlo":null,"stnrhi":null,"nrind":null,"pos":null,"loc":null,"dtc":"2025-11-22","dy":"591","visit":"WEEK 84","visitnum":"10.0","epoch":"TREATMENT"},{"seq":"68","testcd":"PULSE","test":"Pulse Rate","cat":null,"orres":"80.0","orresu":"beats/min","stresc":"80.0","stresn":"80.0","stresu":"beats/min","stnrlo":null,"stnrhi":null,"nrind":null,"pos":null,"loc":null,"dtc":"2025-11-22","dy":"591","visit":"WEEK 84","visitnum":"10.0","epoch":"TREATMENT"},{"seq":"69","testcd":"RESP","test":"Respiratory Rate","cat":null,"orres":"14.2","orresu":"breaths/min","stresc":"14.2","stresn":"14.2","stresu":"breaths/min","stnrlo":null,"stnrhi":null,"nrind":null,"pos":null,"loc":null,"dtc":"2025-11-22","dy":"591","visit":"WEEK 84","visitnum":"10.0","epoch":"TREATMENT"},{"seq":"70","testcd":"SYSBP","test":"Systolic Blood Pressure","cat":null,"orres":"122.6","orresu":"mmHg","stresc":"122.6","stresn":"122.6","stresu":"mmHg","stnrlo":null,"stnrhi":null,"nrind":null,"pos":null,"loc":null,"dtc":"2025-11-22","dy":"591","visit":"WEEK 84","visitnum":"10.0","epoch":"TREATMENT"},{"seq":"71","testcd":"TEMP","test":"Temperature","cat":null,"orres":"36.8","orresu":"C","stresc":"36.8","stresn":"36.8","stresu":"C","stnrlo":null,"stnrhi":null,"nrind":null,"pos":null,"loc":null,"dtc":"2025-11-22","dy":"591","visit":"WEEK 84","visitnum":"10.0","epoch":"TREATMENT"},{"seq":"72","testcd":"WEIGHT","test":"Weight","cat":null,"orres":"79.5","orresu":"kg","stresc":"79.5","stresn":"79.5","stresu":"kg","stnrlo":null,"stnrhi":null,"nrind":null,"pos":null,"loc":null,"dtc":"2025-11-22","dy":"591","visit":"WEEK 84","visitnum":"10.0","epoch":"TREATMENT"},{"seq":"73","testcd":"BMI","test":"BMI","cat":null,"orres":null,"orresu":null,"stresc":"24.4","stresn":"24.4","stresu":"kg/m2","stnrlo":null,"stnrhi":null,"nrind":null,"pos":null,"loc":null,"dtc":"2026-05-21","dy":"771","visit":"WEEK 110","visitnum":"11.0","epoch":"TREATMENT"},{"seq":"74","testcd":"DIABP","test":"Diastolic Blood Pressure","cat":null,"orres":"62.8","orresu":"mmHg","stresc":"62.8","stresn":"62.8","stresu":"mmHg","stnrlo":null,"stnrhi":null,"nrind":null,"pos":null,"loc":null,"dtc":"2026-05-21","dy":"771","visit":"WEEK 110","visitnum":"11.0","epoch":"TREATMENT"},{"seq":"75","testcd":"HEIGHT","test":"Height","cat":null,"orres":"181.6","orresu":"cm","stresc":"181.6","stresn":"181.6","stresu":"cm","stnrlo":null,"stnrhi":null,"nrind":null,"pos":null,"loc":null,"dtc":"2026-05-21","dy":"771","visit":"WEEK 110","visitnum":"11.0","epoch":"TREATMENT"},{"seq":"76","testcd":"PULSE","test":"Pulse Rate","cat":null,"orres":"82.8","orresu":"beats/min","stresc":"82.8","stresn":"82.8","stresu":"beats/min","stnrlo":null,"stnrhi":null,"nrind":null,"pos":null,"loc":null,"dtc":"2026-05-21","dy":"771","visit":"WEEK 110","visitnum":"11.0","epoch":"TREATMENT"},{"seq":"77","testcd":"RESP","test":"Respiratory Rate","cat":null,"orres":"13.9","orresu":"breaths/min","stresc":"13.9","stresn":"13.9","stresu":"breaths/min","stnrlo":null,"stnrhi":null,"nrind":null,"pos":null,"loc":null,"dtc":"2026-05-21","dy":"771","visit":"WEEK 110","visitnum":"11.0","epoch":"TREATMENT"},{"seq":"78","testcd":"SYSBP","test":"Systolic Blood Pressure","cat":null,"orres":"119.4","orresu":"mmHg","stresc":"119.4","stresn":"119.4","stresu":"mmHg","stnrlo":null,"stnrhi":null,"nrind":null,"pos":null,"loc":null,"dtc":"2026-05-21","dy":"771","visit":"WEEK 110","visitnum":"11.0","epoch":"TREATMENT"},{"seq":"79","testcd":"TEMP","test":"Temperature","cat":null,"orres":"37.0","orresu":"C","stresc":"37.0","stresn":"37.0","stresu":"C","stnrlo":null,"stnrhi":null,"nrind":null,"pos":null,"loc":null,"dtc":"2026-05-21","dy":"771","visit":"WEEK 110","visitnum":"11.0","epoch":"TREATMENT"},{"seq":"80","testcd":"WEIGHT","test":"Weight","cat":null,"orres":"80.6","orresu":"kg","stresc":"80.6","stresn":"80.6","stresu":"kg","stnrlo":null,"stnrhi":null,"nrind":null,"pos":null,"loc":null,"dtc":"2026-05-21","dy":"771","visit":"WEEK 110","visitnum":"11.0","epoch":"TREATMENT"},{"seq":"81","testcd":"BMI","test":"BMI","cat":null,"orres":null,"orresu":null,"stresc":"24.6","stresn":"24.6","stresu":"kg/m2","stnrlo":null,"stnrhi":null,"nrind":null,"pos":null,"loc":null,"dtc":"2026-06-16","dy":"797","visit":"WEEK 114 EOT","visitnum":"12.0","epoch":"TREATMENT"},{"seq":"82","testcd":"DIABP","test":"Diastolic Blood Pressure","cat":null,"orres":"62.1","orresu":"mmHg","stresc":"62.1","stresn":"62.1","stresu":"mmHg","stnrlo":null,"stnrhi":null,"nrind":null,"pos":null,"loc":null,"dtc":"2026-06-16","dy":"797","visit":"WEEK 114 EOT","visitnum":"12.0","epoch":"TREATMENT"},{"seq":"83","testcd":"HEIGHT","test":"Height","cat":null,"orres":"181.3","orresu":"cm","stresc":"181.3","stresn":"181.3","stresu":"cm","stnrlo":null,"stnrhi":null,"nrind":null,"pos":null,"loc":null,"dtc":"2026-06-16","dy":"797","visit":"WEEK 114 EOT","visitnum":"12.0","epoch":"TREATMENT"},{"seq":"84","testcd":"PULSE","test":"Pulse Rate","cat":null,"orres":"78.6","orresu":"beats/min","stresc":"78.6","stresn":"78.6","stresu":"beats/min","stnrlo":null,"stnrhi":null,"nrind":null,"pos":null,"loc":null,"dtc":"2026-06-16","dy":"797","visit":"WEEK 114 EOT","visitnum":"12.0","epoch":"TREATMENT"},{"seq":"85","testcd":"RESP","test":"Respiratory Rate","cat":null,"orres":"13.2","orresu":"breaths/min","stresc":"13.2","stresn":"13.2","stresu":"breaths/min","stnrlo":null,"stnrhi":null,"nrind":null,"pos":null,"loc":null,"dtc":"2026-06-16","dy":"797","visit":"WEEK 114 EOT","visitnum":"12.0","epoch":"TREATMENT"},{"seq":"86","testcd":"SYSBP","test":"Systolic Blood Pressure","cat":null,"orres":"116.6","orresu":"mmHg","stresc":"116.6","stresn":"116.6","stresu":"mmHg","stnrlo":null,"stnrhi":null,"nrind":null,"pos":null,"loc":null,"dtc":"2026-06-16","dy":"797","visit":"WEEK 114 EOT","visitnum":"12.0","epoch":"TREATMENT"},{"seq":"87","testcd":"TEMP","test":"Temperature","cat":null,"orres":"37.1","orresu":"C","stresc":"37.1","stresn":"37.1","stresu":"C","stnrlo":null,"stnrhi":null,"nrind":null,"pos":null,"loc":null,"dtc":"2026-06-16","dy":"797","visit":"WEEK 114 EOT","visitnum":"12.0","epoch":"TREATMENT"},{"seq":"88","testcd":"WEIGHT","test":"Weight","cat":null,"orres":"80.9","orresu":"kg","stresc":"80.9","stresn":"80.9","stresu":"kg","stnrlo":null,"stnrhi":null,"nrind":null,"pos":null,"loc":null,"dtc":"2026-06-16","dy":"797","visit":"WEEK 114 EOT","visitnum":"12.0","epoch":"TREATMENT"},{"seq":"89","testcd":"BMI","test":"BMI","cat":null,"orres":null,"orresu":null,"stresc":"25.4","stresn":"25.4","stresu":"kg/m2","stnrlo":null,"stnrhi":null,"nrind":null,"pos":null,"loc":null,"dtc":"2026-07-21","dy":"832","visit":"SAFETY FU","visitnum":"13.0","epoch":"FOLLOW-UP"},{"seq":"90","testcd":"DIABP","test":"Diastolic Blood Pressure","cat":null,"orres":"63.9","orresu":"mmHg","stresc":"63.9","stresn":"63.9","stresu":"mmHg","stnrlo":null,"stnrhi":null,"nrind":null,"pos":null,"loc":null,"dtc":"2026-07-21","dy":"832","visit":"SAFETY FU","visitnum":"13.0","epoch":"FOLLOW-UP"},{"seq":"91","testcd":"HEIGHT","test":"Height","cat":null,"orres":"180.5","orresu":"cm","stresc":"180.5","stresn":"180.5","stresu":"cm","stnrlo":null,"stnrhi":null,"nrind":null,"pos":null,"loc":null,"dtc":"2026-07-21","dy":"832","visit":"SAFETY FU","visitnum":"13.0","epoch":"FOLLOW-UP"},{"seq":"92","testcd":"PULSE","test":"Pulse Rate","cat":null,"orres":"72.3","orresu":"beats/min","stresc":"72.3","stresn":"72.3","stresu":"beats/min","stnrlo":null,"stnrhi":null,"nrind":null,"pos":null,"loc":null,"dtc":"2026-07-21","dy":"832","visit":"SAFETY FU","visitnum":"13.0","epoch":"FOLLOW-UP"},{"seq":"93","testcd":"RESP","test":"Respiratory Rate","cat":null,"orres":"13.5","orresu":"breaths/min","stresc":"13.5","stresn":"13.5","stresu":"breaths/min","stnrlo":null,"stnrhi":null,"nrind":null,"pos":null,"loc":null,"dtc":"2026-07-21","dy":"832","visit":"SAFETY FU","visitnum":"13.0","epoch":"FOLLOW-UP"},{"seq":"94","testcd":"SYSBP","test":"Systolic Blood Pressure","cat":null,"orres":"118.8","orresu":"mmHg","stresc":"118.8","stresn":"118.8","stresu":"mmHg","stnrlo":null,"stnrhi":null,"nrind":null,"pos":null,"loc":null,"dtc":"2026-07-21","dy":"832","visit":"SAFETY FU","visitnum":"13.0","epoch":"FOLLOW-UP"},{"seq":"95","testcd":"TEMP","test":"Temperature","cat":null,"orres":"36.8","orresu":"C","stresc":"36.8","stresn":"36.8","stresu":"C","stnrlo":null,"stnrhi":null,"nrind":null,"pos":null,"loc":null,"dtc":"2026-07-21","dy":"832","visit":"SAFETY FU","visitnum":"13.0","epoch":"FOLLOW-UP"},{"seq":"96","testcd":"WEIGHT","test":"Weight","cat":null,"orres":"82.8","orresu":"kg","stresc":"82.8","stresn":"82.8","stresu":"kg","stnrlo":null,"stnrhi":null,"nrind":null,"pos":null,"loc":null,"dtc":"2026-07-21","dy":"832","visit":"SAFETY FU","visitnum":"13.0","epoch":"FOLLOW-UP"}]},"section_10_questionnaires_and_scores":{"questionnaires":[],"findings_about":[]},"section_11_protocol_deviations":{"deviations":[{"seq":"1","term":"Missed IRBESARTAN dose on 2024-04-16","decod":"MISSED DOSE","cat":"MINOR","scat":"DOSING","start_dtc":"2024-04-16","end_dtc":null,"visit":null},{"seq":"2","term":"Missed IRBESARTAN dose on 2024-04-29","decod":"MISSED DOSE","cat":"MINOR","scat":"DOSING","start_dtc":"2024-04-29","end_dtc":null,"visit":null},{"seq":"3","term":"Missed IRBESARTAN dose on 2024-05-03","decod":"MISSED DOSE","cat":"MINOR","scat":"DOSING","start_dtc":"2024-05-03","end_dtc":null,"visit":null},{"seq":"4","term":"Visit WEEK 4 occurred 2 days early (Day 27 vs planned Day 29)","decod":"VISIT OCCURRED OUTSIDE VISIT WINDOW","cat":"MINOR","scat":"VISIT WINDOW","start_dtc":"2024-05-07","end_dtc":null,"visit":null},{"seq":"5","term":"Missed IRBESARTAN dose on 2024-05-19","decod":"MISSED DOSE","cat":"MINOR","scat":"DOSING","start_dtc":"2024-05-19","end_dtc":null,"visit":null},{"seq":"6","term":"Missed IRBESARTAN dose on 2024-05-29","decod":"MISSED DOSE","cat":"MINOR","scat":"DOSING","start_dtc":"2024-05-29","end_dtc":null,"visit":null},{"seq":"7","term":"Missed IRBESARTAN dose on 2024-05-31","decod":"MISSED DOSE","cat":"MINOR","scat":"DOSING","start_dtc":"2024-05-31","end_dtc":null,"visit":null},{"seq":"8","term":"Missed IRBESARTAN dose on 2024-06-02","decod":"MISSED DOSE","cat":"MINOR","scat":"DOSING","start_dtc":"2024-06-02","end_dtc":null,"visit":null},{"seq":"9","term":"Visit WEEK 8 occurred 3 days early (Day 54 vs planned Day 57)","decod":"VISIT OCCURRED OUTSIDE VISIT WINDOW","cat":"MINOR","scat":"VISIT WINDOW","start_dtc":"2024-06-03","end_dtc":null,"visit":null},{"seq":"10","term":"Missed IRBESARTAN dose on 2024-06-04","decod":"MISSED DOSE","cat":"MINOR","scat":"DOSING","start_dtc":"2024-06-04","end_dtc":null,"visit":null},{"seq":"11","term":"Missed IRBESARTAN dose on 2024-06-11","decod":"MISSED DOSE","cat":"MINOR","scat":"DOSING","start_dtc":"2024-06-11","end_dtc":null,"visit":null},{"seq":"12","term":"Missed IRBESARTAN dose on 2024-06-17","decod":"MISSED DOSE","cat":"MINOR","scat":"DOSING","start_dtc":"2024-06-17","end_dtc":null,"visit":null},{"seq":"13","term":"Missed IRBESARTAN dose on 2024-06-18","decod":"MISSED DOSE","cat":"MINOR","scat":"DOSING","start_dtc":"2024-06-18","end_dtc":null,"visit":null},{"seq":"14","term":"Missed IRBESARTAN dose on 2024-06-25","decod":"MISSED DOSE","cat":"MINOR","scat":"DOSING","start_dtc":"2024-06-25","end_dtc":null,"visit":null},{"seq":"15","term":"Missed IRBESARTAN dose on 2024-06-30","decod":"MISSED DOSE","cat":"MINOR","scat":"DOSING","start_dtc":"2024-06-30","end_dtc":null,"visit":null},{"seq":"16","term":"Missed IRBESARTAN dose on 2024-07-09","decod":"MISSED DOSE","cat":"MINOR","scat":"DOSING","start_dtc":"2024-07-09","end_dtc":null,"visit":null},{"seq":"17","term":"Missed IRBESARTAN dose on 2024-07-19","decod":"MISSED DOSE","cat":"MINOR","scat":"DOSING","start_dtc":"2024-07-19","end_dtc":null,"visit":null},{"seq":"18","term":"Missed IRBESARTAN dose on 2024-07-21","decod":"MISSED DOSE","cat":"MINOR","scat":"DOSING","start_dtc":"2024-07-21","end_dtc":null,"visit":null},{"seq":"19","term":"Missed IRBESARTAN dose on 2024-08-12","decod":"MISSED DOSE","cat":"MINOR","scat":"DOSING","start_dtc":"2024-08-12","end_dtc":null,"visit":null},{"seq":"20","term":"Missed IRBESARTAN dose on 2024-08-13","decod":"MISSED DOSE","cat":"MINOR","scat":"DOSING","start_dtc":"2024-08-13","end_dtc":null,"visit":null},{"seq":"21","term":"Missed IRBESARTAN dose on 2024-08-20","decod":"MISSED DOSE","cat":"MINOR","scat":"DOSING","start_dtc":"2024-08-20","end_dtc":null,"visit":null},{"seq":"22","term":"Missed IRBESARTAN dose on 2024-08-24","decod":"MISSED DOSE","cat":"MINOR","scat":"DOSING","start_dtc":"2024-08-24","end_dtc":null,"visit":null},{"seq":"23","term":"Missed IRBESARTAN dose on 2024-08-28","decod":"MISSED DOSE","cat":"MINOR","scat":"DOSING","start_dtc":"2024-08-28","end_dtc":null,"visit":null},{"seq":"24","term":"Missed IRBESARTAN dose on 2024-09-11","decod":"MISSED DOSE","cat":"MINOR","scat":"DOSING","start_dtc":"2024-09-11","end_dtc":null,"visit":null},{"seq":"25","term":"Missed IRBESARTAN dose on 2024-09-18","decod":"MISSED DOSE","cat":"MINOR","scat":"DOSING","start_dtc":"2024-09-18","end_dtc":null,"visit":null},{"seq":"26","term":"Visit WEEK 24 occurred 1 days early (Day 168 vs planned Day 169)","decod":"VISIT OCCURRED OUTSIDE VISIT WINDOW","cat":"MINOR","scat":"VISIT WINDOW","start_dtc":"2024-09-25","end_dtc":null,"visit":null},{"seq":"27","term":"Missed IRBESARTAN dose on 2024-10-12","decod":"MISSED DOSE","cat":"MINOR","scat":"DOSING","start_dtc":"2024-10-12","end_dtc":null,"visit":null},{"seq":"28","term":"Missed IRBESARTAN dose on 2024-10-13","decod":"MISSED DOSE","cat":"MINOR","scat":"DOSING","start_dtc":"2024-10-13","end_dtc":null,"visit":null},{"seq":"29","term":"Missed IRBESARTAN dose on 2024-10-15","decod":"MISSED DOSE","cat":"MINOR","scat":"DOSING","start_dtc":"2024-10-15","end_dtc":null,"visit":null},{"seq":"30","term":"Missed IRBESARTAN dose on 2024-10-18","decod":"MISSED DOSE","cat":"MINOR","scat":"DOSING","start_dtc":"2024-10-18","end_dtc":null,"visit":null},{"seq":"31","term":"Missed IRBESARTAN dose on 2024-10-20","decod":"MISSED DOSE","cat":"MINOR","scat":"DOSING","start_dtc":"2024-10-20","end_dtc":null,"visit":null},{"seq":"32","term":"Missed IRBESARTAN dose on 2024-10-30","decod":"MISSED DOSE","cat":"MINOR","scat":"DOSING","start_dtc":"2024-10-30","end_dtc":null,"visit":null},{"seq":"33","term":"Missed IRBESARTAN dose on 2024-11-03","decod":"MISSED DOSE","cat":"MINOR","scat":"DOSING","start_dtc":"2024-11-03","end_dtc":null,"visit":null},{"seq":"34","term":"Missed IRBESARTAN dose on 2024-11-04","decod":"MISSED DOSE","cat":"MINOR","scat":"DOSING","start_dtc":"2024-11-04","end_dtc":null,"visit":null},{"seq":"35","term":"Missed IRBESARTAN dose on 2024-11-08","decod":"MISSED DOSE","cat":"MINOR","scat":"DOSING","start_dtc":"2024-11-08","end_dtc":null,"visit":null},{"seq":"36","term":"Missed IRBESARTAN dose on 2024-11-19","decod":"MISSED DOSE","cat":"MINOR","scat":"DOSING","start_dtc":"2024-11-19","end_dtc":null,"visit":null},{"seq":"37","term":"Missed IRBESARTAN dose on 2024-11-21","decod":"MISSED DOSE","cat":"MINOR","scat":"DOSING","start_dtc":"2024-11-21","end_dtc":null,"visit":null},{"seq":"38","term":"Missed IRBESARTAN dose on 2024-11-23","decod":"MISSED DOSE","cat":"MINOR","scat":"DOSING","start_dtc":"2024-11-23","end_dtc":null,"visit":null},{"seq":"39","term":"Missed IRBESARTAN dose on 2024-11-24","decod":"MISSED DOSE","cat":"MINOR","scat":"DOSING","start_dtc":"2024-11-24","end_dtc":null,"visit":null},{"seq":"40","term":"Missed IRBESARTAN dose on 2024-12-08","decod":"MISSED DOSE","cat":"MINOR","scat":"DOSING","start_dtc":"2024-12-08","end_dtc":null,"visit":null},{"seq":"41","term":"Missed IRBESARTAN dose on 2024-12-13","decod":"MISSED DOSE","cat":"MINOR","scat":"DOSING","start_dtc":"2024-12-13","end_dtc":null,"visit":null},{"seq":"42","term":"Missed IRBESARTAN dose on 2024-12-18","decod":"MISSED DOSE","cat":"MINOR","scat":"DOSING","start_dtc":"2024-12-18","end_dtc":null,"visit":null},{"seq":"43","term":"Missed IRBESARTAN dose on 2024-12-28","decod":"MISSED DOSE","cat":"MINOR","scat":"DOSING","start_dtc":"2024-12-28","end_dtc":null,"visit":null},{"seq":"44","term":"Missed IRBESARTAN dose on 2025-02-04","decod":"MISSED DOSE","cat":"MINOR","scat":"DOSING","start_dtc":"2025-02-04","end_dtc":null,"visit":null},{"seq":"45","term":"Missed IRBESARTAN dose on 2025-02-05","decod":"MISSED DOSE","cat":"MINOR","scat":"DOSING","start_dtc":"2025-02-05","end_dtc":null,"visit":null},{"seq":"46","term":"Missed IRBESARTAN dose on 2025-02-06","decod":"MISSED DOSE","cat":"MINOR","scat":"DOSING","start_dtc":"2025-02-06","end_dtc":null,"visit":null},{"seq":"47","term":"Missed IRBESARTAN dose on 2025-02-08","decod":"MISSED DOSE","cat":"MINOR","scat":"DOSING","start_dtc":"2025-02-08","end_dtc":null,"visit":null},{"seq":"48","term":"Missed IRBESARTAN dose on 2025-02-10","decod":"MISSED DOSE","cat":"MINOR","scat":"DOSING","start_dtc":"2025-02-10","end_dtc":null,"visit":null},{"seq":"49","term":"Missed IRBESARTAN dose on 2025-02-16","decod":"MISSED DOSE","cat":"MINOR","scat":"DOSING","start_dtc":"2025-02-16","end_dtc":null,"visit":null},{"seq":"50","term":"Missed IRBESARTAN dose on 2025-02-18","decod":"MISSED DOSE","cat":"MINOR","scat":"DOSING","start_dtc":"2025-02-18","end_dtc":null,"visit":null},{"seq":"51","term":"Missed IRBESARTAN dose on 2025-02-27","decod":"MISSED DOSE","cat":"MINOR","scat":"DOSING","start_dtc":"2025-02-27","end_dtc":null,"visit":null},{"seq":"52","term":"Missed IRBESARTAN dose on 2025-03-08","decod":"MISSED DOSE","cat":"MINOR","scat":"DOSING","start_dtc":"2025-03-08","end_dtc":null,"visit":null},{"seq":"53","term":"Missed IRBESARTAN dose on 2025-03-12","decod":"MISSED DOSE","cat":"MINOR","scat":"DOSING","start_dtc":"2025-03-12","end_dtc":null,"visit":null},{"seq":"54","term":"Missed IRBESARTAN dose on 2025-03-14","decod":"MISSED DOSE","cat":"MINOR","scat":"DOSING","start_dtc":"2025-03-14","end_dtc":null,"visit":null},{"seq":"55","term":"Missed IRBESARTAN dose on 2025-03-18","decod":"MISSED DOSE","cat":"MINOR","scat":"DOSING","start_dtc":"2025-03-18","end_dtc":null,"visit":null},{"seq":"56","term":"Missed IRBESARTAN dose on 2025-03-21","decod":"MISSED DOSE","cat":"MINOR","scat":"DOSING","start_dtc":"2025-03-21","end_dtc":null,"visit":null},{"seq":"57","term":"Missed IRBESARTAN dose on 2025-03-22","decod":"MISSED DOSE","cat":"MINOR","scat":"DOSING","start_dtc":"2025-03-22","end_dtc":null,"visit":null},{"seq":"58","term":"Missed IRBESARTAN dose on 2025-04-09","decod":"MISSED DOSE","cat":"MINOR","scat":"DOSING","start_dtc":"2025-04-09","end_dtc":null,"visit":null},{"seq":"59","term":"Missed IRBESARTAN dose on 2025-04-16","decod":"MISSED DOSE","cat":"MINOR","scat":"DOSING","start_dtc":"2025-04-16","end_dtc":null,"visit":null},{"seq":"60","term":"Missed IRBESARTAN dose on 2025-04-17","decod":"MISSED DOSE","cat":"MINOR","scat":"DOSING","start_dtc":"2025-04-17","end_dtc":null,"visit":null},{"seq":"61","term":"Missed IRBESARTAN dose on 2025-04-19","decod":"MISSED DOSE","cat":"MINOR","scat":"DOSING","start_dtc":"2025-04-19","end_dtc":null,"visit":null},{"seq":"62","term":"Missed IRBESARTAN dose on 2025-04-21","decod":"MISSED DOSE","cat":"MINOR","scat":"DOSING","start_dtc":"2025-04-21","end_dtc":null,"visit":null},{"seq":"63","term":"Missed IRBESARTAN dose on 2025-04-25","decod":"MISSED DOSE","cat":"MINOR","scat":"DOSING","start_dtc":"2025-04-25","end_dtc":null,"visit":null},{"seq":"64","term":"Visit WEEK 58 occurred 5 days late (Day 412 vs planned Day 407)","decod":"VISIT OCCURRED OUTSIDE VISIT WINDOW","cat":"MINOR","scat":"VISIT WINDOW","start_dtc":"2025-05-27","end_dtc":null,"visit":null},{"seq":"65","term":"Visit WEEK 84 occurred 2 days late (Day 591 vs planned Day 589)","decod":"VISIT OCCURRED OUTSIDE VISIT WINDOW","cat":"MINOR","scat":"VISIT WINDOW","start_dtc":"2025-11-22","end_dtc":null,"visit":null},{"seq":"66","term":"Visit WEEK 110 occurred 0 days late (Day 771 vs planned Day 771)","decod":"VISIT OCCURRED OUTSIDE VISIT WINDOW","cat":"MINOR","scat":"VISIT WINDOW","start_dtc":"2026-05-21","end_dtc":null,"visit":null}],"total":66},"section_12_disposition":{"completion_status":"COMPLETED","disposition_records":[{"seq":"1","term":"INFORMED CONSENT OBTAINED","decod":"INFORMED CONSENT OBTAINED","cat":"PROTOCOL MILESTONE","scat":null,"dtc":"2024-03-30","dy":null,"visit":null,"epoch":"SCREENING"},{"seq":"2","term":"RANDOMIZED","decod":"RANDOMIZED","cat":"PROTOCOL MILESTONE","scat":null,"dtc":"2024-04-11","dy":null,"visit":null,"epoch":"TREATMENT"},{"seq":"3","term":"COMPLETED","decod":"COMPLETED","cat":"DISPOSITION EVENT","scat":null,"dtc":"2026-08-26","dy":null,"visit":null,"epoch":"FOLLOW-UP"}],"death":null},"section_13_hospitalizations":{"items":[{"seq":"1","term":"Hypotension","decod":"Hypotension","cat":"HOSPITALIZATION","start_dtc":"2024-04-11","end_dtc":"2024-04-20","epoch":"TREATMENT"},{"seq":"2","term":"Anaemia","decod":"Anaemia","cat":"HOSPITALIZATION","start_dtc":"2024-09-27","end_dtc":"2024-10-04","epoch":"TREATMENT"},{"seq":"3","term":"Headache","decod":"Headache","cat":"HOSPITALIZATION","start_dtc":"2025-03-13","end_dtc":"2025-03-21","epoch":"TREATMENT"}],"total":3},"section_14_substance_use":{"items":[{"seq":"1","substance":"BEER/WINE/SPIRITS","decod":"ETHANOL","cat":"ALCOHOL","scat":null,"usage":"Y","dose":null,"dosu":null,"freq":null,"start_dtc":"1995-04-07","end_dtc":"2006-04-04"},{"seq":"2","substance":"COFFEE","decod":"COFFEE","cat":"CAFFEINE","scat":null,"usage":"Y","dose":"3.0","dosu":"CUPS/DAY","freq":"QD","start_dtc":"2012-04-02","end_dtc":null},{"seq":"3","substance":"CIGARETTES","decod":"CIGARETTES","cat":"TOBACCO","scat":null,"usage":"N","dose":null,"dosu":null,"freq":null,"start_dtc":null,"end_dtc":null}],"total":3},"section_15_subject_status":{"items":[{"seq":"1","testcd":"SURVSTAT","test":"Survival Status","orres":"ALIVE","stresc":"ALIVE","dtc":"2026-08-26","visit":null,"epoch":"FOLLOW-UP"}],"total":1}}