STUDYID,DOMAIN,USUBJID,CMSEQ,CMTRT,CMDECOD,CMCAT,CMINDC,CMDOSE,CMDOSU,CMDOSFRQ,CMROUTE,EPOCH,CMSTDTC,CMENDTC,CMSTDY,CMENDY
021IGAN17001,CM,021IGAN17001-CAN_SITE01-0008,1,FERROUS SULFATE,FERROUS SULFATE,CONCOMITANT,ANAEMIA,325.0,mg,QD,ORAL,TREATMENT,2024-06-08,2024-06-19,30,41
021IGAN17001,CM,021IGAN17001-CAN_SITE01-0008,2,MECLIZINE,MECLIZINE,CONCOMITANT,DIZZINESS,25,mg,PRN,ORAL,TREATMENT,2024-06-11,2024-06-29,33,51
021IGAN17001,CM,021IGAN17001-CAN_SITE01-0008,3,FERROUS SULFATE,FERROUS SULFATE,CONCOMITANT,ANAEMIA,325.0,mg,QD,ORAL,TREATMENT,2024-06-27,2024-07-14,49,66
021IGAN17001,CM,021IGAN17001-CAN_SITE01-0008,4,FUROSEMIDE,FUROSEMIDE,CONCOMITANT,OEDEMA PERIPHERAL,20.0,mg,QD,ORAL,TREATMENT,2024-07-02,2024-07-15,54,67
021IGAN17001,CM,021IGAN17001-CAN_SITE01-0008,5,SODIUM POLYSTYRENE SULFONATE,SODIUM POLYSTYRENE SULFONATE,CONCOMITANT,HYPERKALAEMIA,15.0,g,QD,ORAL,TREATMENT,2024-08-22,2024-09-07,105,121
021IGAN17001,CM,021IGAN17001-CAN_SITE01-0008,6,FUROSEMIDE,FUROSEMIDE,CONCOMITANT,OEDEMA PERIPHERAL,20.0,mg,QD,ORAL,TREATMENT,2024-09-21,2024-10-13,135,157
021IGAN17001,CM,021IGAN17001-CAN_SITE01-0008,7,LOPERAMIDE,LOPERAMIDE,CONCOMITANT,DIARRHOEA,2,mg,PRN,ORAL,TREATMENT,2024-10-26,2024-11-18,170,193
021IGAN17001,CM,021IGAN17001-CAN_SITE01-0008,8,SODIUM POLYSTYRENE SULFONATE,SODIUM POLYSTYRENE SULFONATE,CONCOMITANT,HYPERKALAEMIA,15.0,g,QD,ORAL,TREATMENT,2024-12-04,2024-12-10,209,215
021IGAN17001,CM,021IGAN17001-CAN_SITE01-0008,9,FUROSEMIDE,FUROSEMIDE,CONCOMITANT,OEDEMA PERIPHERAL,20.0,mg,QD,ORAL,TREATMENT,2024-12-06,2024-12-09,211,214
021IGAN17001,CM,021IGAN17001-CAN_SITE01-0008,10,SODIUM POLYSTYRENE SULFONATE,SODIUM POLYSTYRENE SULFONATE,CONCOMITANT,HYPERKALAEMIA,15.0,g,QD,ORAL,TREATMENT,2024-12-18,2024-12-28,223,233
021IGAN17001,CM,021IGAN17001-CAN_SITE01-0008,11,LOPERAMIDE,LOPERAMIDE,CONCOMITANT,DIARRHOEA,2,mg,PRN,ORAL,TREATMENT,2025-01-30,2025-02-04,266,271
021IGAN17001,CM,021IGAN17001-CAN_SITE01-0008,12,FERROUS SULFATE,FERROUS SULFATE,CONCOMITANT,ANAEMIA,325.0,mg,QD,ORAL,TREATMENT,2025-02-17,2025-03-08,284,303
021IGAN17001,CM,021IGAN17001-CAN_SITE01-0008,13,MECLIZINE,MECLIZINE,CONCOMITANT,DIZZINESS,25,mg,PRN,ORAL,TREATMENT,2025-02-25,2025-03-08,292,303
021IGAN17001,CM,021IGAN17001-CAN_SITE01-0008,14,SODIUM POLYSTYRENE SULFONATE,SODIUM POLYSTYRENE SULFONATE,CONCOMITANT,HYPERKALAEMIA,15.0,g,QD,ORAL,TREATMENT,2025-03-25,2025-04-09,320,335
021IGAN17001,CM,021IGAN17001-CAN_SITE01-0008,15,SODIUM POLYSTYRENE SULFONATE,SODIUM POLYSTYRENE SULFONATE,CONCOMITANT,HYPERKALAEMIA,15.0,g,QD,ORAL,TREATMENT,2025-04-10,2025-04-24,336,350
021IGAN17001,CM,021IGAN17001-CAN_SITE01-0008,16,IBUPROFEN,IBUPROFEN,CONCOMITANT,BLOOD CREATININE INCREASED,400,mg,PRN,ORAL,TREATMENT,2025-06-05,2025-06-26,392,413
021IGAN17001,CM,021IGAN17001-CAN_SITE01-0008,17,PARACETAMOL,PARACETAMOL,CONCOMITANT,BLOOD CREATININE INCREASED,500,mg,PRN,ORAL,TREATMENT,2025-06-16,2025-07-03,403,420
021IGAN17001,CM,021IGAN17001-CAN_SITE01-0008,18,METOCLOPRAMIDE,METOCLOPRAMIDE,CONCOMITANT,NAUSEA,10,mg,TID,ORAL,TREATMENT,2025-09-01,2025-09-15,480,494
021IGAN17001,CM,021IGAN17001-CAN_SITE01-0008,19,FUROSEMIDE,FUROSEMIDE,CONCOMITANT,OEDEMA PERIPHERAL,20.0,mg,QD,ORAL,TREATMENT,2025-09-26,2025-09-26,505,505
021IGAN17001,CM,021IGAN17001-CAN_SITE01-0010,1,METOCLOPRAMIDE,METOCLOPRAMIDE,CONCOMITANT,NAUSEA,10,mg,TID,ORAL,TREATMENT,2024-02-12,2024-02-25,4,17
021IGAN17001,CM,021IGAN17001-CAN_SITE01-0010,2,PARACETAMOL,PARACETAMOL,CONCOMITANT,HEADACHE,500,mg,PRN,ORAL,TREATMENT,2024-03-12,2024-03-29,33,50
021IGAN17001,CM,021IGAN17001-CAN_SITE01-0010,3,MECLIZINE,MECLIZINE,CONCOMITANT,DIZZINESS,25,mg,PRN,ORAL,TREATMENT,2024-03-19,2024-03-27,40,48
021IGAN17001,CM,021IGAN17001-CAN_SITE01-0010,4,MECLIZINE,MECLIZINE,CONCOMITANT,DIZZINESS,25,mg,PRN,ORAL,TREATMENT,2024-03-29,2024-03-29,50,50
021IGAN17001,CM,021IGAN17001-CAN_SITE01-0018,1,PARACETAMOL,PARACETAMOL,CONCOMITANT,ALANINE AMINOTRANSFERASE INCREASED,500,mg,PRN,ORAL,TREATMENT,2024-11-11,2024-11-26,187,202
021IGAN17001,CM,021IGAN17001-CAN_SITE01-0018,2,SODIUM POLYSTYRENE SULFONATE,SODIUM POLYSTYRENE SULFONATE,CONCOMITANT,HYPERKALAEMIA,15.0,g,QD,ORAL,TREATMENT,2024-11-30,2024-12-30,206,236
021IGAN17001,CM,021IGAN17001-CAN_SITE01-0018,3,LOPERAMIDE,LOPERAMIDE,CONCOMITANT,DIARRHOEA,2,mg,PRN,ORAL,TREATMENT,2025-03-04,2025-03-08,300,304
021IGAN17001,CM,021IGAN17001-CAN_SITE01-0018,4,FUROSEMIDE,FUROSEMIDE,CONCOMITANT,OEDEMA PERIPHERAL,20.0,mg,QD,ORAL,TREATMENT,2025-03-19,2025-03-30,315,326
021IGAN17001,CM,021IGAN17001-CAN_SITE01-0018,5,IBUPROFEN,IBUPROFEN,CONCOMITANT,BLOOD CREATININE INCREASED,400,mg,PRN,ORAL,TREATMENT,2025-04-08,2025-04-21,335,348
021IGAN17001,CM,021IGAN17001-CAN_SITE01-0018,6,FUROSEMIDE,FUROSEMIDE,CONCOMITANT,OEDEMA PERIPHERAL,20.0,mg,QD,ORAL,TREATMENT,2025-04-29,2025-05-16,356,373
021IGAN17001,CM,021IGAN17001-CAN_SITE01-0018,7,FUROSEMIDE,FUROSEMIDE,CONCOMITANT,OEDEMA PERIPHERAL,20.0,mg,QD,ORAL,TREATMENT,2025-06-07,2025-07-03,395,421
021IGAN17001,CM,021IGAN17001-CAN_SITE01-0018,8,IBUPROFEN,IBUPROFEN,CONCOMITANT,,,,PRN,ORAL,TREATMENT,2025-07-27,2025-10-04,445,514
021IGAN17001,CM,021IGAN17001-CAN_SITE01-0018,9,FUROSEMIDE,FUROSEMIDE,CONCOMITANT,OEDEMA PERIPHERAL,20.0,mg,QD,ORAL,TREATMENT,2025-10-04,2025-10-04,514,514
021IGAN17001,CM,021IGAN17001-CHN_SITE02-0002,1,IBUPROFEN,IBUPROFEN,CONCOMITANT,HEADACHE,400,mg,PRN,ORAL,TREATMENT,2024-03-16,2024-03-28,20,32
021IGAN17001,CM,021IGAN17001-CHN_SITE02-0002,2,PARACETAMOL,PARACETAMOL,CONCOMITANT,BLOOD CREATININE INCREASED,500,mg,PRN,ORAL,TREATMENT,2024-09-13,2024-09-16,201,204
021IGAN17001,CM,021IGAN17001-CHN_SITE02-0002,3,PARACETAMOL,PARACETAMOL,CONCOMITANT,ALANINE AMINOTRANSFERASE INCREASED,500,mg,PRN,ORAL,TREATMENT,2024-11-18,2024-12-10,267,289
021IGAN17001,CM,021IGAN17001-CHN_SITE02-0002,4,ONDANSETRON,ONDANSETRON,CONCOMITANT,NAUSEA,4,mg,PRN,ORAL,TREATMENT,2025-01-10,2025-02-04,320,345
021IGAN17001,CM,021IGAN17001-CHN_SITE02-0002,5,SODIUM POLYSTYRENE SULFONATE,SODIUM POLYSTYRENE SULFONATE,CONCOMITANT,HYPERKALAEMIA,15.0,g,QD,ORAL,TREATMENT,2025-02-03,2025-02-06,344,347
021IGAN17001,CM,021IGAN17001-CHN_SITE02-0002,6,PARACETAMOL,PARACETAMOL,CONCOMITANT,BLOOD CREATININE INCREASED,500,mg,PRN,ORAL,TREATMENT,2025-06-17,2025-07-09,478,500
021IGAN17001,CM,021IGAN17001-GBR_SITE01-0006,1,HYDROCHLOROTHIAZIDE,HYDROCHLOROTHIAZIDE,PRIOR,HYPERTENSION,25,mg,QD,ORAL,SCREENING,2006-02-21,2026-07-12,-6579,868
021IGAN17001,CM,021IGAN17001-GBR_SITE01-0006,2,FUROSEMIDE,FUROSEMIDE,CONCOMITANT,OEDEMA PERIPHERAL,20.0,mg,QD,ORAL,TREATMENT,2024-05-06,2024-06-05,71,101
021IGAN17001,CM,021IGAN17001-GBR_SITE01-0006,3,FUROSEMIDE,FUROSEMIDE,CONCOMITANT,OEDEMA PERIPHERAL,20.0,mg,QD,ORAL,TREATMENT,2024-06-24,2024-07-18,120,144
021IGAN17001,CM,021IGAN17001-GBR_SITE01-0006,4,METOCLOPRAMIDE,METOCLOPRAMIDE,CONCOMITANT,NAUSEA,10,mg,TID,ORAL,TREATMENT,2024-08-20,2024-08-23,177,180
021IGAN17001,CM,021IGAN17001-GBR_SITE01-0006,5,SODIUM POLYSTYRENE SULFONATE,SODIUM POLYSTYRENE SULFONATE,CONCOMITANT,HYPERKALAEMIA,15.0,g,QD,ORAL,TREATMENT,2024-09-15,2024-09-22,203,210
021IGAN17001,CM,021IGAN17001-GBR_SITE01-0006,6,FUROSEMIDE,FUROSEMIDE,CONCOMITANT,OEDEMA PERIPHERAL,20.0,mg,QD,ORAL,TREATMENT,2024-10-08,2024-10-19,226,237
021IGAN17001,CM,021IGAN17001-GBR_SITE01-0006,7,LOPERAMIDE,LOPERAMIDE,CONCOMITANT,DIARRHOEA,2,mg,PRN,ORAL,TREATMENT,2024-11-08,2024-11-28,257,277
021IGAN17001,CM,021IGAN17001-GBR_SITE01-0006,8,FUROSEMIDE,FUROSEMIDE,CONCOMITANT,OEDEMA PERIPHERAL,20.0,mg,QD,ORAL,TREATMENT,2024-12-08,2024-12-12,287,291
021IGAN17001,CM,021IGAN17001-GBR_SITE01-0006,9,IBUPROFEN,IBUPROFEN,CONCOMITANT,HEADACHE,400,mg,PRN,ORAL,TREATMENT,2024-12-23,2024-12-29,302,308
021IGAN17001,CM,021IGAN17001-ITA_SITE01-0013,1,LOSARTAN,LOSARTAN,PRIOR,IGA NEPHROPATHY,100.0,mg,QD,ORAL,SCREENING,2007-02-28,2025-09-15,-6232,543
021IGAN17001,CM,021IGAN17001-ITA_SITE01-0013,2,SODIUM POLYSTYRENE SULFONATE,SODIUM POLYSTYRENE SULFONATE,CONCOMITANT,HYPERKALAEMIA,15.0,g,QD,ORAL,TREATMENT,2024-04-08,2024-04-23,18,33
021IGAN17001,CM,021IGAN17001-ITA_SITE01-0013,3,ONDANSETRON,ONDANSETRON,CONCOMITANT,NAUSEA,4,mg,PRN,ORAL,TREATMENT,2024-04-14,2024-04-19,24,29
021IGAN17001,CM,021IGAN17001-ITA_SITE01-0013,4,IBUPROFEN,IBUPROFEN,CONCOMITANT,ALANINE AMINOTRANSFERASE INCREASED,400,mg,PRN,ORAL,TREATMENT,2024-06-11,2024-07-08,82,109
021IGAN17001,CM,021IGAN17001-ITA_SITE01-0013,5,MECLIZINE,MECLIZINE,CONCOMITANT,DIZZINESS,25,mg,PRN,ORAL,TREATMENT,2024-07-05,2024-07-17,106,118
021IGAN17001,CM,021IGAN17001-ITA_SITE01-0013,6,IBUPROFEN,IBUPROFEN,CONCOMITANT,HEADACHE,400,mg,PRN,ORAL,TREATMENT,2024-08-14,2024-09-06,146,169
021IGAN17001,CM,021IGAN17001-ITA_SITE01-0013,7,PARACETAMOL,PARACETAMOL,CONCOMITANT,HEADACHE,500,mg,PRN,ORAL,TREATMENT,2024-08-30,2024-09-02,162,165
021IGAN17001,CM,021IGAN17001-ITA_SITE01-0013,8,FUROSEMIDE,FUROSEMIDE,CONCOMITANT,OEDEMA PERIPHERAL,20.0,mg,QD,ORAL,TREATMENT,2024-09-07,2024-09-16,170,179
021IGAN17001,CM,021IGAN17001-ITA_SITE01-0013,9,IBUPROFEN,IBUPROFEN,CONCOMITANT,ALANINE AMINOTRANSFERASE INCREASED,400,mg,PRN,ORAL,TREATMENT,2024-09-23,2024-09-27,186,190
021IGAN17001,CM,021IGAN17001-ITA_SITE01-0013,10,PARACETAMOL,PARACETAMOL,CONCOMITANT,BLOOD CREATININE INCREASED,500,mg,PRN,ORAL,TREATMENT,2024-09-27,2024-10-17,190,210
021IGAN17001,CM,021IGAN17001-ITA_SITE01-0013,11,LOPERAMIDE,LOPERAMIDE,CONCOMITANT,DIARRHOEA,2,mg,PRN,ORAL,TREATMENT,2024-10-15,2024-10-22,208,215
021IGAN17001,CM,021IGAN17001-ITA_SITE01-0013,12,METFORMIN,METFORMIN,CONCOMITANT,,,,BID,ORAL,TREATMENT,2024-11-16,2024-11-24,240,248
021IGAN17001,CM,021IGAN17001-ITA_SITE01-0013,13,FERROUS SULFATE,FERROUS SULFATE,CONCOMITANT,ANAEMIA,325.0,mg,QD,ORAL,TREATMENT,2024-11-18,2024-12-12,242,266
021IGAN17001,CM,021IGAN17001-ITA_SITE01-0013,14,PARACETAMOL,PARACETAMOL,CONCOMITANT,ALANINE AMINOTRANSFERASE INCREASED,500,mg,PRN,ORAL,TREATMENT,2024-12-16,2025-01-07,270,292
021IGAN17001,CM,021IGAN17001-ITA_SITE01-0013,15,FUROSEMIDE,FUROSEMIDE,CONCOMITANT,OEDEMA PERIPHERAL,20.0,mg,QD,ORAL,TREATMENT,2025-01-05,2025-01-18,290,303
021IGAN17001,CM,021IGAN17001-ITA_SITE01-0013,16,SODIUM POLYSTYRENE SULFONATE,SODIUM POLYSTYRENE SULFONATE,CONCOMITANT,HYPERKALAEMIA,15.0,g,QD,ORAL,TREATMENT,2025-02-20,2025-03-01,336,345
021IGAN17001,CM,021IGAN17001-ITA_SITE01-0013,17,PARACETAMOL,PARACETAMOL,CONCOMITANT,ALANINE AMINOTRANSFERASE INCREASED,500,mg,PRN,ORAL,TREATMENT,2025-02-27,2025-03-22,343,366
021IGAN17001,CM,021IGAN17001-ITA_SITE01-0013,18,FUROSEMIDE,FUROSEMIDE,CONCOMITANT,OEDEMA PERIPHERAL,20.0,mg,QD,ORAL,TREATMENT,2025-04-19,2025-05-19,394,424
021IGAN17001,CM,021IGAN17001-ITA_SITE01-0013,19,IBUPROFEN,IBUPROFEN,CONCOMITANT,ALANINE AMINOTRANSFERASE INCREASED,400,mg,PRN,ORAL,TREATMENT,2025-04-19,2025-05-01,394,406
021IGAN17001,CM,021IGAN17001-ITA_SITE01-0013,20,FUROSEMIDE,FUROSEMIDE,CONCOMITANT,OEDEMA PERIPHERAL,20.0,mg,QD,ORAL,TREATMENT,2025-05-24,2025-06-02,429,438
021IGAN17001,CM,021IGAN17001-ITA_SITE01-0013,21,MECLIZINE,MECLIZINE,CONCOMITANT,DIZZINESS,25,mg,PRN,ORAL,TREATMENT,2025-07-06,2025-08-03,472,500
021IGAN17001,CM,021IGAN17001-ITA_SITE01-0013,22,IBUPROFEN,IBUPROFEN,CONCOMITANT,BLOOD CREATININE INCREASED,400,mg,PRN,ORAL,TREATMENT,2025-07-30,2025-08-03,496,500
021IGAN17001,CM,021IGAN17001-ITA_SITE01-0013,23,FERROUS SULFATE,FERROUS SULFATE,CONCOMITANT,ANAEMIA,325.0,mg,QD,ORAL,TREATMENT,2025-08-10,2025-09-05,507,533
021IGAN17001,CM,021IGAN17001-ITA_SITE01-0013,24,ONDANSETRON,ONDANSETRON,CONCOMITANT,NAUSEA,4,mg,PRN,ORAL,TREATMENT,2025-09-15,2025-09-15,543,543
021IGAN17001,CM,021IGAN17001-ITA_SITE01-0016,1,LOSARTAN,LOSARTAN,PRIOR,IGA NEPHROPATHY,100.0,mg,QD,ORAL,SCREENING,2006-04-04,2026-08-26,-6582,868
021IGAN17001,CM,021IGAN17001-ITA_SITE01-0016,2,MECLIZINE,MECLIZINE,CONCOMITANT,DIZZINESS,25,mg,PRN,ORAL,TREATMENT,2024-05-16,2024-06-06,36,57
021IGAN17001,CM,021IGAN17001-ITA_SITE01-0016,3,PARACETAMOL,PARACETAMOL,CONCOMITANT,BLOOD CREATININE INCREASED,500,mg,PRN,ORAL,TREATMENT,2024-05-21,2024-06-12,41,63
021IGAN17001,CM,021IGAN17001-ITA_SITE01-0016,4,MECLIZINE,MECLIZINE,CONCOMITANT,DIZZINESS,25,mg,PRN,ORAL,TREATMENT,2024-06-18,2024-07-10,69,91
021IGAN17001,CM,021IGAN17001-ITA_SITE01-0016,5,FERROUS SULFATE,FERROUS SULFATE,CONCOMITANT,ANAEMIA,325.0,mg,QD,ORAL,TREATMENT,2024-09-27,2024-09-30,170,173
021IGAN17001,CM,021IGAN17001-ITA_SITE01-0016,6,PARACETAMOL,PARACETAMOL,CONCOMITANT,BLOOD CREATININE INCREASED,500,mg,PRN,ORAL,TREATMENT,2024-12-08,2025-01-04,242,269
021IGAN17001,CM,021IGAN17001-ITA_SITE01-0016,7,FUROSEMIDE,FUROSEMIDE,CONCOMITANT,OEDEMA PERIPHERAL,20.0,mg,QD,ORAL,TREATMENT,2024-12-22,2025-01-18,256,283
021IGAN17001,CM,021IGAN17001-ITA_SITE01-0016,8,LOPERAMIDE,LOPERAMIDE,CONCOMITANT,DIARRHOEA,2,mg,PRN,ORAL,TREATMENT,2025-01-18,2025-02-08,283,304
021IGAN17001,CM,021IGAN17001-ITA_SITE01-0016,9,IBUPROFEN,IBUPROFEN,CONCOMITANT,HEADACHE,400,mg,PRN,ORAL,TREATMENT,2025-03-13,2025-03-22,337,346
021IGAN17001,CM,021IGAN17001-ITA_SITE01-0016,10,FUROSEMIDE,FUROSEMIDE,CONCOMITANT,OEDEMA PERIPHERAL,20.0,mg,QD,ORAL,TREATMENT,2025-04-06,2025-04-22,361,377
021IGAN17001,CM,021IGAN17001-ITA_SITE01-0016,11,MECLIZINE,MECLIZINE,CONCOMITANT,DIZZINESS,25,mg,PRN,ORAL,TREATMENT,2025-07-08,2025-08-04,454,481
021IGAN17001,CM,021IGAN17001-ITA_SITE01-0016,12,FERROUS SULFATE,FERROUS SULFATE,CONCOMITANT,ANAEMIA,325.0,mg,QD,ORAL,TREATMENT,2025-07-09,2025-08-08,455,485
021IGAN17001,CM,021IGAN17001-ITA_SITE01-0016,13,SODIUM POLYSTYRENE SULFONATE,SODIUM POLYSTYRENE SULFONATE,CONCOMITANT,HYPERKALAEMIA,15.0,g,QD,ORAL,TREATMENT,2025-07-18,2025-07-22,464,468
021IGAN17001,CM,021IGAN17001-ITA_SITE01-0016,14,ONDANSETRON,ONDANSETRON,CONCOMITANT,NAUSEA,4,mg,PRN,ORAL,TREATMENT,2025-08-29,2025-09-18,506,526
021IGAN17001,CM,021IGAN17001-ITA_SITE01-0016,15,FUROSEMIDE,FUROSEMIDE,CONCOMITANT,OEDEMA PERIPHERAL,20.0,mg,QD,ORAL,TREATMENT,2025-09-11,2025-09-29,519,537
021IGAN17001,CM,021IGAN17001-ITA_SITE01-0016,16,MECLIZINE,MECLIZINE,CONCOMITANT,DIZZINESS,25,mg,PRN,ORAL,TREATMENT,2026-03-01,2026-03-16,690,705
021IGAN17001,CM,021IGAN17001-JPN_SITE01-0015,1,IBUPROFEN,IBUPROFEN,CONCOMITANT,,,,PRN,ORAL,TREATMENT,2024-06-10,2024-08-01,52,104
021IGAN17001,CM,021IGAN17001-JPN_SITE01-0015,2,PARACETAMOL,PARACETAMOL,CONCOMITANT,ALANINE AMINOTRANSFERASE INCREASED,500,mg,PRN,ORAL,TREATMENT,2024-07-29,2024-08-03,101,106
021IGAN17001,CM,021IGAN17001-JPN_SITE01-0015,3,IBUPROFEN,IBUPROFEN,CONCOMITANT,ACUTE KIDNEY INJURY,400,mg,PRN,ORAL,TREATMENT,2024-08-23,2024-09-03,126,137
021IGAN17001,CM,021IGAN17001-JPN_SITE02-0019,1,RAMIPRIL,RAMIPRIL,PRIOR,PROTEINURIA,10.0,mg,QD,ORAL,SCREENING,2009-04-09,2026-09-03,-5489,868
021IGAN17001,CM,021IGAN17001-JPN_SITE02-0019,2,PARACETAMOL,PARACETAMOL,CONCOMITANT,ACUTE KIDNEY INJURY,500,mg,PRN,ORAL,TREATMENT,2024-04-19,2024-05-08,1,20
021IGAN17001,CM,021IGAN17001-JPN_SITE02-0019,3,MECLIZINE,MECLIZINE,CONCOMITANT,DIZZINESS,25,mg,PRN,ORAL,TREATMENT,2024-05-05,2024-06-01,17,44
021IGAN17001,CM,021IGAN17001-JPN_SITE02-0019,4,FUROSEMIDE,FUROSEMIDE,CONCOMITANT,OEDEMA PERIPHERAL,20.0,mg,QD,ORAL,TREATMENT,2024-05-06,2024-05-31,18,43
021IGAN17001,CM,021IGAN17001-JPN_SITE02-0019,5,IBUPROFEN,IBUPROFEN,CONCOMITANT,BLOOD CREATININE INCREASED,400,mg,PRN,ORAL,TREATMENT,2024-05-15,2024-05-31,27,43
021IGAN17001,CM,021IGAN17001-JPN_SITE02-0019,6,PARACETAMOL,PARACETAMOL,CONCOMITANT,BLOOD CREATININE INCREASED,500,mg,PRN,ORAL,TREATMENT,2024-06-08,2024-06-14,51,57
021IGAN17001,CM,021IGAN17001-JPN_SITE02-0019,7,IBUPROFEN,IBUPROFEN,CONCOMITANT,HEADACHE,400,mg,PRN,ORAL,TREATMENT,2024-12-21,2025-01-04,247,261
021IGAN17001,CM,021IGAN17001-JPN_SITE02-0019,8,FERROUS SULFATE,FERROUS SULFATE,CONCOMITANT,ANAEMIA,325.0,mg,QD,ORAL,TREATMENT,2025-01-03,2025-01-28,260,285
021IGAN17001,CM,021IGAN17001-JPN_SITE02-0019,9,MECLIZINE,MECLIZINE,CONCOMITANT,DIZZINESS,25,mg,PRN,ORAL,TREATMENT,2025-01-25,2025-02-14,282,302
021IGAN17001,CM,021IGAN17001-JPN_SITE02-0019,10,PARACETAMOL,PARACETAMOL,CONCOMITANT,HEADACHE,500,mg,PRN,ORAL,TREATMENT,2025-02-19,2025-03-05,307,321
021IGAN17001,CM,021IGAN17001-JPN_SITE02-0019,11,IBUPROFEN,IBUPROFEN,CONCOMITANT,HEADACHE,400,mg,PRN,ORAL,TREATMENT,2025-04-01,2025-04-26,348,373
021IGAN17001,CM,021IGAN17001-JPN_SITE02-0019,12,PARACETAMOL,PARACETAMOL,CONCOMITANT,HEADACHE,500,mg,PRN,ORAL,TREATMENT,2025-06-02,2025-06-22,410,430
021IGAN17001,CM,021IGAN17001-JPN_SITE02-0019,13,SODIUM POLYSTYRENE SULFONATE,SODIUM POLYSTYRENE SULFONATE,CONCOMITANT,HYPERKALAEMIA,15.0,g,QD,ORAL,TREATMENT,2025-09-21,2025-10-21,521,551
021IGAN17001,CM,021IGAN17001-JPN_SITE02-0019,14,IBUPROFEN,IBUPROFEN,CONCOMITANT,ALANINE AMINOTRANSFERASE INCREASED,400,mg,PRN,ORAL,TREATMENT,2025-10-05,2025-11-04,535,565
021IGAN17001,CM,021IGAN17001-JPN_SITE02-0019,15,IBUPROFEN,IBUPROFEN,CONCOMITANT,ALANINE AMINOTRANSFERASE INCREASED,400,mg,PRN,ORAL,TREATMENT,2026-02-18,2026-03-14,671,695
021IGAN17001,CM,021IGAN17001-JPN_SITE02-0019,16,METFORMIN,METFORMIN,CONCOMITANT,,,,BID,ORAL,TREATMENT,2026-06-09,2026-06-24,782,797
021IGAN17001,CM,021IGAN17001-KOR_SITE01-0005,1,LOSARTAN,LOSARTAN,PRIOR,IGA NEPHROPATHY,100.0,mg,QD,ORAL,SCREENING,2009-02-10,2024-04-11,-5499,41
021IGAN17001,CM,021IGAN17001-KOR_SITE01-0005,2,HYDROCHLOROTHIAZIDE,HYDROCHLOROTHIAZIDE,PRIOR,HYPERTENSION,25,mg,QD,ORAL,SCREENING,2016-02-09,2024-04-11,-2944,41
021IGAN17001,CM,021IGAN17001-KOR_SITE01-0005,3,FUROSEMIDE,FUROSEMIDE,CONCOMITANT,OEDEMA PERIPHERAL,20.0,mg,QD,ORAL,TREATMENT,2024-03-07,2024-04-04,6,34
021IGAN17001,CM,021IGAN17001-KOR_SITE01-0007,1,SODIUM POLYSTYRENE SULFONATE,SODIUM POLYSTYRENE SULFONATE,CONCOMITANT,HYPERKALAEMIA,15.0,g,QD,ORAL,TREATMENT,2024-09-12,2024-10-02,167,187
021IGAN17001,CM,021IGAN17001-KOR_SITE01-0007,2,FERROUS SULFATE,FERROUS SULFATE,CONCOMITANT,ANAEMIA,325.0,mg,QD,ORAL,TREATMENT,2025-01-17,2025-02-10,294,318
021IGAN17001,CM,021IGAN17001-KOR_SITE01-0007,3,FERROUS SULFATE,FERROUS SULFATE,CONCOMITANT,ANAEMIA,325.0,mg,QD,ORAL,TREATMENT,2025-02-19,2025-02-21,327,329
021IGAN17001,CM,021IGAN17001-USA_SITE01-0001,1,LOSARTAN,LOSARTAN,PRIOR,IGA NEPHROPATHY,100.0,mg,QD,ORAL,SCREENING,2005-02-14,2025-01-04,-6954,311
021IGAN17001,CM,021IGAN17001-USA_SITE01-0001,2,RAMIPRIL,RAMIPRIL,PRIOR,PROTEINURIA,10.0,mg,QD,ORAL,SCREENING,2021-02-10,2025-01-04,-1114,311
021IGAN17001,CM,021IGAN17001-USA_SITE01-0001,3,LOPERAMIDE,LOPERAMIDE,CONCOMITANT,DIARRHOEA,2,mg,PRN,ORAL,TREATMENT,2024-06-02,2024-06-13,95,106
021IGAN17001,CM,021IGAN17001-USA_SITE01-0001,4,FUROSEMIDE,FUROSEMIDE,CONCOMITANT,OEDEMA PERIPHERAL,20.0,mg,QD,ORAL,TREATMENT,2024-06-23,2024-07-18,116,141
021IGAN17001,CM,021IGAN17001-USA_SITE01-0001,5,SODIUM POLYSTYRENE SULFONATE,SODIUM POLYSTYRENE SULFONATE,CONCOMITANT,HYPERKALAEMIA,15.0,g,QD,ORAL,TREATMENT,2024-06-25,2024-07-17,118,140
021IGAN17001,CM,021IGAN17001-USA_SITE01-0001,6,SODIUM POLYSTYRENE SULFONATE,SODIUM POLYSTYRENE SULFONATE,CONCOMITANT,HYPERKALAEMIA,15.0,g,QD,ORAL,TREATMENT,2024-09-29,2024-10-07,214,222
021IGAN17001,CM,021IGAN17001-USA_SITE01-0001,7,MECLIZINE,MECLIZINE,CONCOMITANT,DIZZINESS,25,mg,PRN,ORAL,TREATMENT,2024-12-10,2024-12-27,286,303
021IGAN17001,CM,021IGAN17001-USA_SITE01-0009,1,LOSARTAN,LOSARTAN,PRIOR,IGA NEPHROPATHY,100.0,mg,QD,ORAL,SCREENING,2010-02-10,2024-06-29,-5131,123
021IGAN17001,CM,021IGAN17001-USA_SITE01-0009,2,ONDANSETRON,ONDANSETRON,CONCOMITANT,NAUSEA,4,mg,PRN,ORAL,TREATMENT,2024-04-04,2024-04-26,37,59
021IGAN17001,CM,021IGAN17001-USA_SITE01-0009,3,METFORMIN,METFORMIN,CONCOMITANT,,,,BID,ORAL,TREATMENT,2024-05-06,2024-06-29,69,123
021IGAN17001,CM,021IGAN17001-USA_SITE01-0009,4,MECLIZINE,MECLIZINE,CONCOMITANT,DIZZINESS,25,mg,PRN,ORAL,TREATMENT,2024-05-28,2024-06-17,91,111
021IGAN17001,CM,021IGAN17001-USA_SITE01-0009,5,PARACETAMOL,PARACETAMOL,CONCOMITANT,BLOOD CREATININE INCREASED,500,mg,PRN,ORAL,TREATMENT,2024-06-23,2024-06-29,117,123
021IGAN17001,CM,021IGAN17001-USA_SITE02-0014,1,FUROSEMIDE,FUROSEMIDE,CONCOMITANT,OEDEMA PERIPHERAL,20.0,mg,QD,ORAL,TREATMENT,2024-02-19,2024-02-24,12,17
021IGAN17001,CM,021IGAN17001-USA_SITE02-0014,2,FUROSEMIDE,FUROSEMIDE,CONCOMITANT,OEDEMA PERIPHERAL,20.0,mg,QD,ORAL,TREATMENT,2024-02-22,2024-03-20,15,42
021IGAN17001,CM,021IGAN17001-USA_SITE02-0014,3,PARACETAMOL,PARACETAMOL,CONCOMITANT,BLOOD CREATININE INCREASED,500,mg,PRN,ORAL,TREATMENT,2024-03-03,2024-03-19,25,41
021IGAN17001,CM,021IGAN17001-USA_SITE02-0014,4,PARACETAMOL,PARACETAMOL,CONCOMITANT,HEADACHE,500,mg,PRN,ORAL,TREATMENT,2024-03-13,2024-03-23,35,45
021IGAN17001,CM,021IGAN17001-USA_SITE02-0014,5,METFORMIN,METFORMIN,CONCOMITANT,,,,BID,ORAL,TREATMENT,2024-03-16,2024-05-01,38,84
021IGAN17001,CM,021IGAN17001-USA_SITE02-0014,6,PARACETAMOL,PARACETAMOL,CONCOMITANT,ALANINE AMINOTRANSFERASE INCREASED,500,mg,PRN,ORAL,TREATMENT,2024-03-21,2024-04-02,43,55
021IGAN17001,CM,021IGAN17001-USA_SITE02-0014,7,IBUPROFEN,IBUPROFEN,CONCOMITANT,ACUTE KIDNEY INJURY,400,mg,PRN,ORAL,TREATMENT,2024-04-01,2024-04-23,54,76
021IGAN17001,CM,021IGAN17001-USA_SITE02-0014,8,IBUPROFEN,IBUPROFEN,CONCOMITANT,HEADACHE,400,mg,PRN,ORAL,TREATMENT,2024-04-04,2024-04-17,57,70
021IGAN17001,CM,021IGAN17001-USA_SITE02-0014,9,FUROSEMIDE,FUROSEMIDE,CONCOMITANT,OEDEMA PERIPHERAL,20.0,mg,QD,ORAL,TREATMENT,2024-04-11,2024-05-07,64,90
021IGAN17001,CM,021IGAN17001-USA_SITE02-0014,10,FUROSEMIDE,FUROSEMIDE,CONCOMITANT,OEDEMA PERIPHERAL,20.0,mg,QD,ORAL,TREATMENT,2024-04-12,2024-05-08,65,91
021IGAN17001,CM,021IGAN17001-USA_SITE02-0014,11,FUROSEMIDE,FUROSEMIDE,CONCOMITANT,OEDEMA PERIPHERAL,20.0,mg,QD,ORAL,TREATMENT,2024-05-09,2024-05-16,92,99
021IGAN17001,CM,021IGAN17001-USA_SITE02-0014,12,PARACETAMOL,PARACETAMOL,CONCOMITANT,ALANINE AMINOTRANSFERASE INCREASED,500,mg,PRN,ORAL,TREATMENT,2024-07-19,2024-08-08,163,183
021IGAN17001,CM,021IGAN17001-USA_SITE02-0014,13,SODIUM POLYSTYRENE SULFONATE,SODIUM POLYSTYRENE SULFONATE,CONCOMITANT,HYPERKALAEMIA,15.0,g,QD,ORAL,TREATMENT,2024-08-05,2024-08-27,180,202
021IGAN17001,CM,021IGAN17001-USA_SITE02-0014,14,IBUPROFEN,IBUPROFEN,CONCOMITANT,ALANINE AMINOTRANSFERASE INCREASED,400,mg,PRN,ORAL,TREATMENT,2024-08-05,2024-08-08,180,183
021IGAN17001,CM,021IGAN17001-USA_SITE02-0014,15,PARACETAMOL,PARACETAMOL,CONCOMITANT,BLOOD CREATININE INCREASED,500,mg,PRN,ORAL,TREATMENT,2024-08-11,2024-08-28,186,203
021IGAN17001,CM,021IGAN17001-USA_SITE02-0014,16,FERROUS SULFATE,FERROUS SULFATE,CONCOMITANT,ANAEMIA,325.0,mg,QD,ORAL,TREATMENT,2024-08-14,2024-08-20,189,195
021IGAN17001,CM,021IGAN17001-USA_SITE02-0014,17,SODIUM POLYSTYRENE SULFONATE,SODIUM POLYSTYRENE SULFONATE,CONCOMITANT,HYPERKALAEMIA,15.0,g,QD,ORAL,TREATMENT,2024-11-22,2024-11-22,289,289
