STUDYID,DOMAIN,USUBJID,SUSEQ,SUTRT,SUDECOD,SUCAT,SUSCAT,SUPRESP,SUOCCUR,SUSTAT,SUDOSE,SUDOSU,SUDOSFRQ,EPOCH,SUSTDTC,SUENDTC,SUSTDY,SUENDY,SUENRF
021IGAN17001,SU,021IGAN17001-CAN_SITE01-0008,1,BEER/WINE/SPIRITS,ETHANOL,ALCOHOL,,Y,Y,,3.0,DRINKS/WEEK,QW,SCREENING,2016-04-07,,-2955,,ONGOING
021IGAN17001,SU,021IGAN17001-CAN_SITE01-0008,2,COFFEE,COFFEE,CAFFEINE,,Y,Y,,1.0,CUPS/DAY,QD,SCREENING,2020-04-06,,-1495,,ONGOING
021IGAN17001,SU,021IGAN17001-CAN_SITE01-0008,3,CIGARETTES,CIGARETTES,TOBACCO,,Y,N,,,,,SCREENING,,,,,
021IGAN17001,SU,021IGAN17001-CAN_SITE01-0010,1,BEER/WINE/SPIRITS,ETHANOL,ALCOHOL,,Y,Y,,10.0,DRINKS/WEEK,QW,SCREENING,2002-01-22,,-8053,,ONGOING
021IGAN17001,SU,021IGAN17001-CAN_SITE01-0010,2,COFFEE,COFFEE,CAFFEINE,,Y,Y,,4.0,CUPS/DAY,QD,SCREENING,2018-01-18,,-2213,,ONGOING
021IGAN17001,SU,021IGAN17001-CAN_SITE01-0010,3,CIGARETTES,CIGARETTES,TOBACCO,,Y,Y,,,,,SCREENING,2003-01-22,2009-01-20,-7688,-5498,
021IGAN17001,SU,021IGAN17001-CAN_SITE01-0018,1,BEER/WINE/SPIRITS,ETHANOL,ALCOHOL,,Y,N,,,,,SCREENING,,,,,
021IGAN17001,SU,021IGAN17001-CAN_SITE01-0018,2,COFFEE,COFFEE,CAFFEINE,,Y,Y,,3.0,CUPS/DAY,QD,SCREENING,2013-04-14,,-4043,,ONGOING
021IGAN17001,SU,021IGAN17001-CAN_SITE01-0018,3,CIGARETTES,CIGARETTES,TOBACCO,,Y,Y,,,,,SCREENING,2014-04-14,2022-04-12,-3678,-758,
021IGAN17001,SU,021IGAN17001-CHN_SITE02-0002,1,BEER/WINE/SPIRITS,ETHANOL,ALCOHOL,,Y,Y,,,,,SCREENING,2009-02-11,2010-02-11,-5493,-5128,
021IGAN17001,SU,021IGAN17001-CHN_SITE02-0002,2,COFFEE,COFFEE,CAFFEINE,,Y,N,,,,,SCREENING,,,,,
021IGAN17001,SU,021IGAN17001-CHN_SITE02-0002,3,CIGARETTES,CIGARETTES,TOBACCO,,Y,N,,,,,SCREENING,,,,,
021IGAN17001,SU,021IGAN17001-GBR_SITE01-0006,1,BEER/WINE/SPIRITS,ETHANOL,ALCOHOL,,Y,N,,,,,SCREENING,,,,,
021IGAN17001,SU,021IGAN17001-GBR_SITE01-0006,2,COFFEE,COFFEE,CAFFEINE,,Y,Y,,3.0,CUPS/DAY,QD,SCREENING,2005-02-21,,-6944,,ONGOING
021IGAN17001,SU,021IGAN17001-GBR_SITE01-0006,3,CIGARETTES,CIGARETTES,TOBACCO,,Y,N,,,,,SCREENING,,,,,
021IGAN17001,SU,021IGAN17001-ITA_SITE01-0013,1,BEER/WINE/SPIRITS,ETHANOL,ALCOHOL,,Y,N,,,,,SCREENING,,,,,
021IGAN17001,SU,021IGAN17001-ITA_SITE01-0013,2,COFFEE,COFFEE,CAFFEINE,,Y,N,,,,,SCREENING,,,,,
021IGAN17001,SU,021IGAN17001-ITA_SITE01-0013,3,CIGARETTES,CIGARETTES,TOBACCO,,Y,Y,,11.0,CIGARETTES/DAY,QD,SCREENING,2017-02-25,,-2582,,ONGOING
021IGAN17001,SU,021IGAN17001-ITA_SITE01-0016,1,BEER/WINE/SPIRITS,ETHANOL,ALCOHOL,,Y,Y,,,,,SCREENING,1995-04-07,2006-04-04,-10597,-6582,
021IGAN17001,SU,021IGAN17001-ITA_SITE01-0016,2,COFFEE,COFFEE,CAFFEINE,,Y,Y,,3.0,CUPS/DAY,QD,SCREENING,2012-04-02,,-4392,,ONGOING
021IGAN17001,SU,021IGAN17001-ITA_SITE01-0016,3,CIGARETTES,CIGARETTES,TOBACCO,,Y,N,,,,,SCREENING,,,,,
021IGAN17001,SU,021IGAN17001-ITA_SITE01-0020,1,BEER/WINE/SPIRITS,ETHANOL,ALCOHOL,,Y,Y,,4.0,DRINKS/WEEK,QW,SCREENING,1999-03-07,,-9152,,ONGOING
021IGAN17001,SU,021IGAN17001-ITA_SITE01-0020,2,COFFEE,COFFEE,CAFFEINE,,Y,Y,,5.0,CUPS/DAY,QD,SCREENING,1998-03-07,,-9517,,ONGOING
021IGAN17001,SU,021IGAN17001-ITA_SITE01-0020,3,CIGARETTES,CIGARETTES,TOBACCO,,Y,Y,,,,,SCREENING,2004-03-05,2009-03-04,-7327,-5502,
021IGAN17001,SU,021IGAN17001-JPN_SITE01-0015,1,BEER/WINE/SPIRITS,ETHANOL,ALCOHOL,,Y,Y,,11.0,DRINKS/WEEK,QW,SCREENING,2017-03-18,,-2590,,ONGOING
021IGAN17001,SU,021IGAN17001-JPN_SITE01-0015,2,COFFEE,COFFEE,CAFFEINE,,Y,N,,,,,SCREENING,,,,,
021IGAN17001,SU,021IGAN17001-JPN_SITE01-0015,3,CIGARETTES,CIGARETTES,TOBACCO,,Y,Y,,12.0,CIGARETTES/DAY,QD,SCREENING,1998-03-23,,-9525,,ONGOING
021IGAN17001,SU,021IGAN17001-JPN_SITE02-0019,1,BEER/WINE/SPIRITS,ETHANOL,ALCOHOL,,Y,N,,,,,SCREENING,,,,,
021IGAN17001,SU,021IGAN17001-JPN_SITE02-0019,2,COFFEE,COFFEE,CAFFEINE,,Y,Y,,3.0,CUPS/DAY,QD,SCREENING,1997-04-12,,-9869,,ONGOING
021IGAN17001,SU,021IGAN17001-JPN_SITE02-0019,3,CIGARETTES,CIGARETTES,TOBACCO,,Y,N,,,,,SCREENING,,,,,
021IGAN17001,SU,021IGAN17001-KOR_SITE01-0005,1,BEER/WINE/SPIRITS,ETHANOL,ALCOHOL,,Y,N,,,,,SCREENING,,,,,
021IGAN17001,SU,021IGAN17001-KOR_SITE01-0005,2,COFFEE,COFFEE,CAFFEINE,,Y,Y,,2.0,CUPS/DAY,QD,SCREENING,1997-02-13,,-9879,,ONGOING
021IGAN17001,SU,021IGAN17001-KOR_SITE01-0005,3,CIGARETTES,CIGARETTES,TOBACCO,,Y,Y,,29.0,CIGARETTES/DAY,QD,SCREENING,2018-02-08,,-2214,,ONGOING
021IGAN17001,SU,021IGAN17001-KOR_SITE01-0007,1,BEER/WINE/SPIRITS,ETHANOL,ALCOHOL,,Y,Y,,,,,SCREENING,1995-03-03,2008-02-28,-10620,-5875,
021IGAN17001,SU,021IGAN17001-KOR_SITE01-0007,2,COFFEE,COFFEE,CAFFEINE,,Y,Y,,2.0,CUPS/DAY,QD,SCREENING,2012-02-27,,-4415,,ONGOING
021IGAN17001,SU,021IGAN17001-KOR_SITE01-0007,3,CIGARETTES,CIGARETTES,TOBACCO,,Y,N,,,,,SCREENING,,,,,
021IGAN17001,SU,021IGAN17001-USA_SITE01-0001,1,BEER/WINE/SPIRITS,ETHANOL,ALCOHOL,,Y,Y,,1.0,DRINKS/WEEK,QW,SCREENING,2003-02-15,,-7684,,ONGOING
021IGAN17001,SU,021IGAN17001-USA_SITE01-0001,2,COFFEE,COFFEE,CAFFEINE,,Y,Y,,,,,SCREENING,2016-02-12,2021-02-10,-2939,-1114,
021IGAN17001,SU,021IGAN17001-USA_SITE01-0001,3,CIGARETTES,CIGARETTES,TOBACCO,,Y,N,,,,,SCREENING,,,,,
021IGAN17001,SU,021IGAN17001-USA_SITE01-0009,1,BEER/WINE/SPIRITS,ETHANOL,ALCOHOL,,Y,N,,,,,SCREENING,,,,,
021IGAN17001,SU,021IGAN17001-USA_SITE01-0009,2,COFFEE,COFFEE,CAFFEINE,,Y,Y,,3.0,CUPS/DAY,QD,SCREENING,2022-02-07,,-751,,ONGOING
021IGAN17001,SU,021IGAN17001-USA_SITE01-0009,3,CIGARETTES,CIGARETTES,TOBACCO,,Y,Y,,,,,SCREENING,2019-02-08,2021-02-07,-1846,-1116,
021IGAN17001,SU,021IGAN17001-USA_SITE02-0014,1,BEER/WINE/SPIRITS,ETHANOL,ALCOHOL,,Y,Y,,4.0,DRINKS/WEEK,QW,SCREENING,2004-01-30,,-7314,,ONGOING
021IGAN17001,SU,021IGAN17001-USA_SITE02-0014,2,COFFEE,COFFEE,CAFFEINE,,Y,Y,,4.0,CUPS/DAY,QD,SCREENING,1997-01-31,,-9869,,ONGOING
021IGAN17001,SU,021IGAN17001-USA_SITE02-0014,3,CIGARETTES,CIGARETTES,TOBACCO,,Y,Y,,,,,SCREENING,2010-01-28,2023-01-25,-5124,-379,
