{"subject_id":"M19-977-RISA-PED-ESP_SITE01-0019","study_id":"M19-977-RISA-PED","generated_at":"2026-07-07T06:10:44.452259+00:00","sdtmig_version":"3.4","flags":{"has_serious_ae":true,"has_fatal_ae":false,"has_protocol_deviation":true,"n_protocol_deviations":5,"n_adverse_events":17,"n_concomitant_meds":10,"max_ae_severity":"SEVERE","screen_failure":false,"discontinued_early":true,"discontinuation_reason":"ADVERSE EVENT","death":false,"exposure_days":196},"timeline":[{"dtc":"2013-02-04","dy":"-4022","event":"CM START: METFORMIN","domain":"CM","category":"concomitant_med"},{"dtc":"2023-12-24","dy":"-47","event":"VISIT: SCREENING","domain":"SV","category":"visit"},{"dtc":"2024-02-02","dy":"-7","event":"INFORMED CONSENT OBTAINED","domain":"DS","category":"milestone"},{"dtc":"2024-02-09","dy":"1","event":"RANDOMIZED","domain":"DS","category":"milestone"},{"dtc":"2024-02-09","dy":"1","event":"FIRST DOSE: RISANKIZUMAB","domain":"EX","category":"exposure"},{"dtc":"2024-02-09","dy":"1","event":"DEVIATION: DOSE MODIFICATION","domain":"DV","category":"deviation"},{"dtc":"2024-02-09","dy":"1","event":"VISIT: WEEK 0 BASELINE","domain":"SV","category":"visit"},{"dtc":"2024-02-27","dy":"19","event":"AE: Tinea infections (MILD)","domain":"AE","category":"adverse_event"},{"dtc":"2024-03-05","dy":"26","event":"DEVIATION: VISIT OCCURRED OUTSIDE VISIT WINDOW","domain":"DV","category":"deviation"},{"dtc":"2024-03-05","dy":"26","event":"VISIT: WEEK 4","domain":"SV","category":"visit"},{"dtc":"2024-03-18","dy":"39","event":"AE: Nasopharyngitis (SEVERE) [SERIOUS]","domain":"AE","category":"adverse_event"},{"dtc":"2024-03-18","dy":"39","event":"CM START: PARACETAMOL","domain":"CM","category":"concomitant_med"},{"dtc":"2024-03-21","dy":"42","event":"AE: Nausea (MODERATE)","domain":"AE","category":"adverse_event"},{"dtc":"2024-03-21","dy":"42","event":"AE: Pneumonia (MODERATE)","domain":"AE","category":"adverse_event"},{"dtc":"2024-03-21","dy":"42","event":"CM START: AMOXICILLIN/CLAVULANATE","domain":"CM","category":"concomitant_med"},{"dtc":"2024-03-24","dy":"45","event":"AE: Upper respiratory tract infection (MODERATE)","domain":"AE","category":"adverse_event"},{"dtc":"2024-03-25","dy":"46","event":"AE: Diarrhoea (MODERATE)","domain":"AE","category":"adverse_event"},{"dtc":"2024-04-01","dy":"53","event":"AE: Pruritus (MILD)","domain":"AE","category":"adverse_event"},{"dtc":"2024-04-01","dy":"53","event":"CM START: DIPHENHYDRAMINE","domain":"CM","category":"concomitant_med"},{"dtc":"2024-04-02","dy":"54","event":"DEVIATION: VISIT OCCURRED OUTSIDE VISIT WINDOW","domain":"DV","category":"deviation"},{"dtc":"2024-04-02","dy":"54","event":"VISIT: WEEK 8","domain":"SV","category":"visit"},{"dtc":"2024-04-06","dy":"58","event":"AE: Injection site reaction (SEVERE) [SERIOUS]","domain":"AE","category":"adverse_event"},{"dtc":"2024-04-06","dy":"58","event":"CM START: HYDROCORTISONE CREAM","domain":"CM","category":"concomitant_med"},{"dtc":"2024-04-06","dy":"58","event":"CM START: IBUPROFEN","domain":"CM","category":"concomitant_med"},{"dtc":"2024-04-19","dy":"71","event":"AE: Pruritus (MILD)","domain":"AE","category":"adverse_event"},{"dtc":"2024-05-04","dy":"86","event":"VISIT: WEEK 12","domain":"SV","category":"visit"},{"dtc":"2024-05-24","dy":"106","event":"AE: Upper respiratory tract infection (MODERATE)","domain":"AE","category":"adverse_event"},{"dtc":"2024-05-30","dy":"112","event":"VISIT: WEEK 16","domain":"SV","category":"visit"},{"dtc":"2024-05-31","dy":"113","event":"DEVIATION: DOSE MODIFICATION","domain":"DV","category":"deviation"},{"dtc":"2024-07-14","dy":"157","event":"AE: Headache (MILD)","domain":"AE","category":"adverse_event"},{"dtc":"2024-08-01","dy":"175","event":"VISIT: WEEK 24","domain":"SV","category":"visit"},{"dtc":"2024-08-02","dy":"176","event":"AE: Injection site reaction (MODERATE)","domain":"AE","category":"adverse_event"},{"dtc":"2024-08-03","dy":"177","event":"AE: Pneumonia (MILD)","domain":"AE","category":"adverse_event"},{"dtc":"2024-08-03","dy":"177","event":"CM START: AMOXICILLIN/CLAVULANATE","domain":"CM","category":"concomitant_med"},{"dtc":"2024-08-05","dy":"179","event":"AE: Herpes simplex (MODERATE)","domain":"AE","category":"adverse_event"},{"dtc":"2024-08-05","dy":"179","event":"CM START: ACICLOVIR","domain":"CM","category":"concomitant_med"},{"dtc":"2024-08-07","dy":"181","event":"AE: Pruritus (MILD)","domain":"AE","category":"adverse_event"},{"dtc":"2024-08-23","dy":"197","event":"LAST DOSE: RISANKIZUMAB","domain":"EX","category":"exposure"},{"dtc":"2024-10-04","dy":"239","event":"AE: Upper respiratory tract infection (MODERATE)","domain":"AE","category":"adverse_event"},{"dtc":"2024-10-04","dy":"239","event":"CM START: PARACETAMOL","domain":"CM","category":"concomitant_med"},{"dtc":"2024-10-13","dy":"248","event":"DEVIATION: VISIT OCCURRED OUTSIDE VISIT WINDOW","domain":"DV","category":"deviation"},{"dtc":"2024-10-13","dy":"248","event":"VISIT: WEEK 36","domain":"SV","category":"visit"},{"dtc":"2024-10-19","dy":"254","event":"ADVERSE EVENT","domain":"DS","category":"milestone"},{"dtc":"2024-10-19","dy":"254","event":"AE: Upper respiratory tract infection (SEVERE) [SERIOUS]","domain":"AE","category":"adverse_event"},{"dtc":"2024-10-19","dy":"254","event":"CM START: PARACETAMOL","domain":"CM","category":"concomitant_med"}],"section_1_demographics":{"usubjid":"M19-977-RISA-PED-ESP_SITE01-0019","subjid":"0019","siteid":"ESP_SITE01","age":"10","ageu":"YEARS","sex":"M","race":"BLACK OR AFRICAN AMERICAN","ethnicity":"HISPANIC OR LATINO","country":"ESP","arm":"Risankizumab SC (75 mg if <40 kg, 150 mg if >=40 kg)","armcd":"RISA","actarm":"Risankizumab SC (75 mg if <40 kg, 150 mg if >=40 kg)","actarmcd":"RISA","randomization_date":null,"informed_consent_date":"2024-02-02","reference_start_date":"2024-02-09","reference_end_date":"2024-10-19","screen_failure":false,"death_flag":null,"death_date":null,"subject_characteristics":[{"testcd":"ALCUSE","test":"Alcohol Use","orres":"CURRENT DRINKER","stresc":"CURRENT DRINKER","visit":null,"dtc":"2024-02-02"},{"testcd":"BMI","test":"Body Mass Index","orres":"22.1","stresc":"22.1","visit":null,"dtc":"2024-02-02"},{"testcd":"DURDIS","test":"Duration of Disease","orres":"133 months","stresc":"133","visit":null,"dtc":"2024-02-02"},{"testcd":"TOBPKYR","test":"Tobacco Pack-Years","orres":"8","stresc":"8","visit":null,"dtc":"2024-02-02"},{"testcd":"TOBUSE","test":"Tobacco Use","orres":"FORMER SMOKER","stresc":"FORMER SMOKER","visit":null,"dtc":"2024-02-02"}]},"section_2_medical_history":{"items":[{"seq":"1","term":"DIABETES MELLITUS TYPE 2","decod":"DIABETES MELLITUS TYPE 2","cat":"ENDOCRINE","scat":null,"presp":null,"occur":null,"status":null,"onset_dtc":"2013-02-04","end_dtc":null,"visit":null},{"seq":"2","term":"PSORIASIS","decod":"PSORIASIS","cat":"DERMATOLOGICAL","scat":null,"presp":null,"occur":null,"status":null,"onset_dtc":"2023-02","end_dtc":"2023-10-21","visit":null}]},"section_3_inclusion_exclusion":{"criteria":[]},"section_4_trial_participation":{"visits":[{"visitnum":"1.0","visit":"SCREENING","start_dtc":"2023-12-24","end_dtc":"2023-12-24","updes":null},{"visitnum":"2.0","visit":"WEEK 0 BASELINE","start_dtc":"2024-02-09","end_dtc":"2024-02-09","updes":null},{"visitnum":"3.0","visit":"WEEK 4","start_dtc":"2024-03-05","end_dtc":"2024-03-05","updes":null},{"visitnum":"4.0","visit":"WEEK 8","start_dtc":"2024-04-02","end_dtc":"2024-04-02","updes":null},{"visitnum":"5.0","visit":"WEEK 12","start_dtc":"2024-05-04","end_dtc":"2024-05-04","updes":null},{"visitnum":"6.0","visit":"WEEK 16","start_dtc":"2024-05-30","end_dtc":"2024-05-30","updes":null},{"visitnum":"7.0","visit":"WEEK 24","start_dtc":"2024-08-01","end_dtc":"2024-08-01","updes":null},{"visitnum":"8.0","visit":"WEEK 36","start_dtc":"2024-10-13","end_dtc":"2024-10-13","updes":null}],"epochs":[{"seq":"1","etcd":"SCRN","element":"Screening","start_dtc":"2024-01-05","end_dtc":"2024-02-09","updes":null},{"seq":"2","etcd":"TRT","element":"Treatment (initial)","start_dtc":"2024-02-09","end_dtc":"2024-10-19","updes":null}],"visit_count":8},"section_5_concomitant_medications":{"medications":[{"seq":"1","trt":"METFORMIN","decod":"METFORMIN","cat":"PRIOR","dose":"1000","doseu":null,"dosef":"BID","route":"ORAL","indication":"DIABETES MELLITUS TYPE 2","start_dtc":"2013-02-04","end_dtc":"2024-10-19","ongoing":null,"visit":null},{"seq":"2","trt":"PARACETAMOL","decod":"PARACETAMOL","cat":"CONCOMITANT","dose":"500","doseu":null,"dosef":"PRN","route":"ORAL","indication":"NASOPHARYNGITIS","start_dtc":"2024-03-18","end_dtc":"2024-03-31","ongoing":null,"visit":null},{"seq":"3","trt":"AMOXICILLIN/CLAVULANATE","decod":"AMOXICILLIN/CLAVULANATE","cat":"CONCOMITANT","dose":"875","doseu":null,"dosef":"BID","route":"ORAL","indication":"PNEUMONIA","start_dtc":"2024-03-21","end_dtc":"2024-04-17","ongoing":null,"visit":null},{"seq":"4","trt":"DIPHENHYDRAMINE","decod":"DIPHENHYDRAMINE","cat":"CONCOMITANT","dose":"25","doseu":null,"dosef":"PRN","route":"ORAL","indication":"PRURITUS","start_dtc":"2024-04-01","end_dtc":"2024-04-26","ongoing":null,"visit":null},{"seq":"5","trt":"HYDROCORTISONE CREAM","decod":"HYDROCORTISONE CREAM","cat":"CONCOMITANT","dose":"1","doseu":null,"dosef":"BID","route":"TOPICAL","indication":"INJECTION SITE REACTION","start_dtc":"2024-04-06","end_dtc":"2024-04-21","ongoing":null,"visit":null},{"seq":"6","trt":"IBUPROFEN","decod":"IBUPROFEN","cat":"CONCOMITANT","dose":null,"doseu":null,"dosef":"PRN","route":"ORAL","indication":null,"start_dtc":"2024-04-06","end_dtc":"2024-05-12","ongoing":null,"visit":null},{"seq":"7","trt":"AMOXICILLIN/CLAVULANATE","decod":"AMOXICILLIN/CLAVULANATE","cat":"CONCOMITANT","dose":"875","doseu":null,"dosef":"BID","route":"ORAL","indication":"PNEUMONIA","start_dtc":"2024-08-03","end_dtc":"2024-08-13","ongoing":null,"visit":null},{"seq":"8","trt":"ACICLOVIR","decod":"ACICLOVIR","cat":"CONCOMITANT","dose":"400.0","doseu":null,"dosef":"TID","route":"ORAL","indication":"HERPES SIMPLEX","start_dtc":"2024-08-05","end_dtc":"2024-08-10","ongoing":null,"visit":null},{"seq":"9","trt":"PARACETAMOL","decod":"PARACETAMOL","cat":"CONCOMITANT","dose":"500","doseu":null,"dosef":"PRN","route":"ORAL","indication":"UPPER RESPIRATORY TRACT INFECTION","start_dtc":"2024-10-04","end_dtc":"2024-10-18","ongoing":null,"visit":null},{"seq":"10","trt":"PARACETAMOL","decod":"PARACETAMOL","cat":"CONCOMITANT","dose":"500","doseu":null,"dosef":"PRN","route":"ORAL","indication":"UPPER RESPIRATORY TRACT INFECTION","start_dtc":"2024-10-19","end_dtc":"2024-10-19","ongoing":null,"visit":null}]},"section_6_exposure":{"exposure_as_administered":[{"seq":"1","trt":"RISANKIZUMAB","dose":"150.0","doseu":null,"dosef":"ONCE","route":"SUBCUTANEOUS","lot":null,"start_dtc":"2024-02-09","end_dtc":"2024-02-09","start_dy":"1","end_dy":"1","epoch":"TREATMENT","visit":null},{"seq":"2","trt":"RISANKIZUMAB","dose":"150.0","doseu":null,"dosef":"ONCE","route":"SUBCUTANEOUS","lot":null,"start_dtc":"2024-03-08","end_dtc":"2024-03-08","start_dy":"29","end_dy":"29","epoch":"TREATMENT","visit":null},{"seq":"3","trt":"RISANKIZUMAB","dose":"150.0","doseu":null,"dosef":"Q12W","route":"SUBCUTANEOUS","lot":null,"start_dtc":"2024-05-31","end_dtc":"2024-05-31","start_dy":"113","end_dy":"113","epoch":"TREATMENT","visit":null},{"seq":"4","trt":"RISANKIZUMAB","dose":"150.0","doseu":null,"dosef":"Q12W","route":"SUBCUTANEOUS","lot":null,"start_dtc":"2024-08-23","end_dtc":"2024-08-23","start_dy":"197","end_dy":"197","epoch":"TREATMENT","visit":null}],"exposure_as_collected":[{"seq":"1","trt":"RISANKIZUMAB","dose":"150.0","doseu":null,"dosef":"ONCE","route":"SUBCUTANEOUS","start_dtc":"2024-02-09","end_dtc":"2024-02-09","visit":"WEEK 0 BASELINE"},{"seq":"2","trt":"RISANKIZUMAB","dose":"150.0","doseu":null,"dosef":"ONCE","route":"SUBCUTANEOUS","start_dtc":"2024-03-08","end_dtc":"2024-03-08","visit":"WEEK 4"},{"seq":"3","trt":"RISANKIZUMAB","dose":"150.0","doseu":null,"dosef":"Q12W","route":"SUBCUTANEOUS","start_dtc":"2024-05-31","end_dtc":"2024-05-31","visit":"WEEK 16"},{"seq":"4","trt":"RISANKIZUMAB","dose":"150.0","doseu":null,"dosef":"Q12W","route":"SUBCUTANEOUS","start_dtc":"2024-08-23","end_dtc":"2024-08-23","visit":null}]},"section_7_adverse_events":{"summary":{"total_aes":17,"serious_aes":3,"fatal_aes":0,"by_severity":{"MILD":6,"SEVERE":3,"MODERATE":8},"by_soc":{"Infections and infestations":9,"Gastrointestinal disorders":2,"Skin and subcutaneous tissue disorders":3,"General disorders and administration site conditions":2,"Nervous system disorders":1}},"events":[{"seq":"1","term":"TINEA INFECTIONS","decod":"Tinea infections","llt":"Tinea infections","hlt":"Dermal fungal infections","hlgt":"Infections NEC","soc":"Infections and infestations","bodsys":"Infections and infestations","severity":"MILD","serious":"N","causality":"NOT RELATED","action_taken":"DOSE NOT CHANGED","outcome":"RECOVERED/RESOLVED","fatal":"N","hospitalization":"N","life_threatening":"N","onset_dtc":"2024-02-27","end_dtc":"2024-03-09","onset_dy":"19","end_dy":"30","duration":null,"epoch":"TREATMENT","visit":null,"supplemental":{"AETRTEM":"Y"}},{"seq":"2","term":"NASOPHARYNGITIS","decod":"Nasopharyngitis","llt":"Nasopharyngitis","hlt":"Upper respiratory tract infections","hlgt":"Upper respiratory tract infections","soc":"Infections and infestations","bodsys":"Infections and infestations","severity":"SEVERE","serious":"Y","causality":"NOT RELATED","action_taken":"DOSE NOT CHANGED","outcome":"RECOVERED/RESOLVED","fatal":"N","hospitalization":"Y","life_threatening":"N","onset_dtc":"2024-03-18","end_dtc":"2024-05-14","onset_dy":"39","end_dy":"96","duration":null,"epoch":"TREATMENT","visit":null,"supplemental":{"AETRTEM":"Y"}},{"seq":"3","term":"NAUSEA","decod":"Nausea","llt":"Nausea","hlt":"Nausea and vomiting symptoms","hlgt":"Gastrointestinal signs and symptoms","soc":"Gastrointestinal disorders","bodsys":"Gastrointestinal disorders","severity":"MODERATE","serious":"N","causality":"UNLIKELY RELATED","action_taken":"DOSE NOT CHANGED","outcome":"RECOVERED/RESOLVED","fatal":"N","hospitalization":"N","life_threatening":"N","onset_dtc":"2024-03-21","end_dtc":"2024-03-26","onset_dy":"42","end_dy":"47","duration":null,"epoch":"TREATMENT","visit":null,"supplemental":{"AETRTEM":"Y"}},{"seq":"4","term":"PNEUMONIA","decod":"Pneumonia","llt":"Pneumonia","hlt":"Lower respiratory and lung infections","hlgt":"Infections NEC","soc":"Infections and infestations","bodsys":"Infections and infestations","severity":"MODERATE","serious":"N","causality":"NOT RELATED","action_taken":"DOSE NOT CHANGED","outcome":"RECOVERED/RESOLVED","fatal":"N","hospitalization":"N","life_threatening":"N","onset_dtc":"2024-03-21","end_dtc":"2024-04-10","onset_dy":"42","end_dy":"62","duration":null,"epoch":"TREATMENT","visit":null,"supplemental":{"AETRTEM":"Y"}},{"seq":"5","term":"UPPER RESPIRATORY TRACT INFECTION","decod":"Upper respiratory tract infection","llt":"Upper respiratory tract infection","hlt":"Upper respiratory tract infections","hlgt":"Upper respiratory tract infections","soc":"Infections and infestations","bodsys":"Infections and infestations","severity":"MODERATE","serious":"N","causality":"NOT RELATED","action_taken":"DOSE NOT CHANGED","outcome":"NOT RECOVERED/NOT RESOLVED","fatal":"N","hospitalization":"N","life_threatening":"N","onset_dtc":"2024-03-24","end_dtc":null,"onset_dy":"45","end_dy":null,"duration":null,"epoch":"TREATMENT","visit":null,"supplemental":{"AETRTEM":"Y"}},{"seq":"6","term":"DIARRHOEA","decod":"Diarrhoea","llt":"Diarrhoea","hlt":"Diarrhoea (excl infective)","hlgt":"Gastrointestinal motility and defaecation conditions","soc":"Gastrointestinal disorders","bodsys":"Gastrointestinal disorders","severity":"MODERATE","serious":"N","causality":"UNLIKELY RELATED","action_taken":"DOSE NOT CHANGED","outcome":"RECOVERED/RESOLVED","fatal":"N","hospitalization":"N","life_threatening":"N","onset_dtc":"2024-03-25","end_dtc":"2024-03-27","onset_dy":"46","end_dy":"48","duration":null,"epoch":"TREATMENT","visit":null,"supplemental":{"AETRTEM":"Y"}},{"seq":"7","term":"PRURITUS","decod":"Pruritus","llt":"Pruritus","hlt":"Pruritus NEC","hlgt":"Epidermal and dermal conditions","soc":"Skin and subcutaneous tissue disorders","bodsys":"Skin and subcutaneous tissue disorders","severity":"MILD","serious":"N","causality":"NOT RELATED","action_taken":"DOSE NOT CHANGED","outcome":"RECOVERED/RESOLVED","fatal":"N","hospitalization":"N","life_threatening":"N","onset_dtc":"2024-04-01","end_dtc":"2024-04-07","onset_dy":"53","end_dy":"59","duration":null,"epoch":"TREATMENT","visit":null,"supplemental":{"AETRTEM":"Y"}},{"seq":"8","term":"INJECTION SITE REACTION","decod":"Injection site reaction","llt":"Injection site reaction","hlt":"Injection site reactions","hlgt":"Administration site reactions","soc":"General disorders and administration site conditions","bodsys":"General disorders and administration site conditions","severity":"SEVERE","serious":"Y","causality":"UNLIKELY RELATED","action_taken":"DOSE NOT CHANGED","outcome":"RECOVERING/RESOLVING","fatal":"N","hospitalization":"Y","life_threatening":"N","onset_dtc":"2024-04-06","end_dtc":"2024-05-09","onset_dy":"58","end_dy":"91","duration":null,"epoch":"TREATMENT","visit":null,"supplemental":{"AETRTEM":"Y"}},{"seq":"9","term":"PRURITUS","decod":"Pruritus","llt":"Pruritus","hlt":"Pruritus NEC","hlgt":"Epidermal and dermal conditions","soc":"Skin and subcutaneous tissue disorders","bodsys":"Skin and subcutaneous tissue disorders","severity":"MILD","serious":"N","causality":"NOT RELATED","action_taken":"DOSE NOT CHANGED","outcome":"RECOVERED/RESOLVED","fatal":"N","hospitalization":"N","life_threatening":"N","onset_dtc":"2024-04-19","end_dtc":"2024-05-02","onset_dy":"71","end_dy":"84","duration":null,"epoch":"TREATMENT","visit":null,"supplemental":{"AETRTEM":"Y"}},{"seq":"10","term":"UPPER RESPIRATORY TRACT INFECTION","decod":"Upper respiratory tract infection","llt":"Upper respiratory tract infection","hlt":"Upper respiratory tract infections","hlgt":"Upper respiratory tract infections","soc":"Infections and infestations","bodsys":"Infections and infestations","severity":"MODERATE","serious":"N","causality":"UNLIKELY RELATED","action_taken":"DOSE NOT CHANGED","outcome":"NOT RECOVERED/NOT RESOLVED","fatal":"N","hospitalization":"N","life_threatening":"N","onset_dtc":"2024-05-24","end_dtc":null,"onset_dy":"106","end_dy":null,"duration":null,"epoch":"TREATMENT","visit":null,"supplemental":{"AETRTEM":"Y"}},{"seq":"11","term":"HEADACHE","decod":"Headache","llt":"Headache","hlt":"Headaches NEC","hlgt":"Headaches","soc":"Nervous system disorders","bodsys":"Nervous system disorders","severity":"MILD","serious":"N","causality":"NOT RELATED","action_taken":"DOSE NOT CHANGED","outcome":"RECOVERED/RESOLVED","fatal":"N","hospitalization":"N","life_threatening":"N","onset_dtc":"2024-07-14","end_dtc":"2024-07-17","onset_dy":"157","end_dy":"160","duration":null,"epoch":"TREATMENT","visit":null,"supplemental":{"AETRTEM":"Y"}},{"seq":"12","term":"INJECTION SITE REACTION","decod":"Injection site reaction","llt":"Injection site reaction","hlt":"Injection site reactions","hlgt":"Administration site reactions","soc":"General disorders and administration site conditions","bodsys":"General disorders and administration site conditions","severity":"MODERATE","serious":"N","causality":"UNLIKELY RELATED","action_taken":"DOSE NOT CHANGED","outcome":"RECOVERED/RESOLVED","fatal":"N","hospitalization":"N","life_threatening":"N","onset_dtc":"2024-08-02","end_dtc":"2024-08-04","onset_dy":"176","end_dy":"178","duration":null,"epoch":"TREATMENT","visit":null,"supplemental":{"AETRTEM":"Y"}},{"seq":"13","term":"PNEUMONIA","decod":"Pneumonia","llt":"Pneumonia","hlt":"Lower respiratory and lung infections","hlgt":"Infections NEC","soc":"Infections and infestations","bodsys":"Infections and infestations","severity":"MILD","serious":"N","causality":"NOT RELATED","action_taken":"DOSE NOT CHANGED","outcome":"RECOVERED/RESOLVED","fatal":"N","hospitalization":"N","life_threatening":"N","onset_dtc":"2024-08-03","end_dtc":"2024-08-08","onset_dy":"177","end_dy":"182","duration":null,"epoch":"TREATMENT","visit":null,"supplemental":{"AETRTEM":"Y"}},{"seq":"14","term":"HERPES SIMPLEX","decod":"Herpes simplex","llt":"Herpes simplex","hlt":"Herpes viral infections","hlgt":"Viral infections NEC","soc":"Infections and infestations","bodsys":"Infections and infestations","severity":"MODERATE","serious":"N","causality":"NOT RELATED","action_taken":"DOSE NOT CHANGED","outcome":"RECOVERED/RESOLVED","fatal":"N","hospitalization":"N","life_threatening":"N","onset_dtc":"2024-08-05","end_dtc":"2024-08-26","onset_dy":"179","end_dy":"200","duration":null,"epoch":"TREATMENT","visit":null,"supplemental":{"AETRTEM":"Y"}},{"seq":"15","term":"PRURITUS","decod":"Pruritus","llt":"Pruritus","hlt":"Pruritus NEC","hlgt":"Epidermal and dermal conditions","soc":"Skin and subcutaneous tissue disorders","bodsys":"Skin and subcutaneous tissue disorders","severity":"MILD","serious":"N","causality":"NOT RELATED","action_taken":"DOSE NOT CHANGED","outcome":"NOT RECOVERED/NOT RESOLVED","fatal":"N","hospitalization":"N","life_threatening":"N","onset_dtc":"2024-08-07","end_dtc":null,"onset_dy":"181","end_dy":null,"duration":null,"epoch":"TREATMENT","visit":null,"supplemental":{"AETRTEM":"Y"}},{"seq":"16","term":"UPPER RESPIRATORY TRACT INFECTION","decod":"Upper respiratory tract infection","llt":"Upper respiratory tract infection","hlt":"Upper respiratory tract infections","hlgt":"Upper respiratory tract infections","soc":"Infections and infestations","bodsys":"Infections and infestations","severity":"MODERATE","serious":"N","causality":"NOT RELATED","action_taken":"DOSE NOT CHANGED","outcome":"RECOVERED/RESOLVED","fatal":"N","hospitalization":"N","life_threatening":"N","onset_dtc":"2024-10-04","end_dtc":"2024-10-19","onset_dy":"239","end_dy":"254","duration":null,"epoch":"TREATMENT","visit":null,"supplemental":{"AETRTEM":"Y"}},{"seq":"17","term":"UPPER RESPIRATORY TRACT INFECTION","decod":"Upper respiratory tract infection","llt":"Upper respiratory tract infection","hlt":"Upper respiratory tract infections","hlgt":"Upper respiratory tract infections","soc":"Infections and infestations","bodsys":"Infections and infestations","severity":"SEVERE","serious":"Y","causality":"NOT RELATED","action_taken":"DOSE NOT CHANGED","outcome":"RECOVERED/RESOLVED","fatal":"N","hospitalization":"Y","life_threatening":"N","onset_dtc":"2024-10-19","end_dtc":"2024-10-19","onset_dy":"254","end_dy":"254","duration":null,"epoch":"TREATMENT","visit":null,"supplemental":{"AETRTEM":"Y"}}]},"section_8_laboratory_results":{"summary":{"total_records":49,"abnormal_count":21,"abnormal_pct":42.9},"shift_summary":[{"testcd":"ALT","baseline_value":26.45,"baseline_nrind":"NORMAL","worst_post_baseline_value":27.97,"worst_post_baseline_nrind":"NORMAL","worst_visit":"WEEK 16"},{"testcd":"AST","baseline_value":20.81,"baseline_nrind":"NORMAL","worst_post_baseline_value":19.69,"worst_post_baseline_nrind":"NORMAL","worst_visit":"WEEK 36"},{"testcd":"CREAT","baseline_value":40.33,"baseline_nrind":"LOW","worst_post_baseline_value":45.69,"worst_post_baseline_nrind":"LOW","worst_visit":"WEEK 16"},{"testcd":"GLUC","baseline_value":7.02,"baseline_nrind":"HIGH","worst_post_baseline_value":7.1,"worst_post_baseline_nrind":"HIGH","worst_visit":"WEEK 12"},{"testcd":"HGB","baseline_value":135.76,"baseline_nrind":"NORMAL","worst_post_baseline_value":136.53,"worst_post_baseline_nrind":"NORMAL","worst_visit":"WEEK 0 BASELINE"},{"testcd":"PLAT","baseline_value":203.0,"baseline_nrind":"NORMAL","worst_post_baseline_value":194.36,"worst_post_baseline_nrind":"NORMAL","worst_visit":"WEEK 0 BASELINE"},{"testcd":"WBC","baseline_value":3.82,"baseline_nrind":"LOW","worst_post_baseline_value":3.83,"worst_post_baseline_nrind":"LOW","worst_visit":"WEEK 8"}],"results":[{"seq":"1","testcd":"ALT","test":"Alanine Aminotransferase","cat":"CHEMISTRY","orres":"26.45","orresu":"U/L","stresc":"26.45","stresn":"26.45","stresu":"U/L","stnrlo":"7","stnrhi":"56","nrind":"NORMAL","fast":null,"dtc":"2023-12-24","dy":"-47","visit":"SCREENING","visitnum":"1.0","epoch":"SCREENING","spec":null,"method":null},{"seq":"2","testcd":"AST","test":"Aspartate Aminotransferase","cat":"CHEMISTRY","orres":"20.81","orresu":"U/L","stresc":"20.81","stresn":"20.81","stresu":"U/L","stnrlo":"10","stnrhi":"40","nrind":"NORMAL","fast":null,"dtc":"2023-12-24","dy":"-47","visit":"SCREENING","visitnum":"1.0","epoch":"SCREENING","spec":null,"method":null},{"seq":"3","testcd":"CREAT","test":"Creatinine","cat":"CHEMISTRY","orres":"40.33","orresu":"umol/L","stresc":"40.33","stresn":"40.33","stresu":"umol/L","stnrlo":"62","stnrhi":"106","nrind":"LOW","fast":null,"dtc":"2023-12-24","dy":"-47","visit":"SCREENING","visitnum":"1.0","epoch":"SCREENING","spec":null,"method":null},{"seq":"4","testcd":"GLUC","test":"Glucose","cat":"CHEMISTRY","orres":"7.02","orresu":"mmol/L","stresc":"7.02","stresn":"7.02","stresu":"mmol/L","stnrlo":"3.9","stnrhi":"5.6","nrind":"HIGH","fast":null,"dtc":"2023-12-24","dy":"-47","visit":"SCREENING","visitnum":"1.0","epoch":"SCREENING","spec":null,"method":null},{"seq":"5","testcd":"HGB","test":"Hemoglobin","cat":"HEMATOLOGY","orres":"135.76","orresu":"g/L","stresc":"135.76","stresn":"135.76","stresu":"g/L","stnrlo":"130","stnrhi":"175","nrind":"NORMAL","fast":null,"dtc":"2023-12-24","dy":"-47","visit":"SCREENING","visitnum":"1.0","epoch":"SCREENING","spec":null,"method":null},{"seq":"6","testcd":"PLAT","test":"Platelets","cat":"HEMATOLOGY","orres":"203.0","orresu":"10^9/L","stresc":"203.0","stresn":"203.0","stresu":"10^9/L","stnrlo":"150","stnrhi":"400","nrind":"NORMAL","fast":null,"dtc":"2023-12-24","dy":"-47","visit":"SCREENING","visitnum":"1.0","epoch":"SCREENING","spec":null,"method":null},{"seq":"7","testcd":"WBC","test":"Leukocytes","cat":"HEMATOLOGY","orres":"3.82","orresu":"10^9/L","stresc":"3.82","stresn":"3.82","stresu":"10^9/L","stnrlo":"4.0","stnrhi":"11.0","nrind":"LOW","fast":null,"dtc":"2023-12-24","dy":"-47","visit":"SCREENING","visitnum":"1.0","epoch":"SCREENING","spec":null,"method":null},{"seq":"8","testcd":"ALT","test":"Alanine Aminotransferase","cat":"CHEMISTRY","orres":"27.52","orresu":"U/L","stresc":"27.52","stresn":"27.52","stresu":"U/L","stnrlo":"7","stnrhi":"56","nrind":"NORMAL","fast":null,"dtc":"2024-02-09","dy":"1","visit":"WEEK 0 BASELINE","visitnum":"2.0","epoch":"TREATMENT","spec":null,"method":null},{"seq":"9","testcd":"AST","test":"Aspartate Aminotransferase","cat":"CHEMISTRY","orres":null,"orresu":null,"stresc":null,"stresn":null,"stresu":null,"stnrlo":null,"stnrhi":null,"nrind":null,"fast":null,"dtc":"2024-02-09","dy":"1","visit":"WEEK 0 BASELINE","visitnum":"2.0","epoch":"TREATMENT","spec":null,"method":null},{"seq":"10","testcd":"CREAT","test":"Creatinine","cat":"CHEMISTRY","orres":"41.56","orresu":"umol/L","stresc":"41.56","stresn":"41.56","stresu":"umol/L","stnrlo":"62","stnrhi":"106","nrind":"LOW","fast":null,"dtc":"2024-02-09","dy":"1","visit":"WEEK 0 BASELINE","visitnum":"2.0","epoch":"TREATMENT","spec":null,"method":null},{"seq":"11","testcd":"GLUC","test":"Glucose","cat":"CHEMISTRY","orres":"7.07","orresu":"mmol/L","stresc":"7.07","stresn":"7.07","stresu":"mmol/L","stnrlo":"3.9","stnrhi":"5.6","nrind":"HIGH","fast":null,"dtc":"2024-02-09","dy":"1","visit":"WEEK 0 BASELINE","visitnum":"2.0","epoch":"TREATMENT","spec":null,"method":null},{"seq":"12","testcd":"HGB","test":"Hemoglobin","cat":"HEMATOLOGY","orres":"136.53","orresu":"g/L","stresc":"136.53","stresn":"136.53","stresu":"g/L","stnrlo":"130","stnrhi":"175","nrind":"NORMAL","fast":null,"dtc":"2024-02-09","dy":"1","visit":"WEEK 0 BASELINE","visitnum":"2.0","epoch":"TREATMENT","spec":null,"method":null},{"seq":"13","testcd":"PLAT","test":"Platelets","cat":"HEMATOLOGY","orres":"194.36","orresu":"10^9/L","stresc":"194.36","stresn":"194.36","stresu":"10^9/L","stnrlo":"150","stnrhi":"400","nrind":"NORMAL","fast":null,"dtc":"2024-02-09","dy":"1","visit":"WEEK 0 BASELINE","visitnum":"2.0","epoch":"TREATMENT","spec":null,"method":null},{"seq":"14","testcd":"WBC","test":"Leukocytes","cat":"HEMATOLOGY","orres":"3.14","orresu":"10^9/L","stresc":"3.14","stresn":"3.14","stresu":"10^9/L","stnrlo":"4.0","stnrhi":"11.0","nrind":"LOW","fast":null,"dtc":"2024-02-09","dy":"1","visit":"WEEK 0 BASELINE","visitnum":"2.0","epoch":"TREATMENT","spec":null,"method":null},{"seq":"15","testcd":"ALT","test":"Alanine Aminotransferase","cat":"CHEMISTRY","orres":"27.0","orresu":"U/L","stresc":"27.0","stresn":"27.0","stresu":"U/L","stnrlo":"7","stnrhi":"56","nrind":"NORMAL","fast":null,"dtc":"2024-03-05","dy":"26","visit":"WEEK 4","visitnum":"3.0","epoch":"TREATMENT","spec":null,"method":null},{"seq":"16","testcd":"AST","test":"Aspartate Aminotransferase","cat":"CHEMISTRY","orres":"19.19","orresu":"U/L","stresc":"19.19","stresn":"19.19","stresu":"U/L","stnrlo":"10","stnrhi":"40","nrind":"NORMAL","fast":null,"dtc":"2024-03-05","dy":"26","visit":"WEEK 4","visitnum":"3.0","epoch":"TREATMENT","spec":null,"method":null},{"seq":"17","testcd":"CREAT","test":"Creatinine","cat":"CHEMISTRY","orres":"41.12","orresu":"umol/L","stresc":"41.12","stresn":"41.12","stresu":"umol/L","stnrlo":"62","stnrhi":"106","nrind":"LOW","fast":null,"dtc":"2024-03-05","dy":"26","visit":"WEEK 4","visitnum":"3.0","epoch":"TREATMENT","spec":null,"method":null},{"seq":"18","testcd":"GLUC","test":"Glucose","cat":"CHEMISTRY","orres":"6.96","orresu":"mmol/L","stresc":"6.96","stresn":"6.96","stresu":"mmol/L","stnrlo":"3.9","stnrhi":"5.6","nrind":"HIGH","fast":null,"dtc":"2024-03-05","dy":"26","visit":"WEEK 4","visitnum":"3.0","epoch":"TREATMENT","spec":null,"method":null},{"seq":"19","testcd":"HGB","test":"Hemoglobin","cat":"HEMATOLOGY","orres":"137.26","orresu":"g/L","stresc":"137.26","stresn":"137.26","stresu":"g/L","stnrlo":"130","stnrhi":"175","nrind":"NORMAL","fast":null,"dtc":"2024-03-05","dy":"26","visit":"WEEK 4","visitnum":"3.0","epoch":"TREATMENT","spec":null,"method":null},{"seq":"20","testcd":"PLAT","test":"Platelets","cat":"HEMATOLOGY","orres":"176.67","orresu":"10^9/L","stresc":"176.67","stresn":"176.67","stresu":"10^9/L","stnrlo":"150","stnrhi":"400","nrind":"NORMAL","fast":null,"dtc":"2024-03-05","dy":"26","visit":"WEEK 4","visitnum":"3.0","epoch":"TREATMENT","spec":null,"method":null},{"seq":"21","testcd":"WBC","test":"Leukocytes","cat":"HEMATOLOGY","orres":"3.28","orresu":"10^9/L","stresc":"3.28","stresn":"3.28","stresu":"10^9/L","stnrlo":"4.0","stnrhi":"11.0","nrind":"LOW","fast":null,"dtc":"2024-03-05","dy":"26","visit":"WEEK 4","visitnum":"3.0","epoch":"TREATMENT","spec":null,"method":null},{"seq":"22","testcd":"ALT","test":"Alanine Aminotransferase","cat":"CHEMISTRY","orres":"27.48","orresu":"U/L","stresc":"27.48","stresn":"27.48","stresu":"U/L","stnrlo":"7","stnrhi":"56","nrind":"NORMAL","fast":null,"dtc":"2024-04-02","dy":"54","visit":"WEEK 8","visitnum":"4.0","epoch":"TREATMENT","spec":null,"method":null},{"seq":"23","testcd":"AST","test":"Aspartate Aminotransferase","cat":"CHEMISTRY","orres":"17.87","orresu":"U/L","stresc":"17.87","stresn":"17.87","stresu":"U/L","stnrlo":"10","stnrhi":"40","nrind":"NORMAL","fast":null,"dtc":"2024-04-02","dy":"54","visit":"WEEK 8","visitnum":"4.0","epoch":"TREATMENT","spec":null,"method":null},{"seq":"24","testcd":"CREAT","test":"Creatinine","cat":"CHEMISTRY","orres":"41.9","orresu":"umol/L","stresc":"41.9","stresn":"41.9","stresu":"umol/L","stnrlo":"62","stnrhi":"106","nrind":"LOW","fast":null,"dtc":"2024-04-02","dy":"54","visit":"WEEK 8","visitnum":"4.0","epoch":"TREATMENT","spec":null,"method":null},{"seq":"25","testcd":"GLUC","test":"Glucose","cat":"CHEMISTRY","orres":"7.08","orresu":"mmol/L","stresc":"7.08","stresn":"7.08","stresu":"mmol/L","stnrlo":"3.9","stnrhi":"5.6","nrind":"HIGH","fast":null,"dtc":"2024-04-02","dy":"54","visit":"WEEK 8","visitnum":"4.0","epoch":"TREATMENT","spec":null,"method":null},{"seq":"26","testcd":"HGB","test":"Hemoglobin","cat":"HEMATOLOGY","orres":"138.03","orresu":"g/L","stresc":"138.03","stresn":"138.03","stresu":"g/L","stnrlo":"130","stnrhi":"175","nrind":"NORMAL","fast":null,"dtc":"2024-04-02","dy":"54","visit":"WEEK 8","visitnum":"4.0","epoch":"TREATMENT","spec":null,"method":null},{"seq":"27","testcd":"PLAT","test":"Platelets","cat":"HEMATOLOGY","orres":"186.35","orresu":"10^9/L","stresc":"186.35","stresn":"186.35","stresu":"10^9/L","stnrlo":"150","stnrhi":"400","nrind":"NORMAL","fast":null,"dtc":"2024-04-02","dy":"54","visit":"WEEK 8","visitnum":"4.0","epoch":"TREATMENT","spec":null,"method":null},{"seq":"28","testcd":"WBC","test":"Leukocytes","cat":"HEMATOLOGY","orres":"3.83","orresu":"10^9/L","stresc":"3.83","stresn":"3.83","stresu":"10^9/L","stnrlo":"4.0","stnrhi":"11.0","nrind":"LOW","fast":null,"dtc":"2024-04-02","dy":"54","visit":"WEEK 8","visitnum":"4.0","epoch":"TREATMENT","spec":null,"method":null},{"seq":"29","testcd":"ALT","test":"Alanine Aminotransferase","cat":"CHEMISTRY","orres":"27.41","orresu":"U/L","stresc":"27.41","stresn":"27.41","stresu":"U/L","stnrlo":"7","stnrhi":"56","nrind":"NORMAL","fast":null,"dtc":"2024-05-04","dy":"86","visit":"WEEK 12","visitnum":"5.0","epoch":"TREATMENT","spec":null,"method":null},{"seq":"30","testcd":"AST","test":"Aspartate Aminotransferase","cat":"CHEMISTRY","orres":"17.73","orresu":"U/L","stresc":"17.73","stresn":"17.73","stresu":"U/L","stnrlo":"10","stnrhi":"40","nrind":"NORMAL","fast":null,"dtc":"2024-05-04","dy":"86","visit":"WEEK 12","visitnum":"5.0","epoch":"TREATMENT","spec":null,"method":null},{"seq":"31","testcd":"CREAT","test":"Creatinine","cat":"CHEMISTRY","orres":"42.27","orresu":"umol/L","stresc":"42.27","stresn":"42.27","stresu":"umol/L","stnrlo":"62","stnrhi":"106","nrind":"LOW","fast":null,"dtc":"2024-05-04","dy":"86","visit":"WEEK 12","visitnum":"5.0","epoch":"TREATMENT","spec":null,"method":null},{"seq":"32","testcd":"GLUC","test":"Glucose","cat":"CHEMISTRY","orres":"7.1","orresu":"mmol/L","stresc":"7.1","stresn":"7.1","stresu":"mmol/L","stnrlo":"3.9","stnrhi":"5.6","nrind":"HIGH","fast":null,"dtc":"2024-05-04","dy":"86","visit":"WEEK 12","visitnum":"5.0","epoch":"TREATMENT","spec":null,"method":null},{"seq":"33","testcd":"HGB","test":"Hemoglobin","cat":"HEMATOLOGY","orres":"136.78","orresu":"g/L","stresc":"136.78","stresn":"136.78","stresu":"g/L","stnrlo":"130","stnrhi":"175","nrind":"NORMAL","fast":null,"dtc":"2024-05-04","dy":"86","visit":"WEEK 12","visitnum":"5.0","epoch":"TREATMENT","spec":null,"method":null},{"seq":"34","testcd":"PLAT","test":"Platelets","cat":"HEMATOLOGY","orres":"184.88","orresu":"10^9/L","stresc":"184.88","stresn":"184.88","stresu":"10^9/L","stnrlo":"150","stnrhi":"400","nrind":"NORMAL","fast":null,"dtc":"2024-05-04","dy":"86","visit":"WEEK 12","visitnum":"5.0","epoch":"TREATMENT","spec":null,"method":null},{"seq":"35","testcd":"WBC","test":"Leukocytes","cat":"HEMATOLOGY","orres":"3.32","orresu":"10^9/L","stresc":"3.32","stresn":"3.32","stresu":"10^9/L","stnrlo":"4.0","stnrhi":"11.0","nrind":"LOW","fast":null,"dtc":"2024-05-04","dy":"86","visit":"WEEK 12","visitnum":"5.0","epoch":"TREATMENT","spec":null,"method":null},{"seq":"36","testcd":"ALT","test":"Alanine Aminotransferase","cat":"CHEMISTRY","orres":"27.97","orresu":"U/L","stresc":"27.97","stresn":"27.97","stresu":"U/L","stnrlo":"7","stnrhi":"56","nrind":"NORMAL","fast":null,"dtc":"2024-05-30","dy":"112","visit":"WEEK 16","visitnum":"6.0","epoch":"TREATMENT","spec":null,"method":null},{"seq":"37","testcd":"AST","test":"Aspartate Aminotransferase","cat":"CHEMISTRY","orres":"18.49","orresu":"U/L","stresc":"18.49","stresn":"18.49","stresu":"U/L","stnrlo":"10","stnrhi":"40","nrind":"NORMAL","fast":null,"dtc":"2024-05-30","dy":"112","visit":"WEEK 16","visitnum":"6.0","epoch":"TREATMENT","spec":null,"method":null},{"seq":"38","testcd":"CREAT","test":"Creatinine","cat":"CHEMISTRY","orres":"45.69","orresu":"umol/L","stresc":"45.69","stresn":"45.69","stresu":"umol/L","stnrlo":"62","stnrhi":"106","nrind":"LOW","fast":null,"dtc":"2024-05-30","dy":"112","visit":"WEEK 16","visitnum":"6.0","epoch":"TREATMENT","spec":null,"method":null},{"seq":"39","testcd":"GLUC","test":"Glucose","cat":"CHEMISTRY","orres":"7.02","orresu":"mmol/L","stresc":"7.02","stresn":"7.02","stresu":"mmol/L","stnrlo":"3.9","stnrhi":"5.6","nrind":"HIGH","fast":null,"dtc":"2024-05-30","dy":"112","visit":"WEEK 16","visitnum":"6.0","epoch":"TREATMENT","spec":null,"method":null},{"seq":"40","testcd":"HGB","test":"Hemoglobin","cat":"HEMATOLOGY","orres":"136.59","orresu":"g/L","stresc":"136.59","stresn":"136.59","stresu":"g/L","stnrlo":"130","stnrhi":"175","nrind":"NORMAL","fast":null,"dtc":"2024-05-30","dy":"112","visit":"WEEK 16","visitnum":"6.0","epoch":"TREATMENT","spec":null,"method":null},{"seq":"41","testcd":"PLAT","test":"Platelets","cat":"HEMATOLOGY","orres":"182.9","orresu":"10^9/L","stresc":"182.9","stresn":"182.9","stresu":"10^9/L","stnrlo":"150","stnrhi":"400","nrind":"NORMAL","fast":null,"dtc":"2024-05-30","dy":"112","visit":"WEEK 16","visitnum":"6.0","epoch":"TREATMENT","spec":null,"method":null},{"seq":"42","testcd":"WBC","test":"Leukocytes","cat":"HEMATOLOGY","orres":"3.56","orresu":"10^9/L","stresc":"3.56","stresn":"3.56","stresu":"10^9/L","stnrlo":"4.0","stnrhi":"11.0","nrind":"LOW","fast":null,"dtc":"2024-05-30","dy":"112","visit":"WEEK 16","visitnum":"6.0","epoch":"TREATMENT","spec":null,"method":null},{"seq":"43","testcd":"ALT","test":"Alanine Aminotransferase","cat":"CHEMISTRY","orres":"26.65","orresu":"U/L","stresc":"26.65","stresn":"26.65","stresu":"U/L","stnrlo":"7","stnrhi":"56","nrind":"NORMAL","fast":null,"dtc":"2024-10-13","dy":"248","visit":"WEEK 36","visitnum":"8.0","epoch":"TREATMENT","spec":null,"method":null},{"seq":"44","testcd":"AST","test":"Aspartate Aminotransferase","cat":"CHEMISTRY","orres":"19.69","orresu":"U/L","stresc":"19.69","stresn":"19.69","stresu":"U/L","stnrlo":"10","stnrhi":"40","nrind":"NORMAL","fast":null,"dtc":"2024-10-13","dy":"248","visit":"WEEK 36","visitnum":"8.0","epoch":"TREATMENT","spec":null,"method":null},{"seq":"45","testcd":"CREAT","test":"Creatinine","cat":"CHEMISTRY","orres":"44.12","orresu":"umol/L","stresc":"44.12","stresn":"44.12","stresu":"umol/L","stnrlo":"62","stnrhi":"106","nrind":"LOW","fast":null,"dtc":"2024-10-13","dy":"248","visit":"WEEK 36","visitnum":"8.0","epoch":"TREATMENT","spec":null,"method":null},{"seq":"46","testcd":"GLUC","test":"Glucose","cat":"CHEMISTRY","orres":"7.07","orresu":"mmol/L","stresc":"7.07","stresn":"7.07","stresu":"mmol/L","stnrlo":"3.9","stnrhi":"5.6","nrind":"HIGH","fast":null,"dtc":"2024-10-13","dy":"248","visit":"WEEK 36","visitnum":"8.0","epoch":"TREATMENT","spec":null,"method":null},{"seq":"47","testcd":"HGB","test":"Hemoglobin","cat":"HEMATOLOGY","orres":"137.07","orresu":"g/L","stresc":"137.07","stresn":"137.07","stresu":"g/L","stnrlo":"130","stnrhi":"175","nrind":"NORMAL","fast":null,"dtc":"2024-10-13","dy":"248","visit":"WEEK 36","visitnum":"8.0","epoch":"TREATMENT","spec":null,"method":null},{"seq":"48","testcd":"PLAT","test":"Platelets","cat":"HEMATOLOGY","orres":"180.71","orresu":"10^9/L","stresc":"180.71","stresn":"180.71","stresu":"10^9/L","stnrlo":"150","stnrhi":"400","nrind":"NORMAL","fast":null,"dtc":"2024-10-13","dy":"248","visit":"WEEK 36","visitnum":"8.0","epoch":"TREATMENT","spec":null,"method":null},{"seq":"49","testcd":"WBC","test":"Leukocytes","cat":"HEMATOLOGY","orres":"3.52","orresu":"10^9/L","stresc":"3.52","stresn":"3.52","stresu":"10^9/L","stnrlo":"4.0","stnrhi":"11.0","nrind":"LOW","fast":null,"dtc":"2024-10-13","dy":"248","visit":"WEEK 36","visitnum":"8.0","epoch":"TREATMENT","spec":null,"method":null}]},"section_9_vital_signs":{"summary":{"total_records":63},"trends":{"BMI":[{"visit":"SCREENING","visitnum":"1.0","dtc":"2023-12-24","value":"22.1","unit":"kg/m2"},{"visit":"WEEK 4","visitnum":"3.0","dtc":"2024-03-05","value":"21.8","unit":"kg/m2"},{"visit":"WEEK 8","visitnum":"4.0","dtc":"2024-04-02","value":"22.1","unit":"kg/m2"},{"visit":"WEEK 12","visitnum":"5.0","dtc":"2024-05-04","value":"21.6","unit":"kg/m2"},{"visit":"WEEK 16","visitnum":"6.0","dtc":"2024-05-30","value":"21.1","unit":"kg/m2"},{"visit":"WEEK 24","visitnum":"7.0","dtc":"2024-08-01","value":"19.9","unit":"kg/m2"},{"visit":"WEEK 36","visitnum":"8.0","dtc":"2024-10-13","value":"19.6","unit":"kg/m2"}],"DIABP":[{"visit":"SCREENING","visitnum":"1.0","dtc":"2023-12-24","value":"91.8","unit":"mmHg"},{"visit":"WEEK 0 BASELINE","visitnum":"2.0","dtc":"2024-02-09","value":"93.0","unit":"mmHg"},{"visit":"WEEK 4","visitnum":"3.0","dtc":"2024-03-05","value":"93.0","unit":"mmHg"},{"visit":"WEEK 8","visitnum":"4.0","dtc":"2024-04-02","value":"92.4","unit":"mmHg"},{"visit":"WEEK 12","visitnum":"5.0","dtc":"2024-05-04","value":"92.0","unit":"mmHg"},{"visit":"WEEK 16","visitnum":"6.0","dtc":"2024-05-30","value":"91.0","unit":"mmHg"},{"visit":"WEEK 24","visitnum":"7.0","dtc":"2024-08-01","value":"93.2","unit":"mmHg"},{"visit":"WEEK 36","visitnum":"8.0","dtc":"2024-10-13","value":"92.5","unit":"mmHg"}],"HEIGHT":[{"visit":"SCREENING","visitnum":"1.0","dtc":"2023-12-24","value":"173.4","unit":"cm"},{"visit":"WEEK 0 BASELINE","visitnum":"2.0","dtc":"2024-02-09","value":"174.0","unit":"cm"},{"visit":"WEEK 4","visitnum":"3.0","dtc":"2024-03-05","value":"173.4","unit":"cm"},{"visit":"WEEK 8","visitnum":"4.0","dtc":"2024-04-02","value":"173.5","unit":"cm"},{"visit":"WEEK 12","visitnum":"5.0","dtc":"2024-05-04","value":"174.6","unit":"cm"},{"visit":"WEEK 16","visitnum":"6.0","dtc":"2024-05-30","value":"174.5","unit":"cm"},{"visit":"WEEK 24","visitnum":"7.0","dtc":"2024-08-01","value":"175.4","unit":"cm"},{"visit":"WEEK 36","visitnum":"8.0","dtc":"2024-10-13","value":"176.1","unit":"cm"}],"PULSE":[{"visit":"SCREENING","visitnum":"1.0","dtc":"2023-12-24","value":"87.9","unit":"beats/min"},{"visit":"WEEK 0 BASELINE","visitnum":"2.0","dtc":"2024-02-09","value":"86.2","unit":"beats/min"},{"visit":"WEEK 4","visitnum":"3.0","dtc":"2024-03-05","value":"84.0","unit":"beats/min"},{"visit":"WEEK 8","visitnum":"4.0","dtc":"2024-04-02","value":"85.0","unit":"beats/min"},{"visit":"WEEK 12","visitnum":"5.0","dtc":"2024-05-04","value":"86.6","unit":"beats/min"},{"visit":"WEEK 16","visitnum":"6.0","dtc":"2024-05-30","value":"79.5","unit":"beats/min"},{"visit":"WEEK 24","visitnum":"7.0","dtc":"2024-08-01","value":"79.2","unit":"beats/min"},{"visit":"WEEK 36","visitnum":"8.0","dtc":"2024-10-13","value":"80.3","unit":"beats/min"}],"RESP":[{"visit":"SCREENING","visitnum":"1.0","dtc":"2023-12-24","value":"14.6","unit":"breaths/min"},{"visit":"WEEK 0 BASELINE","visitnum":"2.0","dtc":"2024-02-09","value":"14.9","unit":"breaths/min"},{"visit":"WEEK 4","visitnum":"3.0","dtc":"2024-03-05","value":"14.5","unit":"breaths/min"},{"visit":"WEEK 8","visitnum":"4.0","dtc":"2024-04-02","value":"15.1","unit":"breaths/min"},{"visit":"WEEK 12","visitnum":"5.0","dtc":"2024-05-04","value":"17.4","unit":"breaths/min"},{"visit":"WEEK 16","visitnum":"6.0","dtc":"2024-05-30","value":"15.9","unit":"breaths/min"},{"visit":"WEEK 24","visitnum":"7.0","dtc":"2024-08-01","value":"16.4","unit":"breaths/min"},{"visit":"WEEK 36","visitnum":"8.0","dtc":"2024-10-13","value":"15.9","unit":"breaths/min"}],"SYSBP":[{"visit":"SCREENING","visitnum":"1.0","dtc":"2023-12-24","value":"96.7","unit":"mmHg"},{"visit":"WEEK 0 BASELINE","visitnum":"2.0","dtc":"2024-02-09","value":"97.1","unit":"mmHg"},{"visit":"WEEK 4","visitnum":"3.0","dtc":"2024-03-05","value":"96.6","unit":"mmHg"},{"visit":"WEEK 8","visitnum":"4.0","dtc":"2024-04-02","value":"99.0","unit":"mmHg"},{"visit":"WEEK 12","visitnum":"5.0","dtc":"2024-05-04","value":"100.1","unit":"mmHg"},{"visit":"WEEK 16","visitnum":"6.0","dtc":"2024-05-30","value":"100.5","unit":"mmHg"},{"visit":"WEEK 24","visitnum":"7.0","dtc":"2024-08-01","value":"99.7","unit":"mmHg"},{"visit":"WEEK 36","visitnum":"8.0","dtc":"2024-10-13","value":"97.6","unit":"mmHg"}],"TEMP":[{"visit":"SCREENING","visitnum":"1.0","dtc":"2023-12-24","value":"37.0","unit":"C"},{"visit":"WEEK 0 BASELINE","visitnum":"2.0","dtc":"2024-02-09","value":"36.9","unit":"C"},{"visit":"WEEK 4","visitnum":"3.0","dtc":"2024-03-05","value":"36.9","unit":"C"},{"visit":"WEEK 8","visitnum":"4.0","dtc":"2024-04-02","value":"36.9","unit":"C"},{"visit":"WEEK 12","visitnum":"5.0","dtc":"2024-05-04","value":"37.0","unit":"C"},{"visit":"WEEK 16","visitnum":"6.0","dtc":"2024-05-30","value":"37.2","unit":"C"},{"visit":"WEEK 24","visitnum":"7.0","dtc":"2024-08-01","value":"37.0","unit":"C"},{"visit":"WEEK 36","visitnum":"8.0","dtc":"2024-10-13","value":"36.9","unit":"C"}],"WEIGHT":[{"visit":"SCREENING","visitnum":"1.0","dtc":"2023-12-24","value":"66.4","unit":"kg"},{"visit":"WEEK 4","visitnum":"3.0","dtc":"2024-03-05","value":"65.5","unit":"kg"},{"visit":"WEEK 8","visitnum":"4.0","dtc":"2024-04-02","value":"66.5","unit":"kg"},{"visit":"WEEK 12","visitnum":"5.0","dtc":"2024-05-04","value":"66.0","unit":"kg"},{"visit":"WEEK 16","visitnum":"6.0","dtc":"2024-05-30","value":"64.2","unit":"kg"},{"visit":"WEEK 24","visitnum":"7.0","dtc":"2024-08-01","value":"61.3","unit":"kg"},{"visit":"WEEK 36","visitnum":"8.0","dtc":"2024-10-13","value":"60.9","unit":"kg"}]},"results":[{"seq":"1","testcd":"BMI","test":"BMI","cat":null,"orres":null,"orresu":null,"stresc":"22.1","stresn":"22.1","stresu":"kg/m2","stnrlo":null,"stnrhi":null,"nrind":null,"pos":null,"loc":null,"dtc":"2023-12-24","dy":"-47","visit":"SCREENING","visitnum":"1.0","epoch":"SCREENING"},{"seq":"2","testcd":"DIABP","test":"Diastolic Blood Pressure","cat":null,"orres":"91.8","orresu":"mmHg","stresc":"91.8","stresn":"91.8","stresu":"mmHg","stnrlo":null,"stnrhi":null,"nrind":null,"pos":null,"loc":null,"dtc":"2023-12-24","dy":"-47","visit":"SCREENING","visitnum":"1.0","epoch":"SCREENING"},{"seq":"3","testcd":"HEIGHT","test":"Height","cat":null,"orres":"173.4","orresu":"cm","stresc":"173.4","stresn":"173.4","stresu":"cm","stnrlo":null,"stnrhi":null,"nrind":null,"pos":null,"loc":null,"dtc":"2023-12-24","dy":"-47","visit":"SCREENING","visitnum":"1.0","epoch":"SCREENING"},{"seq":"4","testcd":"PULSE","test":"Pulse Rate","cat":null,"orres":"87.9","orresu":"beats/min","stresc":"87.9","stresn":"87.9","stresu":"beats/min","stnrlo":null,"stnrhi":null,"nrind":null,"pos":null,"loc":null,"dtc":"2023-12-24","dy":"-47","visit":"SCREENING","visitnum":"1.0","epoch":"SCREENING"},{"seq":"5","testcd":"RESP","test":"Respiratory Rate","cat":null,"orres":"14.6","orresu":"breaths/min","stresc":"14.6","stresn":"14.6","stresu":"breaths/min","stnrlo":null,"stnrhi":null,"nrind":null,"pos":null,"loc":null,"dtc":"2023-12-24","dy":"-47","visit":"SCREENING","visitnum":"1.0","epoch":"SCREENING"},{"seq":"6","testcd":"SYSBP","test":"Systolic Blood Pressure","cat":null,"orres":"96.7","orresu":"mmHg","stresc":"96.7","stresn":"96.7","stresu":"mmHg","stnrlo":null,"stnrhi":null,"nrind":null,"pos":null,"loc":null,"dtc":"2023-12-24","dy":"-47","visit":"SCREENING","visitnum":"1.0","epoch":"SCREENING"},{"seq":"7","testcd":"TEMP","test":"Temperature","cat":null,"orres":"37.0","orresu":"C","stresc":"37.0","stresn":"37.0","stresu":"C","stnrlo":null,"stnrhi":null,"nrind":null,"pos":null,"loc":null,"dtc":"2023-12-24","dy":"-47","visit":"SCREENING","visitnum":"1.0","epoch":"SCREENING"},{"seq":"8","testcd":"WEIGHT","test":"Weight","cat":null,"orres":"66.4","orresu":"kg","stresc":"66.4","stresn":"66.4","stresu":"kg","stnrlo":null,"stnrhi":null,"nrind":null,"pos":null,"loc":null,"dtc":"2023-12-24","dy":"-47","visit":"SCREENING","visitnum":"1.0","epoch":"SCREENING"},{"seq":"9","testcd":"DIABP","test":"Diastolic Blood Pressure","cat":null,"orres":"93.0","orresu":"mmHg","stresc":"93.0","stresn":"93.0","stresu":"mmHg","stnrlo":null,"stnrhi":null,"nrind":null,"pos":null,"loc":null,"dtc":"2024-02-09","dy":"1","visit":"WEEK 0 BASELINE","visitnum":"2.0","epoch":"TREATMENT"},{"seq":"10","testcd":"HEIGHT","test":"Height","cat":null,"orres":"174.0","orresu":"cm","stresc":"174.0","stresn":"174.0","stresu":"cm","stnrlo":null,"stnrhi":null,"nrind":null,"pos":null,"loc":null,"dtc":"2024-02-09","dy":"1","visit":"WEEK 0 BASELINE","visitnum":"2.0","epoch":"TREATMENT"},{"seq":"11","testcd":"PULSE","test":"Pulse Rate","cat":null,"orres":"86.2","orresu":"beats/min","stresc":"86.2","stresn":"86.2","stresu":"beats/min","stnrlo":null,"stnrhi":null,"nrind":null,"pos":null,"loc":null,"dtc":"2024-02-09","dy":"1","visit":"WEEK 0 BASELINE","visitnum":"2.0","epoch":"TREATMENT"},{"seq":"12","testcd":"RESP","test":"Respiratory Rate","cat":null,"orres":"14.9","orresu":"breaths/min","stresc":"14.9","stresn":"14.9","stresu":"breaths/min","stnrlo":null,"stnrhi":null,"nrind":null,"pos":null,"loc":null,"dtc":"2024-02-09","dy":"1","visit":"WEEK 0 BASELINE","visitnum":"2.0","epoch":"TREATMENT"},{"seq":"13","testcd":"SYSBP","test":"Systolic Blood Pressure","cat":null,"orres":"97.1","orresu":"mmHg","stresc":"97.1","stresn":"97.1","stresu":"mmHg","stnrlo":null,"stnrhi":null,"nrind":null,"pos":null,"loc":null,"dtc":"2024-02-09","dy":"1","visit":"WEEK 0 BASELINE","visitnum":"2.0","epoch":"TREATMENT"},{"seq":"14","testcd":"TEMP","test":"Temperature","cat":null,"orres":"36.9","orresu":"C","stresc":"36.9","stresn":"36.9","stresu":"C","stnrlo":null,"stnrhi":null,"nrind":null,"pos":null,"loc":null,"dtc":"2024-02-09","dy":"1","visit":"WEEK 0 BASELINE","visitnum":"2.0","epoch":"TREATMENT"},{"seq":"15","testcd":"WEIGHT","test":"Weight","cat":null,"orres":null,"orresu":null,"stresc":null,"stresn":null,"stresu":null,"stnrlo":null,"stnrhi":null,"nrind":null,"pos":null,"loc":null,"dtc":"2024-02-09","dy":"1","visit":"WEEK 0 BASELINE","visitnum":"2.0","epoch":"TREATMENT"},{"seq":"16","testcd":"BMI","test":"BMI","cat":null,"orres":null,"orresu":null,"stresc":"21.8","stresn":"21.8","stresu":"kg/m2","stnrlo":null,"stnrhi":null,"nrind":null,"pos":null,"loc":null,"dtc":"2024-03-05","dy":"26","visit":"WEEK 4","visitnum":"3.0","epoch":"TREATMENT"},{"seq":"17","testcd":"DIABP","test":"Diastolic Blood Pressure","cat":null,"orres":"93.0","orresu":"mmHg","stresc":"93.0","stresn":"93.0","stresu":"mmHg","stnrlo":null,"stnrhi":null,"nrind":null,"pos":null,"loc":null,"dtc":"2024-03-05","dy":"26","visit":"WEEK 4","visitnum":"3.0","epoch":"TREATMENT"},{"seq":"18","testcd":"HEIGHT","test":"Height","cat":null,"orres":"173.4","orresu":"cm","stresc":"173.4","stresn":"173.4","stresu":"cm","stnrlo":null,"stnrhi":null,"nrind":null,"pos":null,"loc":null,"dtc":"2024-03-05","dy":"26","visit":"WEEK 4","visitnum":"3.0","epoch":"TREATMENT"},{"seq":"19","testcd":"PULSE","test":"Pulse Rate","cat":null,"orres":"84.0","orresu":"beats/min","stresc":"84.0","stresn":"84.0","stresu":"beats/min","stnrlo":null,"stnrhi":null,"nrind":null,"pos":null,"loc":null,"dtc":"2024-03-05","dy":"26","visit":"WEEK 4","visitnum":"3.0","epoch":"TREATMENT"},{"seq":"20","testcd":"RESP","test":"Respiratory Rate","cat":null,"orres":"14.5","orresu":"breaths/min","stresc":"14.5","stresn":"14.5","stresu":"breaths/min","stnrlo":null,"stnrhi":null,"nrind":null,"pos":null,"loc":null,"dtc":"2024-03-05","dy":"26","visit":"WEEK 4","visitnum":"3.0","epoch":"TREATMENT"},{"seq":"21","testcd":"SYSBP","test":"Systolic Blood Pressure","cat":null,"orres":"96.6","orresu":"mmHg","stresc":"96.6","stresn":"96.6","stresu":"mmHg","stnrlo":null,"stnrhi":null,"nrind":null,"pos":null,"loc":null,"dtc":"2024-03-05","dy":"26","visit":"WEEK 4","visitnum":"3.0","epoch":"TREATMENT"},{"seq":"22","testcd":"TEMP","test":"Temperature","cat":null,"orres":"36.9","orresu":"C","stresc":"36.9","stresn":"36.9","stresu":"C","stnrlo":null,"stnrhi":null,"nrind":null,"pos":null,"loc":null,"dtc":"2024-03-05","dy":"26","visit":"WEEK 4","visitnum":"3.0","epoch":"TREATMENT"},{"seq":"23","testcd":"WEIGHT","test":"Weight","cat":null,"orres":"65.5","orresu":"kg","stresc":"65.5","stresn":"65.5","stresu":"kg","stnrlo":null,"stnrhi":null,"nrind":null,"pos":null,"loc":null,"dtc":"2024-03-05","dy":"26","visit":"WEEK 4","visitnum":"3.0","epoch":"TREATMENT"},{"seq":"24","testcd":"BMI","test":"BMI","cat":null,"orres":null,"orresu":null,"stresc":"22.1","stresn":"22.1","stresu":"kg/m2","stnrlo":null,"stnrhi":null,"nrind":null,"pos":null,"loc":null,"dtc":"2024-04-02","dy":"54","visit":"WEEK 8","visitnum":"4.0","epoch":"TREATMENT"},{"seq":"25","testcd":"DIABP","test":"Diastolic Blood Pressure","cat":null,"orres":"92.4","orresu":"mmHg","stresc":"92.4","stresn":"92.4","stresu":"mmHg","stnrlo":null,"stnrhi":null,"nrind":null,"pos":null,"loc":null,"dtc":"2024-04-02","dy":"54","visit":"WEEK 8","visitnum":"4.0","epoch":"TREATMENT"},{"seq":"26","testcd":"HEIGHT","test":"Height","cat":null,"orres":"173.5","orresu":"cm","stresc":"173.5","stresn":"173.5","stresu":"cm","stnrlo":null,"stnrhi":null,"nrind":null,"pos":null,"loc":null,"dtc":"2024-04-02","dy":"54","visit":"WEEK 8","visitnum":"4.0","epoch":"TREATMENT"},{"seq":"27","testcd":"PULSE","test":"Pulse Rate","cat":null,"orres":"85.0","orresu":"beats/min","stresc":"85.0","stresn":"85.0","stresu":"beats/min","stnrlo":null,"stnrhi":null,"nrind":null,"pos":null,"loc":null,"dtc":"2024-04-02","dy":"54","visit":"WEEK 8","visitnum":"4.0","epoch":"TREATMENT"},{"seq":"28","testcd":"RESP","test":"Respiratory Rate","cat":null,"orres":"15.1","orresu":"breaths/min","stresc":"15.1","stresn":"15.1","stresu":"breaths/min","stnrlo":null,"stnrhi":null,"nrind":null,"pos":null,"loc":null,"dtc":"2024-04-02","dy":"54","visit":"WEEK 8","visitnum":"4.0","epoch":"TREATMENT"},{"seq":"29","testcd":"SYSBP","test":"Systolic Blood Pressure","cat":null,"orres":"99.0","orresu":"mmHg","stresc":"99.0","stresn":"99.0","stresu":"mmHg","stnrlo":null,"stnrhi":null,"nrind":null,"pos":null,"loc":null,"dtc":"2024-04-02","dy":"54","visit":"WEEK 8","visitnum":"4.0","epoch":"TREATMENT"},{"seq":"30","testcd":"TEMP","test":"Temperature","cat":null,"orres":"36.9","orresu":"C","stresc":"36.9","stresn":"36.9","stresu":"C","stnrlo":null,"stnrhi":null,"nrind":null,"pos":null,"loc":null,"dtc":"2024-04-02","dy":"54","visit":"WEEK 8","visitnum":"4.0","epoch":"TREATMENT"},{"seq":"31","testcd":"WEIGHT","test":"Weight","cat":null,"orres":"66.5","orresu":"kg","stresc":"66.5","stresn":"66.5","stresu":"kg","stnrlo":null,"stnrhi":null,"nrind":null,"pos":null,"loc":null,"dtc":"2024-04-02","dy":"54","visit":"WEEK 8","visitnum":"4.0","epoch":"TREATMENT"},{"seq":"32","testcd":"BMI","test":"BMI","cat":null,"orres":null,"orresu":null,"stresc":"21.6","stresn":"21.6","stresu":"kg/m2","stnrlo":null,"stnrhi":null,"nrind":null,"pos":null,"loc":null,"dtc":"2024-05-04","dy":"86","visit":"WEEK 12","visitnum":"5.0","epoch":"TREATMENT"},{"seq":"33","testcd":"DIABP","test":"Diastolic Blood Pressure","cat":null,"orres":"92.0","orresu":"mmHg","stresc":"92.0","stresn":"92.0","stresu":"mmHg","stnrlo":null,"stnrhi":null,"nrind":null,"pos":null,"loc":null,"dtc":"2024-05-04","dy":"86","visit":"WEEK 12","visitnum":"5.0","epoch":"TREATMENT"},{"seq":"34","testcd":"HEIGHT","test":"Height","cat":null,"orres":"174.6","orresu":"cm","stresc":"174.6","stresn":"174.6","stresu":"cm","stnrlo":null,"stnrhi":null,"nrind":null,"pos":null,"loc":null,"dtc":"2024-05-04","dy":"86","visit":"WEEK 12","visitnum":"5.0","epoch":"TREATMENT"},{"seq":"35","testcd":"PULSE","test":"Pulse Rate","cat":null,"orres":"86.6","orresu":"beats/min","stresc":"86.6","stresn":"86.6","stresu":"beats/min","stnrlo":null,"stnrhi":null,"nrind":null,"pos":null,"loc":null,"dtc":"2024-05-04","dy":"86","visit":"WEEK 12","visitnum":"5.0","epoch":"TREATMENT"},{"seq":"36","testcd":"RESP","test":"Respiratory Rate","cat":null,"orres":"17.4","orresu":"breaths/min","stresc":"17.4","stresn":"17.4","stresu":"breaths/min","stnrlo":null,"stnrhi":null,"nrind":null,"pos":null,"loc":null,"dtc":"2024-05-04","dy":"86","visit":"WEEK 12","visitnum":"5.0","epoch":"TREATMENT"},{"seq":"37","testcd":"SYSBP","test":"Systolic Blood Pressure","cat":null,"orres":"100.1","orresu":"mmHg","stresc":"100.1","stresn":"100.1","stresu":"mmHg","stnrlo":null,"stnrhi":null,"nrind":null,"pos":null,"loc":null,"dtc":"2024-05-04","dy":"86","visit":"WEEK 12","visitnum":"5.0","epoch":"TREATMENT"},{"seq":"38","testcd":"TEMP","test":"Temperature","cat":null,"orres":"37.0","orresu":"C","stresc":"37.0","stresn":"37.0","stresu":"C","stnrlo":null,"stnrhi":null,"nrind":null,"pos":null,"loc":null,"dtc":"2024-05-04","dy":"86","visit":"WEEK 12","visitnum":"5.0","epoch":"TREATMENT"},{"seq":"39","testcd":"WEIGHT","test":"Weight","cat":null,"orres":"66.0","orresu":"kg","stresc":"66.0","stresn":"66.0","stresu":"kg","stnrlo":null,"stnrhi":null,"nrind":null,"pos":null,"loc":null,"dtc":"2024-05-04","dy":"86","visit":"WEEK 12","visitnum":"5.0","epoch":"TREATMENT"},{"seq":"40","testcd":"BMI","test":"BMI","cat":null,"orres":null,"orresu":null,"stresc":"21.1","stresn":"21.1","stresu":"kg/m2","stnrlo":null,"stnrhi":null,"nrind":null,"pos":null,"loc":null,"dtc":"2024-05-30","dy":"112","visit":"WEEK 16","visitnum":"6.0","epoch":"TREATMENT"},{"seq":"41","testcd":"DIABP","test":"Diastolic Blood Pressure","cat":null,"orres":"91.0","orresu":"mmHg","stresc":"91.0","stresn":"91.0","stresu":"mmHg","stnrlo":null,"stnrhi":null,"nrind":null,"pos":null,"loc":null,"dtc":"2024-05-30","dy":"112","visit":"WEEK 16","visitnum":"6.0","epoch":"TREATMENT"},{"seq":"42","testcd":"HEIGHT","test":"Height","cat":null,"orres":"174.5","orresu":"cm","stresc":"174.5","stresn":"174.5","stresu":"cm","stnrlo":null,"stnrhi":null,"nrind":null,"pos":null,"loc":null,"dtc":"2024-05-30","dy":"112","visit":"WEEK 16","visitnum":"6.0","epoch":"TREATMENT"},{"seq":"43","testcd":"PULSE","test":"Pulse Rate","cat":null,"orres":"79.5","orresu":"beats/min","stresc":"79.5","stresn":"79.5","stresu":"beats/min","stnrlo":null,"stnrhi":null,"nrind":null,"pos":null,"loc":null,"dtc":"2024-05-30","dy":"112","visit":"WEEK 16","visitnum":"6.0","epoch":"TREATMENT"},{"seq":"44","testcd":"RESP","test":"Respiratory Rate","cat":null,"orres":"15.9","orresu":"breaths/min","stresc":"15.9","stresn":"15.9","stresu":"breaths/min","stnrlo":null,"stnrhi":null,"nrind":null,"pos":null,"loc":null,"dtc":"2024-05-30","dy":"112","visit":"WEEK 16","visitnum":"6.0","epoch":"TREATMENT"},{"seq":"45","testcd":"SYSBP","test":"Systolic Blood Pressure","cat":null,"orres":"100.5","orresu":"mmHg","stresc":"100.5","stresn":"100.5","stresu":"mmHg","stnrlo":null,"stnrhi":null,"nrind":null,"pos":null,"loc":null,"dtc":"2024-05-30","dy":"112","visit":"WEEK 16","visitnum":"6.0","epoch":"TREATMENT"},{"seq":"46","testcd":"TEMP","test":"Temperature","cat":null,"orres":"37.2","orresu":"C","stresc":"37.2","stresn":"37.2","stresu":"C","stnrlo":null,"stnrhi":null,"nrind":null,"pos":null,"loc":null,"dtc":"2024-05-30","dy":"112","visit":"WEEK 16","visitnum":"6.0","epoch":"TREATMENT"},{"seq":"47","testcd":"WEIGHT","test":"Weight","cat":null,"orres":"64.2","orresu":"kg","stresc":"64.2","stresn":"64.2","stresu":"kg","stnrlo":null,"stnrhi":null,"nrind":null,"pos":null,"loc":null,"dtc":"2024-05-30","dy":"112","visit":"WEEK 16","visitnum":"6.0","epoch":"TREATMENT"},{"seq":"48","testcd":"BMI","test":"BMI","cat":null,"orres":null,"orresu":null,"stresc":"19.9","stresn":"19.9","stresu":"kg/m2","stnrlo":null,"stnrhi":null,"nrind":null,"pos":null,"loc":null,"dtc":"2024-08-01","dy":"175","visit":"WEEK 24","visitnum":"7.0","epoch":"TREATMENT"},{"seq":"49","testcd":"DIABP","test":"Diastolic Blood Pressure","cat":null,"orres":"93.2","orresu":"mmHg","stresc":"93.2","stresn":"93.2","stresu":"mmHg","stnrlo":null,"stnrhi":null,"nrind":null,"pos":null,"loc":null,"dtc":"2024-08-01","dy":"175","visit":"WEEK 24","visitnum":"7.0","epoch":"TREATMENT"},{"seq":"50","testcd":"HEIGHT","test":"Height","cat":null,"orres":"175.4","orresu":"cm","stresc":"175.4","stresn":"175.4","stresu":"cm","stnrlo":null,"stnrhi":null,"nrind":null,"pos":null,"loc":null,"dtc":"2024-08-01","dy":"175","visit":"WEEK 24","visitnum":"7.0","epoch":"TREATMENT"},{"seq":"51","testcd":"PULSE","test":"Pulse Rate","cat":null,"orres":"79.2","orresu":"beats/min","stresc":"79.2","stresn":"79.2","stresu":"beats/min","stnrlo":null,"stnrhi":null,"nrind":null,"pos":null,"loc":null,"dtc":"2024-08-01","dy":"175","visit":"WEEK 24","visitnum":"7.0","epoch":"TREATMENT"},{"seq":"52","testcd":"RESP","test":"Respiratory Rate","cat":null,"orres":"16.4","orresu":"breaths/min","stresc":"16.4","stresn":"16.4","stresu":"breaths/min","stnrlo":null,"stnrhi":null,"nrind":null,"pos":null,"loc":null,"dtc":"2024-08-01","dy":"175","visit":"WEEK 24","visitnum":"7.0","epoch":"TREATMENT"},{"seq":"53","testcd":"SYSBP","test":"Systolic Blood Pressure","cat":null,"orres":"99.7","orresu":"mmHg","stresc":"99.7","stresn":"99.7","stresu":"mmHg","stnrlo":null,"stnrhi":null,"nrind":null,"pos":null,"loc":null,"dtc":"2024-08-01","dy":"175","visit":"WEEK 24","visitnum":"7.0","epoch":"TREATMENT"},{"seq":"54","testcd":"TEMP","test":"Temperature","cat":null,"orres":"37.0","orresu":"C","stresc":"37.0","stresn":"37.0","stresu":"C","stnrlo":null,"stnrhi":null,"nrind":null,"pos":null,"loc":null,"dtc":"2024-08-01","dy":"175","visit":"WEEK 24","visitnum":"7.0","epoch":"TREATMENT"},{"seq":"55","testcd":"WEIGHT","test":"Weight","cat":null,"orres":"61.3","orresu":"kg","stresc":"61.3","stresn":"61.3","stresu":"kg","stnrlo":null,"stnrhi":null,"nrind":null,"pos":null,"loc":null,"dtc":"2024-08-01","dy":"175","visit":"WEEK 24","visitnum":"7.0","epoch":"TREATMENT"},{"seq":"56","testcd":"BMI","test":"BMI","cat":null,"orres":null,"orresu":null,"stresc":"19.6","stresn":"19.6","stresu":"kg/m2","stnrlo":null,"stnrhi":null,"nrind":null,"pos":null,"loc":null,"dtc":"2024-10-13","dy":"248","visit":"WEEK 36","visitnum":"8.0","epoch":"TREATMENT"},{"seq":"57","testcd":"DIABP","test":"Diastolic Blood Pressure","cat":null,"orres":"92.5","orresu":"mmHg","stresc":"92.5","stresn":"92.5","stresu":"mmHg","stnrlo":null,"stnrhi":null,"nrind":null,"pos":null,"loc":null,"dtc":"2024-10-13","dy":"248","visit":"WEEK 36","visitnum":"8.0","epoch":"TREATMENT"},{"seq":"58","testcd":"HEIGHT","test":"Height","cat":null,"orres":"176.1","orresu":"cm","stresc":"176.1","stresn":"176.1","stresu":"cm","stnrlo":null,"stnrhi":null,"nrind":null,"pos":null,"loc":null,"dtc":"2024-10-13","dy":"248","visit":"WEEK 36","visitnum":"8.0","epoch":"TREATMENT"},{"seq":"59","testcd":"PULSE","test":"Pulse Rate","cat":null,"orres":"80.3","orresu":"beats/min","stresc":"80.3","stresn":"80.3","stresu":"beats/min","stnrlo":null,"stnrhi":null,"nrind":null,"pos":null,"loc":null,"dtc":"2024-10-13","dy":"248","visit":"WEEK 36","visitnum":"8.0","epoch":"TREATMENT"},{"seq":"60","testcd":"RESP","test":"Respiratory Rate","cat":null,"orres":"15.9","orresu":"breaths/min","stresc":"15.9","stresn":"15.9","stresu":"breaths/min","stnrlo":null,"stnrhi":null,"nrind":null,"pos":null,"loc":null,"dtc":"2024-10-13","dy":"248","visit":"WEEK 36","visitnum":"8.0","epoch":"TREATMENT"},{"seq":"61","testcd":"SYSBP","test":"Systolic Blood Pressure","cat":null,"orres":"97.6","orresu":"mmHg","stresc":"97.6","stresn":"97.6","stresu":"mmHg","stnrlo":null,"stnrhi":null,"nrind":null,"pos":null,"loc":null,"dtc":"2024-10-13","dy":"248","visit":"WEEK 36","visitnum":"8.0","epoch":"TREATMENT"},{"seq":"62","testcd":"TEMP","test":"Temperature","cat":null,"orres":"36.9","orresu":"C","stresc":"36.9","stresn":"36.9","stresu":"C","stnrlo":null,"stnrhi":null,"nrind":null,"pos":null,"loc":null,"dtc":"2024-10-13","dy":"248","visit":"WEEK 36","visitnum":"8.0","epoch":"TREATMENT"},{"seq":"63","testcd":"WEIGHT","test":"Weight","cat":null,"orres":"60.9","orresu":"kg","stresc":"60.9","stresn":"60.9","stresu":"kg","stnrlo":null,"stnrhi":null,"nrind":null,"pos":null,"loc":null,"dtc":"2024-10-13","dy":"248","visit":"WEEK 36","visitnum":"8.0","epoch":"TREATMENT"}]},"section_10_questionnaires_and_scores":{"questionnaires":[],"findings_about":[]},"section_11_protocol_deviations":{"deviations":[{"seq":"1","term":"Dose modified from 75.0 to 150.0 mg","decod":"DOSE MODIFICATION","cat":"MINOR","scat":"DOSING","start_dtc":"2024-02-09","end_dtc":null,"visit":null},{"seq":"2","term":"Visit WEEK 4 occurred 3 days early (Day 26 vs planned Day 29)","decod":"VISIT OCCURRED OUTSIDE VISIT WINDOW","cat":"MINOR","scat":"VISIT WINDOW","start_dtc":"2024-03-05","end_dtc":null,"visit":null},{"seq":"3","term":"Visit WEEK 8 occurred 3 days early (Day 54 vs planned Day 57)","decod":"VISIT OCCURRED OUTSIDE VISIT WINDOW","cat":"MINOR","scat":"VISIT WINDOW","start_dtc":"2024-04-02","end_dtc":null,"visit":null},{"seq":"4","term":"Dose modified from 75.0 to 150.0 mg","decod":"DOSE MODIFICATION","cat":"MINOR","scat":"DOSING","start_dtc":"2024-05-31","end_dtc":null,"visit":null},{"seq":"5","term":"Visit WEEK 36 occurred 5 days early (Day 248 vs planned Day 253)","decod":"VISIT OCCURRED OUTSIDE VISIT WINDOW","cat":"MINOR","scat":"VISIT WINDOW","start_dtc":"2024-10-13","end_dtc":null,"visit":null}],"total":5},"section_12_disposition":{"completion_status":"INFORMED CONSENT OBTAINED","disposition_records":[{"seq":"1","term":"INFORMED CONSENT OBTAINED","decod":"INFORMED CONSENT OBTAINED","cat":"PROTOCOL MILESTONE","scat":null,"dtc":"2024-02-02","dy":null,"visit":null,"epoch":"SCREENING"},{"seq":"2","term":"RANDOMIZED","decod":"RANDOMIZED","cat":"PROTOCOL MILESTONE","scat":null,"dtc":"2024-02-09","dy":null,"visit":null,"epoch":"TREATMENT"},{"seq":"3","term":"ADVERSE EVENT","decod":"ADVERSE EVENT","cat":"DISPOSITION EVENT","scat":null,"dtc":"2024-10-19","dy":null,"visit":null,"epoch":"TREATMENT"}],"death":null},"section_13_hospitalizations":{"items":[{"seq":"1","term":"Nasopharyngitis","decod":"Nasopharyngitis","cat":"EMERGENCY ROOM VISIT","start_dtc":"2024-03-18","end_dtc":"2024-03-23","epoch":"TREATMENT"},{"seq":"2","term":"Injection site reaction","decod":"Injection site reaction","cat":"HOSPITALIZATION","start_dtc":"2024-04-06","end_dtc":"2024-04-09","epoch":"TREATMENT"},{"seq":"3","term":"Upper respiratory tract infection","decod":"Upper respiratory tract infection","cat":"HOSPITALIZATION","start_dtc":"2024-10-19","end_dtc":"2024-10-19","epoch":"TREATMENT"}],"total":3},"section_14_substance_use":{"items":[{"seq":"1","substance":"BEER/WINE/SPIRITS","decod":"ETHANOL","cat":"ALCOHOL","scat":null,"usage":"N","dose":null,"dosu":null,"freq":null,"start_dtc":null,"end_dtc":null},{"seq":"2","substance":"COFFEE","decod":"COFFEE","cat":"CAFFEINE","scat":null,"usage":"Y","dose":"5.0","dosu":"CUPS/DAY","freq":"QD","start_dtc":"2010-02-05","end_dtc":null},{"seq":"3","substance":"CIGARETTES","decod":"CIGARETTES","cat":"TOBACCO","scat":null,"usage":"Y","dose":null,"dosu":null,"freq":null,"start_dtc":"2002-02-07","end_dtc":"2013-02-04"}],"total":3},"section_15_subject_status":{"items":[{"seq":"1","testcd":"SURVSTAT","test":"Survival Status","orres":"ALIVE","stresc":"ALIVE","dtc":"2024-10-19","visit":null,"epoch":"FOLLOW-UP"}],"total":1}}