{"subject_id":"M19-977-RISA-PED-CZE_SITE01-0018","study_id":"M19-977-RISA-PED","generated_at":"2026-07-07T06:10:44.116097+00:00","sdtmig_version":"3.4","flags":{"has_serious_ae":true,"has_fatal_ae":false,"has_protocol_deviation":true,"n_protocol_deviations":6,"n_adverse_events":10,"n_concomitant_meds":8,"max_ae_severity":"SEVERE","screen_failure":false,"discontinued_early":false,"discontinuation_reason":null,"death":false,"exposure_days":196},"timeline":[{"dtc":"2024-04-01","dy":"-39","event":"VISIT: SCREENING","domain":"SV","category":"visit"},{"dtc":"2024-04-11","dy":"-29","event":"INFORMED CONSENT OBTAINED","domain":"DS","category":"milestone"},{"dtc":"2024-05-10","dy":"1","event":"RANDOMIZED","domain":"DS","category":"milestone"},{"dtc":"2024-05-10","dy":"1","event":"FIRST DOSE: RISANKIZUMAB","domain":"EX","category":"exposure"},{"dtc":"2024-05-10","dy":"1","event":"DEVIATION: DOSE MODIFICATION","domain":"DV","category":"deviation"},{"dtc":"2024-05-10","dy":"1","event":"VISIT: WEEK 0 BASELINE","domain":"SV","category":"visit"},{"dtc":"2024-06-06","dy":"28","event":"VISIT: WEEK 4","domain":"SV","category":"visit"},{"dtc":"2024-06-07","dy":"29","event":"DEVIATION: DOSE MODIFICATION","domain":"DV","category":"deviation"},{"dtc":"2024-07-08","dy":"60","event":"VISIT: WEEK 8","domain":"SV","category":"visit"},{"dtc":"2024-07-31","dy":"83","event":"VISIT: WEEK 12","domain":"SV","category":"visit"},{"dtc":"2024-08-08","dy":"91","event":"AE: Upper respiratory tract infection (MILD)","domain":"AE","category":"adverse_event"},{"dtc":"2024-08-08","dy":"91","event":"CM START: AMOXICILLIN","domain":"CM","category":"concomitant_med"},{"dtc":"2024-08-25","dy":"108","event":"VISIT: WEEK 16","domain":"SV","category":"visit"},{"dtc":"2024-09-26","dy":"140","event":"AE: Arthralgia (MODERATE)","domain":"AE","category":"adverse_event"},{"dtc":"2024-09-29","dy":"143","event":"AE: Arthralgia (MODERATE)","domain":"AE","category":"adverse_event"},{"dtc":"2024-09-29","dy":"143","event":"AE: Upper respiratory tract infection (MODERATE)","domain":"AE","category":"adverse_event"},{"dtc":"2024-09-29","dy":"143","event":"CM START: IBUPROFEN","domain":"CM","category":"concomitant_med"},{"dtc":"2024-09-29","dy":"143","event":"CM START: AMOXICILLIN","domain":"CM","category":"concomitant_med"},{"dtc":"2024-10-08","dy":"152","event":"AE: Nasopharyngitis (MILD)","domain":"AE","category":"adverse_event"},{"dtc":"2024-10-09","dy":"153","event":"AE: Upper respiratory tract infection (MODERATE)","domain":"AE","category":"adverse_event"},{"dtc":"2024-10-09","dy":"153","event":"CM START: PARACETAMOL","domain":"CM","category":"concomitant_med"},{"dtc":"2024-10-21","dy":"165","event":"VISIT: WEEK 24","domain":"SV","category":"visit"},{"dtc":"2024-11-09","dy":"184","event":"AE: Upper respiratory tract infection (MODERATE)","domain":"AE","category":"adverse_event"},{"dtc":"2024-11-09","dy":"184","event":"CM START: PARACETAMOL","domain":"CM","category":"concomitant_med"},{"dtc":"2024-11-10","dy":"185","event":"AE: Pruritus (MODERATE)","domain":"AE","category":"adverse_event"},{"dtc":"2024-11-10","dy":"185","event":"CM START: CETIRIZINE","domain":"CM","category":"concomitant_med"},{"dtc":"2024-11-22","dy":"197","event":"LAST DOSE: RISANKIZUMAB","domain":"EX","category":"exposure"},{"dtc":"2024-11-22","dy":"197","event":"DEVIATION: DOSE MODIFICATION","domain":"DV","category":"deviation"},{"dtc":"2024-12-12","dy":"217","event":"AE: Upper respiratory tract infection (MILD)","domain":"AE","category":"adverse_event"},{"dtc":"2024-12-28","dy":"233","event":"AE: Pruritus (SEVERE) [SERIOUS]","domain":"AE","category":"adverse_event"},{"dtc":"2024-12-28","dy":"233","event":"CM START: DIPHENHYDRAMINE","domain":"CM","category":"concomitant_med"},{"dtc":"2024-12-31","dy":"236","event":"CM START: IBUPROFEN","domain":"CM","category":"concomitant_med"},{"dtc":"2025-01-12","dy":"248","event":"DEVIATION: VISIT OCCURRED OUTSIDE VISIT WINDOW","domain":"DV","category":"deviation"},{"dtc":"2025-01-12","dy":"248","event":"VISIT: WEEK 36","domain":"SV","category":"visit"},{"dtc":"2025-02-16","dy":"283","event":"DEVIATION: VISIT OCCURRED OUTSIDE VISIT WINDOW","domain":"DV","category":"deviation"},{"dtc":"2025-02-16","dy":"283","event":"VISIT: WEEK 40 EOT","domain":"SV","category":"visit"},{"dtc":"2025-06-25","dy":"412","event":"DEVIATION: VISIT OCCURRED OUTSIDE VISIT WINDOW","domain":"DV","category":"deviation"},{"dtc":"2025-06-25","dy":"412","event":"VISIT: WEEK 60 FU","domain":"SV","category":"visit"},{"dtc":"2025-08-07","dy":"455","event":"COMPLETED","domain":"DS","category":"milestone"}],"section_1_demographics":{"usubjid":"M19-977-RISA-PED-CZE_SITE01-0018","subjid":"0018","siteid":"CZE_SITE01","age":"15","ageu":"YEARS","sex":"F","race":"WHITE","ethnicity":"NOT HISPANIC OR LATINO","country":"CZE","arm":"Risankizumab SC (75 mg if <40 kg, 150 mg if >=40 kg)","armcd":"RISA","actarm":"Risankizumab SC (75 mg if <40 kg, 150 mg if >=40 kg)","actarmcd":"RISA","randomization_date":null,"informed_consent_date":"2024-04-11","reference_start_date":"2024-05-10","reference_end_date":"2025-08-07","screen_failure":false,"death_flag":null,"death_date":null,"subject_characteristics":[{"testcd":"ALCUSE","test":"Alcohol Use","orres":"NON-DRINKER","stresc":"NON-DRINKER","visit":null,"dtc":"2024-04-11"},{"testcd":"BMI","test":"Body Mass Index","orres":"24.8","stresc":"24.8","visit":null,"dtc":"2024-04-11"},{"testcd":"DURDIS","test":"Duration of Disease","orres":"97 months","stresc":"97","visit":null,"dtc":"2024-04-11"},{"testcd":"TOBPKYR","test":"Tobacco Pack-Years","orres":"21","stresc":"21","visit":null,"dtc":"2024-04-11"},{"testcd":"TOBUSE","test":"Tobacco Use","orres":"CURRENT SMOKER","stresc":"CURRENT SMOKER","visit":null,"dtc":"2024-04-11"}]},"section_2_medical_history":{"items":[{"seq":"1","term":"PSORIASIS","decod":"PSORIASIS","cat":"DERMATOLOGICAL","scat":null,"presp":null,"occur":null,"status":null,"onset_dtc":"2018-04-13","end_dtc":"2022-04-06","visit":null},{"seq":"2","term":"PSORIATIC ARTHRITIS","decod":"PSORIATIC ARTHRITIS","cat":"MUSCULOSKELETAL","scat":null,"presp":null,"occur":null,"status":null,"onset_dtc":"2016-04-13","end_dtc":"2023-10-18","visit":null}]},"section_3_inclusion_exclusion":{"criteria":[]},"section_4_trial_participation":{"visits":[{"visitnum":"1.0","visit":"SCREENING","start_dtc":"2024-04-01","end_dtc":"2024-04-01","updes":null},{"visitnum":"2.0","visit":"WEEK 0 BASELINE","start_dtc":"2024-05-10","end_dtc":"2024-05-10","updes":null},{"visitnum":"3.0","visit":"WEEK 4","start_dtc":"2024-06-06","end_dtc":"2024-06-06","updes":null},{"visitnum":"4.0","visit":"WEEK 8","start_dtc":"2024-07-08","end_dtc":"2024-07-08","updes":null},{"visitnum":"5.0","visit":"WEEK 12","start_dtc":"2024-07-31","end_dtc":"2024-07-31","updes":null},{"visitnum":"6.0","visit":"WEEK 16","start_dtc":"2024-08-25","end_dtc":"2024-08-25","updes":null},{"visitnum":"7.0","visit":"WEEK 24","start_dtc":"2024-10-21","end_dtc":"2024-10-21","updes":null},{"visitnum":"8.0","visit":"WEEK 36","start_dtc":"2025-01-12","end_dtc":"2025-01-12","updes":null},{"visitnum":"9.0","visit":"WEEK 40 EOT","start_dtc":"2025-02-16","end_dtc":"2025-02-16","updes":null},{"visitnum":"10.0","visit":"WEEK 60 FU","start_dtc":"2025-06-25","end_dtc":"2025-06-25","updes":null}],"epochs":[{"seq":"1","etcd":"SCRN","element":"Screening","start_dtc":"2024-04-05","end_dtc":"2024-05-10","updes":null},{"seq":"2","etcd":"TRT","element":"Treatment (initial)","start_dtc":"2024-05-10","end_dtc":"2025-02-14","updes":null},{"seq":"3","etcd":"FU","element":"Safety follow-up","start_dtc":"2025-02-14","end_dtc":"2025-07-03","updes":null}],"visit_count":10},"section_5_concomitant_medications":{"medications":[{"seq":"1","trt":"AMOXICILLIN","decod":"AMOXICILLIN","cat":"CONCOMITANT","dose":"500","doseu":null,"dosef":"TID","route":"ORAL","indication":"UPPER RESPIRATORY TRACT INFECTION","start_dtc":"2024-08-08","end_dtc":"2024-08-29","ongoing":null,"visit":null},{"seq":"2","trt":"IBUPROFEN","decod":"IBUPROFEN","cat":"CONCOMITANT","dose":"400","doseu":null,"dosef":"TID","route":"ORAL","indication":"ARTHRALGIA","start_dtc":"2024-09-29","end_dtc":"2024-10-26","ongoing":null,"visit":null},{"seq":"3","trt":"AMOXICILLIN","decod":"AMOXICILLIN","cat":"CONCOMITANT","dose":"500","doseu":null,"dosef":"TID","route":"ORAL","indication":"UPPER RESPIRATORY TRACT INFECTION","start_dtc":"2024-09-29","end_dtc":"2024-10-12","ongoing":null,"visit":null},{"seq":"4","trt":"PARACETAMOL","decod":"PARACETAMOL","cat":"CONCOMITANT","dose":"500","doseu":null,"dosef":"PRN","route":"ORAL","indication":"UPPER RESPIRATORY TRACT INFECTION","start_dtc":"2024-10-09","end_dtc":"2024-10-18","ongoing":null,"visit":null},{"seq":"5","trt":"PARACETAMOL","decod":"PARACETAMOL","cat":"CONCOMITANT","dose":"500","doseu":null,"dosef":"PRN","route":"ORAL","indication":"UPPER RESPIRATORY TRACT INFECTION","start_dtc":"2024-11-09","end_dtc":"2024-12-04","ongoing":null,"visit":null},{"seq":"6","trt":"CETIRIZINE","decod":"CETIRIZINE","cat":"CONCOMITANT","dose":"10","doseu":null,"dosef":"QD","route":"ORAL","indication":"PRURITUS","start_dtc":"2024-11-10","end_dtc":"2024-11-26","ongoing":null,"visit":null},{"seq":"7","trt":"DIPHENHYDRAMINE","decod":"DIPHENHYDRAMINE","cat":"CONCOMITANT","dose":"25","doseu":null,"dosef":"PRN","route":"ORAL","indication":"PRURITUS","start_dtc":"2024-12-28","end_dtc":"2025-01-19","ongoing":null,"visit":null},{"seq":"8","trt":"IBUPROFEN","decod":"IBUPROFEN","cat":"CONCOMITANT","dose":null,"doseu":null,"dosef":"PRN","route":"ORAL","indication":null,"start_dtc":"2024-12-31","end_dtc":"2025-01-25","ongoing":null,"visit":null}]},"section_6_exposure":{"exposure_as_administered":[{"seq":"1","trt":"RISANKIZUMAB","dose":"150.0","doseu":null,"dosef":"ONCE","route":"SUBCUTANEOUS","lot":null,"start_dtc":"2024-05-10","end_dtc":"2024-05-10","start_dy":"1","end_dy":"1","epoch":"TREATMENT","visit":null},{"seq":"2","trt":"RISANKIZUMAB","dose":"150.0","doseu":null,"dosef":"ONCE","route":"SUBCUTANEOUS","lot":null,"start_dtc":"2024-06-07","end_dtc":"2024-06-07","start_dy":"29","end_dy":"29","epoch":"TREATMENT","visit":null},{"seq":"3","trt":"RISANKIZUMAB","dose":"150.0","doseu":null,"dosef":"Q12W","route":"SUBCUTANEOUS","lot":null,"start_dtc":"2024-08-30","end_dtc":"2024-08-30","start_dy":"113","end_dy":"113","epoch":"TREATMENT","visit":null},{"seq":"4","trt":"RISANKIZUMAB","dose":"150.0","doseu":null,"dosef":"Q12W","route":"SUBCUTANEOUS","lot":null,"start_dtc":"2024-11-22","end_dtc":"2024-11-22","start_dy":"197","end_dy":"197","epoch":"TREATMENT","visit":null}],"exposure_as_collected":[{"seq":"1","trt":"RISANKIZUMAB","dose":"150.0","doseu":null,"dosef":"ONCE","route":"SUBCUTANEOUS","start_dtc":"2024-05-10","end_dtc":"2024-05-10","visit":"WEEK 0 BASELINE"},{"seq":"2","trt":"RISANKIZUMAB","dose":"150.0","doseu":null,"dosef":"ONCE","route":"SUBCUTANEOUS","start_dtc":"2024-06-07","end_dtc":"2024-06-07","visit":"WEEK 4"},{"seq":"3","trt":"RISANKIZUMAB","dose":"150.0","doseu":null,"dosef":"Q12W","route":"SUBCUTANEOUS","start_dtc":"2024-08-30","end_dtc":"2024-08-30","visit":"WEEK 16"},{"seq":"4","trt":"RISANKIZUMAB","dose":"150.0","doseu":null,"dosef":"Q12W","route":"SUBCUTANEOUS","start_dtc":"2024-11-22","end_dtc":"2024-11-22","visit":null}]},"section_7_adverse_events":{"summary":{"total_aes":10,"serious_aes":1,"fatal_aes":0,"by_severity":{"MILD":3,"MODERATE":6,"SEVERE":1},"by_soc":{"Infections and infestations":6,"Musculoskeletal and connective tissue disorders":2,"Skin and subcutaneous tissue disorders":2}},"events":[{"seq":"1","term":"UPPER RESPIRATORY TRACT INFECTION","decod":"Upper respiratory tract infection","llt":"Upper respiratory tract infection","hlt":"Upper respiratory tract infections","hlgt":"Upper respiratory tract infections","soc":"Infections and infestations","bodsys":"Infections and infestations","severity":"MILD","serious":"N","causality":"UNLIKELY RELATED","action_taken":"DOSE NOT CHANGED","outcome":"RECOVERED/RESOLVED","fatal":"N","hospitalization":"N","life_threatening":"N","onset_dtc":"2024-08-08","end_dtc":"2024-08-21","onset_dy":"91","end_dy":"104","duration":null,"epoch":"TREATMENT","visit":null,"supplemental":{"AETRTEM":"Y"}},{"seq":"2","term":"ARTHRALGIA","decod":"Arthralgia","llt":"Arthralgia","hlt":"Joint related signs and symptoms","hlgt":"Joint disorders","soc":"Musculoskeletal and connective tissue disorders","bodsys":"Musculoskeletal and connective tissue disorders","severity":"MODERATE","serious":"N","causality":"NOT RELATED","action_taken":"DOSE NOT CHANGED","outcome":"NOT RECOVERED/NOT RESOLVED","fatal":"N","hospitalization":"N","life_threatening":"N","onset_dtc":"2024-09-26","end_dtc":null,"onset_dy":"140","end_dy":null,"duration":null,"epoch":"TREATMENT","visit":null,"supplemental":{"AETRTEM":"Y"}},{"seq":"3","term":"ARTHRALGIA","decod":"Arthralgia","llt":"Arthralgia","hlt":"Joint related signs and symptoms","hlgt":"Joint disorders","soc":"Musculoskeletal and connective tissue disorders","bodsys":"Musculoskeletal and connective tissue disorders","severity":"MODERATE","serious":"N","causality":"NOT RELATED","action_taken":"DOSE NOT CHANGED","outcome":"NOT RECOVERED/NOT RESOLVED","fatal":"N","hospitalization":"N","life_threatening":"N","onset_dtc":"2024-09-29","end_dtc":null,"onset_dy":"143","end_dy":null,"duration":null,"epoch":"TREATMENT","visit":null,"supplemental":{"AETRTEM":"Y"}},{"seq":"4","term":"UPPER RESPIRATORY TRACT INFECTION","decod":"Upper respiratory tract infection","llt":"Upper respiratory tract infection","hlt":"Upper respiratory tract infections","hlgt":"Upper respiratory tract infections","soc":"Infections and infestations","bodsys":"Infections and infestations","severity":"MODERATE","serious":"N","causality":"NOT RELATED","action_taken":"DOSE NOT CHANGED","outcome":"RECOVERED/RESOLVED","fatal":"N","hospitalization":"N","life_threatening":"N","onset_dtc":"2024-09-29","end_dtc":"2024-10-23","onset_dy":"143","end_dy":"167","duration":null,"epoch":"TREATMENT","visit":null,"supplemental":{"AETRTEM":"Y"}},{"seq":"5","term":"NASOPHARYNGITIS","decod":"Nasopharyngitis","llt":"Nasopharyngitis","hlt":"Upper respiratory tract infections","hlgt":"Upper respiratory tract infections","soc":"Infections and infestations","bodsys":"Infections and infestations","severity":"MILD","serious":"N","causality":"UNLIKELY RELATED","action_taken":"DOSE NOT CHANGED","outcome":"RECOVERED/RESOLVED","fatal":"N","hospitalization":"N","life_threatening":"N","onset_dtc":"2024-10-08","end_dtc":"2024-10-14","onset_dy":"152","end_dy":"158","duration":null,"epoch":"TREATMENT","visit":null,"supplemental":{"AETRTEM":"Y"}},{"seq":"6","term":"UPPER RESPIRATORY TRACT INFECTION","decod":"Upper respiratory tract infection","llt":"Upper respiratory tract infection","hlt":"Upper respiratory tract infections","hlgt":"Upper respiratory tract infections","soc":"Infections and infestations","bodsys":"Infections and infestations","severity":"MODERATE","serious":"N","causality":"NOT RELATED","action_taken":"DOSE NOT CHANGED","outcome":"RECOVERED/RESOLVED","fatal":"N","hospitalization":"N","life_threatening":"N","onset_dtc":"2024-10-09","end_dtc":"2024-10-20","onset_dy":"153","end_dy":"164","duration":null,"epoch":"TREATMENT","visit":null,"supplemental":{"AETRTEM":"Y"}},{"seq":"7","term":"UPPER RESPIRATORY TRACT INFECTION","decod":"Upper respiratory tract infection","llt":"Upper respiratory tract infection","hlt":"Upper respiratory tract infections","hlgt":"Upper respiratory tract infections","soc":"Infections and infestations","bodsys":"Infections and infestations","severity":"MODERATE","serious":"N","causality":"NOT RELATED","action_taken":"DOSE NOT CHANGED","outcome":"RECOVERING/RESOLVING","fatal":"N","hospitalization":"N","life_threatening":"N","onset_dtc":"2024-11-09","end_dtc":"2024-11-21","onset_dy":"184","end_dy":"196","duration":null,"epoch":"TREATMENT","visit":null,"supplemental":{"AETRTEM":"Y"}},{"seq":"8","term":"PRURITUS","decod":"Pruritus","llt":"Pruritus","hlt":"Pruritus NEC","hlgt":"Epidermal and dermal conditions","soc":"Skin and subcutaneous tissue disorders","bodsys":"Skin and subcutaneous tissue disorders","severity":"MODERATE","serious":"N","causality":"NOT RELATED","action_taken":"DOSE NOT CHANGED","outcome":"RECOVERED/RESOLVED","fatal":"N","hospitalization":"N","life_threatening":"N","onset_dtc":"2024-11-10","end_dtc":"2024-12-09","onset_dy":"185","end_dy":"214","duration":null,"epoch":"TREATMENT","visit":null,"supplemental":{"AETRTEM":"Y"}},{"seq":"9","term":"UPPER RESPIRATORY TRACT INFECTION","decod":"Upper respiratory tract infection","llt":"Upper respiratory tract infection","hlt":"Upper respiratory tract infections","hlgt":"Upper respiratory tract infections","soc":"Infections and infestations","bodsys":"Infections and infestations","severity":"MILD","serious":"N","causality":"NOT RELATED","action_taken":"DOSE NOT CHANGED","outcome":"RECOVERED/RESOLVED","fatal":"N","hospitalization":"N","life_threatening":"N","onset_dtc":"2024-12-12","end_dtc":"2024-12-21","onset_dy":"217","end_dy":"226","duration":null,"epoch":"TREATMENT","visit":null,"supplemental":{"AETRTEM":"Y"}},{"seq":"10","term":"PRURITUS","decod":"Pruritus","llt":"Pruritus","hlt":"Pruritus NEC","hlgt":"Epidermal and dermal conditions","soc":"Skin and subcutaneous tissue disorders","bodsys":"Skin and subcutaneous tissue disorders","severity":"SEVERE","serious":"Y","causality":"NOT RELATED","action_taken":"DOSE NOT CHANGED","outcome":"RECOVERED/RESOLVED","fatal":"N","hospitalization":"N","life_threatening":"N","onset_dtc":"2024-12-28","end_dtc":"2025-02-03","onset_dy":"233","end_dy":"270","duration":null,"epoch":"TREATMENT","visit":null,"supplemental":{"AETRTEM":"Y"}}]},"section_8_laboratory_results":{"summary":{"total_records":42,"abnormal_count":8,"abnormal_pct":19.0},"shift_summary":[{"testcd":"ALT","baseline_value":25.63,"baseline_nrind":"NORMAL","worst_post_baseline_value":30.46,"worst_post_baseline_nrind":"NORMAL","worst_visit":"WEEK 8"},{"testcd":"AST","baseline_value":25.51,"baseline_nrind":"NORMAL","worst_post_baseline_value":26.47,"worst_post_baseline_nrind":"NORMAL","worst_visit":"WEEK 60 FU"},{"testcd":"CREAT","baseline_value":80.02,"baseline_nrind":"HIGH","worst_post_baseline_value":83.44,"worst_post_baseline_nrind":"HIGH","worst_visit":"WEEK 60 FU"},{"testcd":"GLUC","baseline_value":4.98,"baseline_nrind":"NORMAL","worst_post_baseline_value":4.97,"worst_post_baseline_nrind":"NORMAL","worst_visit":"WEEK 0 BASELINE"},{"testcd":"HGB","baseline_value":128.53,"baseline_nrind":"NORMAL","worst_post_baseline_value":128.42,"worst_post_baseline_nrind":"NORMAL","worst_visit":"WEEK 0 BASELINE"},{"testcd":"PLAT","baseline_value":158.82,"baseline_nrind":"NORMAL","worst_post_baseline_value":152.89,"worst_post_baseline_nrind":"NORMAL","worst_visit":"WEEK 36"},{"testcd":"WBC","baseline_value":5.9,"baseline_nrind":"NORMAL","worst_post_baseline_value":6.28,"worst_post_baseline_nrind":"NORMAL","worst_visit":"WEEK 36"}],"results":[{"seq":"1","testcd":"ALT","test":"Alanine Aminotransferase","cat":"CHEMISTRY","orres":"25.63","orresu":"U/L","stresc":"25.63","stresn":"25.63","stresu":"U/L","stnrlo":"7","stnrhi":"56","nrind":"NORMAL","fast":null,"dtc":"2024-04-01","dy":"-39","visit":"SCREENING","visitnum":"1.0","epoch":"SCREENING","spec":null,"method":null},{"seq":"2","testcd":"AST","test":"Aspartate Aminotransferase","cat":"CHEMISTRY","orres":"25.51","orresu":"U/L","stresc":"25.51","stresn":"25.51","stresu":"U/L","stnrlo":"10","stnrhi":"40","nrind":"NORMAL","fast":null,"dtc":"2024-04-01","dy":"-39","visit":"SCREENING","visitnum":"1.0","epoch":"SCREENING","spec":null,"method":null},{"seq":"3","testcd":"CREAT","test":"Creatinine","cat":"CHEMISTRY","orres":"80.02","orresu":"umol/L","stresc":"80.02","stresn":"80.02","stresu":"umol/L","stnrlo":"44","stnrhi":"80","nrind":"HIGH","fast":null,"dtc":"2024-04-01","dy":"-39","visit":"SCREENING","visitnum":"1.0","epoch":"SCREENING","spec":null,"method":null},{"seq":"4","testcd":"GLUC","test":"Glucose","cat":"CHEMISTRY","orres":"4.98","orresu":"mmol/L","stresc":"4.98","stresn":"4.98","stresu":"mmol/L","stnrlo":"3.9","stnrhi":"5.6","nrind":"NORMAL","fast":null,"dtc":"2024-04-01","dy":"-39","visit":"SCREENING","visitnum":"1.0","epoch":"SCREENING","spec":null,"method":null},{"seq":"5","testcd":"HGB","test":"Hemoglobin","cat":"HEMATOLOGY","orres":"128.53","orresu":"g/L","stresc":"128.53","stresn":"128.53","stresu":"g/L","stnrlo":"120","stnrhi":"155","nrind":"NORMAL","fast":null,"dtc":"2024-04-01","dy":"-39","visit":"SCREENING","visitnum":"1.0","epoch":"SCREENING","spec":null,"method":null},{"seq":"6","testcd":"PLAT","test":"Platelets","cat":"HEMATOLOGY","orres":"158.82","orresu":"10^9/L","stresc":"158.82","stresn":"158.82","stresu":"10^9/L","stnrlo":"150","stnrhi":"400","nrind":"NORMAL","fast":null,"dtc":"2024-04-01","dy":"-39","visit":"SCREENING","visitnum":"1.0","epoch":"SCREENING","spec":null,"method":null},{"seq":"7","testcd":"WBC","test":"Leukocytes","cat":"HEMATOLOGY","orres":"5.9","orresu":"10^9/L","stresc":"5.9","stresn":"5.9","stresu":"10^9/L","stnrlo":"4.0","stnrhi":"11.0","nrind":"NORMAL","fast":null,"dtc":"2024-04-01","dy":"-39","visit":"SCREENING","visitnum":"1.0","epoch":"SCREENING","spec":null,"method":null},{"seq":"8","testcd":"ALT","test":"Alanine Aminotransferase","cat":"CHEMISTRY","orres":"29.11","orresu":"U/L","stresc":"29.11","stresn":"29.11","stresu":"U/L","stnrlo":"7","stnrhi":"56","nrind":"NORMAL","fast":null,"dtc":"2024-05-10","dy":"1","visit":"WEEK 0 BASELINE","visitnum":"2.0","epoch":"TREATMENT","spec":null,"method":null},{"seq":"9","testcd":"AST","test":"Aspartate Aminotransferase","cat":"CHEMISTRY","orres":"25.67","orresu":"U/L","stresc":"25.67","stresn":"25.67","stresu":"U/L","stnrlo":"10","stnrhi":"40","nrind":"NORMAL","fast":null,"dtc":"2024-05-10","dy":"1","visit":"WEEK 0 BASELINE","visitnum":"2.0","epoch":"TREATMENT","spec":null,"method":null},{"seq":"10","testcd":"CREAT","test":"Creatinine","cat":"CHEMISTRY","orres":"81.45","orresu":"umol/L","stresc":"81.45","stresn":"81.45","stresu":"umol/L","stnrlo":"44","stnrhi":"80","nrind":"HIGH","fast":null,"dtc":"2024-05-10","dy":"1","visit":"WEEK 0 BASELINE","visitnum":"2.0","epoch":"TREATMENT","spec":null,"method":null},{"seq":"11","testcd":"GLUC","test":"Glucose","cat":"CHEMISTRY","orres":"4.97","orresu":"mmol/L","stresc":"4.97","stresn":"4.97","stresu":"mmol/L","stnrlo":"3.9","stnrhi":"5.6","nrind":"NORMAL","fast":null,"dtc":"2024-05-10","dy":"1","visit":"WEEK 0 BASELINE","visitnum":"2.0","epoch":"TREATMENT","spec":null,"method":null},{"seq":"12","testcd":"HGB","test":"Hemoglobin","cat":"HEMATOLOGY","orres":"128.42","orresu":"g/L","stresc":"128.42","stresn":"128.42","stresu":"g/L","stnrlo":"120","stnrhi":"155","nrind":"NORMAL","fast":null,"dtc":"2024-05-10","dy":"1","visit":"WEEK 0 BASELINE","visitnum":"2.0","epoch":"TREATMENT","spec":null,"method":null},{"seq":"13","testcd":"PLAT","test":"Platelets","cat":"HEMATOLOGY","orres":"149.79","orresu":"10^9/L","stresc":"149.79","stresn":"149.79","stresu":"10^9/L","stnrlo":"150","stnrhi":"400","nrind":"LOW","fast":null,"dtc":"2024-05-10","dy":"1","visit":"WEEK 0 BASELINE","visitnum":"2.0","epoch":"TREATMENT","spec":null,"method":null},{"seq":"14","testcd":"WBC","test":"Leukocytes","cat":"HEMATOLOGY","orres":"5.65","orresu":"10^9/L","stresc":"5.65","stresn":"5.65","stresu":"10^9/L","stnrlo":"4.0","stnrhi":"11.0","nrind":"NORMAL","fast":null,"dtc":"2024-05-10","dy":"1","visit":"WEEK 0 BASELINE","visitnum":"2.0","epoch":"TREATMENT","spec":null,"method":null},{"seq":"15","testcd":"ALT","test":"Alanine Aminotransferase","cat":"CHEMISTRY","orres":"26.82","orresu":"U/L","stresc":"26.82","stresn":"26.82","stresu":"U/L","stnrlo":"7","stnrhi":"56","nrind":"NORMAL","fast":null,"dtc":"2024-06-06","dy":"28","visit":"WEEK 4","visitnum":"3.0","epoch":"TREATMENT","spec":null,"method":null},{"seq":"16","testcd":"AST","test":"Aspartate Aminotransferase","cat":"CHEMISTRY","orres":"25.51","orresu":"U/L","stresc":"25.51","stresn":"25.51","stresu":"U/L","stnrlo":"10","stnrhi":"40","nrind":"NORMAL","fast":null,"dtc":"2024-06-06","dy":"28","visit":"WEEK 4","visitnum":"3.0","epoch":"TREATMENT","spec":null,"method":null},{"seq":"17","testcd":"CREAT","test":"Creatinine","cat":"CHEMISTRY","orres":"83.09","orresu":"umol/L","stresc":"83.09","stresn":"83.09","stresu":"umol/L","stnrlo":"44","stnrhi":"80","nrind":"HIGH","fast":null,"dtc":"2024-06-06","dy":"28","visit":"WEEK 4","visitnum":"3.0","epoch":"TREATMENT","spec":null,"method":null},{"seq":"18","testcd":"GLUC","test":"Glucose","cat":"CHEMISTRY","orres":"4.75","orresu":"mmol/L","stresc":"4.75","stresn":"4.75","stresu":"mmol/L","stnrlo":"3.9","stnrhi":"5.6","nrind":"NORMAL","fast":null,"dtc":"2024-06-06","dy":"28","visit":"WEEK 4","visitnum":"3.0","epoch":"TREATMENT","spec":null,"method":null},{"seq":"19","testcd":"HGB","test":"Hemoglobin","cat":"HEMATOLOGY","orres":"129.03","orresu":"g/L","stresc":"129.03","stresn":"129.03","stresu":"g/L","stnrlo":"120","stnrhi":"155","nrind":"NORMAL","fast":null,"dtc":"2024-06-06","dy":"28","visit":"WEEK 4","visitnum":"3.0","epoch":"TREATMENT","spec":null,"method":null},{"seq":"20","testcd":"PLAT","test":"Platelets","cat":"HEMATOLOGY","orres":"150.96","orresu":"10^9/L","stresc":"150.96","stresn":"150.96","stresu":"10^9/L","stnrlo":"150","stnrhi":"400","nrind":"NORMAL","fast":null,"dtc":"2024-06-06","dy":"28","visit":"WEEK 4","visitnum":"3.0","epoch":"TREATMENT","spec":null,"method":null},{"seq":"21","testcd":"WBC","test":"Leukocytes","cat":"HEMATOLOGY","orres":"5.48","orresu":"10^9/L","stresc":"5.48","stresn":"5.48","stresu":"10^9/L","stnrlo":"4.0","stnrhi":"11.0","nrind":"NORMAL","fast":null,"dtc":"2024-06-06","dy":"28","visit":"WEEK 4","visitnum":"3.0","epoch":"TREATMENT","spec":null,"method":null},{"seq":"22","testcd":"ALT","test":"Alanine Aminotransferase","cat":"CHEMISTRY","orres":"30.46","orresu":"U/L","stresc":"30.46","stresn":"30.46","stresu":"U/L","stnrlo":"7","stnrhi":"56","nrind":"NORMAL","fast":null,"dtc":"2024-07-08","dy":"60","visit":"WEEK 8","visitnum":"4.0","epoch":"TREATMENT","spec":null,"method":null},{"seq":"23","testcd":"AST","test":"Aspartate Aminotransferase","cat":"CHEMISTRY","orres":"25.46","orresu":"U/L","stresc":"25.46","stresn":"25.46","stresu":"U/L","stnrlo":"10","stnrhi":"40","nrind":"NORMAL","fast":null,"dtc":"2024-07-08","dy":"60","visit":"WEEK 8","visitnum":"4.0","epoch":"TREATMENT","spec":null,"method":null},{"seq":"24","testcd":"CREAT","test":"Creatinine","cat":"CHEMISTRY","orres":"83.01","orresu":"umol/L","stresc":"83.01","stresn":"83.01","stresu":"umol/L","stnrlo":"44","stnrhi":"80","nrind":"HIGH","fast":null,"dtc":"2024-07-08","dy":"60","visit":"WEEK 8","visitnum":"4.0","epoch":"TREATMENT","spec":null,"method":null},{"seq":"25","testcd":"GLUC","test":"Glucose","cat":"CHEMISTRY","orres":"4.93","orresu":"mmol/L","stresc":"4.93","stresn":"4.93","stresu":"mmol/L","stnrlo":"3.9","stnrhi":"5.6","nrind":"NORMAL","fast":null,"dtc":"2024-07-08","dy":"60","visit":"WEEK 8","visitnum":"4.0","epoch":"TREATMENT","spec":null,"method":null},{"seq":"26","testcd":"HGB","test":"Hemoglobin","cat":"HEMATOLOGY","orres":"128.54","orresu":"g/L","stresc":"128.54","stresn":"128.54","stresu":"g/L","stnrlo":"120","stnrhi":"155","nrind":"NORMAL","fast":null,"dtc":"2024-07-08","dy":"60","visit":"WEEK 8","visitnum":"4.0","epoch":"TREATMENT","spec":null,"method":null},{"seq":"27","testcd":"PLAT","test":"Platelets","cat":"HEMATOLOGY","orres":"149.11","orresu":"10^9/L","stresc":"149.11","stresn":"149.11","stresu":"10^9/L","stnrlo":"150","stnrhi":"400","nrind":"LOW","fast":null,"dtc":"2024-07-08","dy":"60","visit":"WEEK 8","visitnum":"4.0","epoch":"TREATMENT","spec":null,"method":null},{"seq":"28","testcd":"WBC","test":"Leukocytes","cat":"HEMATOLOGY","orres":"5.59","orresu":"10^9/L","stresc":"5.59","stresn":"5.59","stresu":"10^9/L","stnrlo":"4.0","stnrhi":"11.0","nrind":"NORMAL","fast":null,"dtc":"2024-07-08","dy":"60","visit":"WEEK 8","visitnum":"4.0","epoch":"TREATMENT","spec":null,"method":null},{"seq":"29","testcd":"ALT","test":"Alanine Aminotransferase","cat":"CHEMISTRY","orres":"27.53","orresu":"U/L","stresc":"27.53","stresn":"27.53","stresu":"U/L","stnrlo":"7","stnrhi":"56","nrind":"NORMAL","fast":null,"dtc":"2025-01-12","dy":"248","visit":"WEEK 36","visitnum":"8.0","epoch":"TREATMENT","spec":null,"method":null},{"seq":"30","testcd":"AST","test":"Aspartate Aminotransferase","cat":"CHEMISTRY","orres":"24.8","orresu":"U/L","stresc":"24.8","stresn":"24.8","stresu":"U/L","stnrlo":"10","stnrhi":"40","nrind":"NORMAL","fast":null,"dtc":"2025-01-12","dy":"248","visit":"WEEK 36","visitnum":"8.0","epoch":"TREATMENT","spec":null,"method":null},{"seq":"31","testcd":"CREAT","test":"Creatinine","cat":"CHEMISTRY","orres":"82.67","orresu":"umol/L","stresc":"82.67","stresn":"82.67","stresu":"umol/L","stnrlo":"44","stnrhi":"80","nrind":"HIGH","fast":null,"dtc":"2025-01-12","dy":"248","visit":"WEEK 36","visitnum":"8.0","epoch":"TREATMENT","spec":null,"method":null},{"seq":"32","testcd":"GLUC","test":"Glucose","cat":"CHEMISTRY","orres":"4.86","orresu":"mmol/L","stresc":"4.86","stresn":"4.86","stresu":"mmol/L","stnrlo":"3.9","stnrhi":"5.6","nrind":"NORMAL","fast":null,"dtc":"2025-01-12","dy":"248","visit":"WEEK 36","visitnum":"8.0","epoch":"TREATMENT","spec":null,"method":null},{"seq":"33","testcd":"HGB","test":"Hemoglobin","cat":"HEMATOLOGY","orres":"130.08","orresu":"g/L","stresc":"130.08","stresn":"130.08","stresu":"g/L","stnrlo":"120","stnrhi":"155","nrind":"NORMAL","fast":null,"dtc":"2025-01-12","dy":"248","visit":"WEEK 36","visitnum":"8.0","epoch":"TREATMENT","spec":null,"method":null},{"seq":"34","testcd":"PLAT","test":"Platelets","cat":"HEMATOLOGY","orres":"152.89","orresu":"10^9/L","stresc":"152.89","stresn":"152.89","stresu":"10^9/L","stnrlo":"150","stnrhi":"400","nrind":"NORMAL","fast":null,"dtc":"2025-01-12","dy":"248","visit":"WEEK 36","visitnum":"8.0","epoch":"TREATMENT","spec":null,"method":null},{"seq":"35","testcd":"WBC","test":"Leukocytes","cat":"HEMATOLOGY","orres":"6.28","orresu":"10^9/L","stresc":"6.28","stresn":"6.28","stresu":"10^9/L","stnrlo":"4.0","stnrhi":"11.0","nrind":"NORMAL","fast":null,"dtc":"2025-01-12","dy":"248","visit":"WEEK 36","visitnum":"8.0","epoch":"TREATMENT","spec":null,"method":null},{"seq":"36","testcd":"ALT","test":"Alanine Aminotransferase","cat":"CHEMISTRY","orres":"26.29","orresu":"U/L","stresc":"26.29","stresn":"26.29","stresu":"U/L","stnrlo":"7","stnrhi":"56","nrind":"NORMAL","fast":null,"dtc":"2025-06-25","dy":"412","visit":"WEEK 60 FU","visitnum":"10.0","epoch":"FOLLOW-UP","spec":null,"method":null},{"seq":"37","testcd":"AST","test":"Aspartate Aminotransferase","cat":"CHEMISTRY","orres":"26.47","orresu":"U/L","stresc":"26.47","stresn":"26.47","stresu":"U/L","stnrlo":"10","stnrhi":"40","nrind":"NORMAL","fast":null,"dtc":"2025-06-25","dy":"412","visit":"WEEK 60 FU","visitnum":"10.0","epoch":"FOLLOW-UP","spec":null,"method":null},{"seq":"38","testcd":"CREAT","test":"Creatinine","cat":"CHEMISTRY","orres":"83.44","orresu":"umol/L","stresc":"83.44","stresn":"83.44","stresu":"umol/L","stnrlo":"44","stnrhi":"80","nrind":"HIGH","fast":null,"dtc":"2025-06-25","dy":"412","visit":"WEEK 60 FU","visitnum":"10.0","epoch":"FOLLOW-UP","spec":null,"method":null},{"seq":"39","testcd":"GLUC","test":"Glucose","cat":"CHEMISTRY","orres":"4.85","orresu":"mmol/L","stresc":"4.85","stresn":"4.85","stresu":"mmol/L","stnrlo":"3.9","stnrhi":"5.6","nrind":"NORMAL","fast":null,"dtc":"2025-06-25","dy":"412","visit":"WEEK 60 FU","visitnum":"10.0","epoch":"FOLLOW-UP","spec":null,"method":null},{"seq":"40","testcd":"HGB","test":"Hemoglobin","cat":"HEMATOLOGY","orres":"131.52","orresu":"g/L","stresc":"131.52","stresn":"131.52","stresu":"g/L","stnrlo":"120","stnrhi":"155","nrind":"NORMAL","fast":null,"dtc":"2025-06-25","dy":"412","visit":"WEEK 60 FU","visitnum":"10.0","epoch":"FOLLOW-UP","spec":null,"method":null},{"seq":"41","testcd":"PLAT","test":"Platelets","cat":"HEMATOLOGY","orres":"151.35","orresu":"10^9/L","stresc":"151.35","stresn":"151.35","stresu":"10^9/L","stnrlo":"150","stnrhi":"400","nrind":"NORMAL","fast":null,"dtc":"2025-06-25","dy":"412","visit":"WEEK 60 FU","visitnum":"10.0","epoch":"FOLLOW-UP","spec":null,"method":null},{"seq":"42","testcd":"WBC","test":"Leukocytes","cat":"HEMATOLOGY","orres":"6.23","orresu":"10^9/L","stresc":"6.23","stresn":"6.23","stresu":"10^9/L","stnrlo":"4.0","stnrhi":"11.0","nrind":"NORMAL","fast":null,"dtc":"2025-06-25","dy":"412","visit":"WEEK 60 FU","visitnum":"10.0","epoch":"FOLLOW-UP","spec":null,"method":null}]},"section_9_vital_signs":{"summary":{"total_records":71},"trends":{"BMI":[{"visit":"SCREENING","visitnum":"1.0","dtc":"2024-04-01","value":"24.8","unit":"kg/m2"},{"visit":"WEEK 0 BASELINE","visitnum":"2.0","dtc":"2024-05-10","value":"24.2","unit":"kg/m2"},{"visit":"WEEK 4","visitnum":"3.0","dtc":"2024-06-06","value":"23.6","unit":"kg/m2"},{"visit":"WEEK 8","visitnum":"4.0","dtc":"2024-07-08","value":"24.2","unit":"kg/m2"},{"visit":"WEEK 16","visitnum":"6.0","dtc":"2024-08-25","value":"24.6","unit":"kg/m2"},{"visit":"WEEK 24","visitnum":"7.0","dtc":"2024-10-21","value":"25.0","unit":"kg/m2"},{"visit":"WEEK 40 EOT","visitnum":"9.0","dtc":"2025-02-16","value":"25.0","unit":"kg/m2"},{"visit":"WEEK 60 FU","visitnum":"10.0","dtc":"2025-06-25","value":"24.0","unit":"kg/m2"}],"DIABP":[{"visit":"SCREENING","visitnum":"1.0","dtc":"2024-04-01","value":"68.4","unit":"mmHg"},{"visit":"WEEK 0 BASELINE","visitnum":"2.0","dtc":"2024-05-10","value":"69.2","unit":"mmHg"},{"visit":"WEEK 4","visitnum":"3.0","dtc":"2024-06-06","value":"68.1","unit":"mmHg"},{"visit":"WEEK 8","visitnum":"4.0","dtc":"2024-07-08","value":"68.9","unit":"mmHg"},{"visit":"WEEK 16","visitnum":"6.0","dtc":"2024-08-25","value":"66.1","unit":"mmHg"},{"visit":"WEEK 24","visitnum":"7.0","dtc":"2024-10-21","value":"67.2","unit":"mmHg"},{"visit":"WEEK 36","visitnum":"8.0","dtc":"2025-01-12","value":"68.4","unit":"mmHg"},{"visit":"WEEK 40 EOT","visitnum":"9.0","dtc":"2025-02-16","value":"67.2","unit":"mmHg"},{"visit":"WEEK 60 FU","visitnum":"10.0","dtc":"2025-06-25","value":"66.5","unit":"mmHg"}],"HEIGHT":[{"visit":"SCREENING","visitnum":"1.0","dtc":"2024-04-01","value":"162.6","unit":"cm"},{"visit":"WEEK 0 BASELINE","visitnum":"2.0","dtc":"2024-05-10","value":"162.4","unit":"cm"},{"visit":"WEEK 4","visitnum":"3.0","dtc":"2024-06-06","value":"162.2","unit":"cm"},{"visit":"WEEK 8","visitnum":"4.0","dtc":"2024-07-08","value":"162.6","unit":"cm"},{"visit":"WEEK 16","visitnum":"6.0","dtc":"2024-08-25","value":"162.9","unit":"cm"},{"visit":"WEEK 24","visitnum":"7.0","dtc":"2024-10-21","value":"161.9","unit":"cm"},{"visit":"WEEK 40 EOT","visitnum":"9.0","dtc":"2025-02-16","value":"162.5","unit":"cm"},{"visit":"WEEK 60 FU","visitnum":"10.0","dtc":"2025-06-25","value":"162.5","unit":"cm"}],"PULSE":[{"visit":"SCREENING","visitnum":"1.0","dtc":"2024-04-01","value":"82.0","unit":"beats/min"},{"visit":"WEEK 0 BASELINE","visitnum":"2.0","dtc":"2024-05-10","value":"79.6","unit":"beats/min"},{"visit":"WEEK 4","visitnum":"3.0","dtc":"2024-06-06","value":"81.3","unit":"beats/min"},{"visit":"WEEK 8","visitnum":"4.0","dtc":"2024-07-08","value":"84.7","unit":"beats/min"},{"visit":"WEEK 16","visitnum":"6.0","dtc":"2024-08-25","value":"82.7","unit":"beats/min"},{"visit":"WEEK 24","visitnum":"7.0","dtc":"2024-10-21","value":"83.2","unit":"beats/min"},{"visit":"WEEK 36","visitnum":"8.0","dtc":"2025-01-12","value":"88.3","unit":"beats/min"},{"visit":"WEEK 40 EOT","visitnum":"9.0","dtc":"2025-02-16","value":"87.3","unit":"beats/min"},{"visit":"WEEK 60 FU","visitnum":"10.0","dtc":"2025-06-25","value":"86.3","unit":"beats/min"}],"RESP":[{"visit":"SCREENING","visitnum":"1.0","dtc":"2024-04-01","value":"14.9","unit":"breaths/min"},{"visit":"WEEK 0 BASELINE","visitnum":"2.0","dtc":"2024-05-10","value":"15.0","unit":"breaths/min"},{"visit":"WEEK 4","visitnum":"3.0","dtc":"2024-06-06","value":"13.9","unit":"breaths/min"},{"visit":"WEEK 8","visitnum":"4.0","dtc":"2024-07-08","value":"16.4","unit":"breaths/min"},{"visit":"WEEK 16","visitnum":"6.0","dtc":"2024-08-25","value":"15.6","unit":"breaths/min"},{"visit":"WEEK 24","visitnum":"7.0","dtc":"2024-10-21","value":"15.0","unit":"breaths/min"},{"visit":"WEEK 36","visitnum":"8.0","dtc":"2025-01-12","value":"16.5","unit":"breaths/min"},{"visit":"WEEK 40 EOT","visitnum":"9.0","dtc":"2025-02-16","value":"14.1","unit":"breaths/min"},{"visit":"WEEK 60 FU","visitnum":"10.0","dtc":"2025-06-25","value":"15.9","unit":"breaths/min"}],"SYSBP":[{"visit":"SCREENING","visitnum":"1.0","dtc":"2024-04-01","value":"105.3","unit":"mmHg"},{"visit":"WEEK 0 BASELINE","visitnum":"2.0","dtc":"2024-05-10","value":"106.4","unit":"mmHg"},{"visit":"WEEK 4","visitnum":"3.0","dtc":"2024-06-06","value":"106.1","unit":"mmHg"},{"visit":"WEEK 8","visitnum":"4.0","dtc":"2024-07-08","value":"107.1","unit":"mmHg"},{"visit":"WEEK 16","visitnum":"6.0","dtc":"2024-08-25","value":"104.2","unit":"mmHg"},{"visit":"WEEK 24","visitnum":"7.0","dtc":"2024-10-21","value":"105.2","unit":"mmHg"},{"visit":"WEEK 36","visitnum":"8.0","dtc":"2025-01-12","value":"106.9","unit":"mmHg"},{"visit":"WEEK 40 EOT","visitnum":"9.0","dtc":"2025-02-16","value":"108.6","unit":"mmHg"},{"visit":"WEEK 60 FU","visitnum":"10.0","dtc":"2025-06-25","value":"106.8","unit":"mmHg"}],"TEMP":[{"visit":"SCREENING","visitnum":"1.0","dtc":"2024-04-01","value":"37.4","unit":"C"},{"visit":"WEEK 0 BASELINE","visitnum":"2.0","dtc":"2024-05-10","value":"37.4","unit":"C"},{"visit":"WEEK 4","visitnum":"3.0","dtc":"2024-06-06","value":"37.4","unit":"C"},{"visit":"WEEK 8","visitnum":"4.0","dtc":"2024-07-08","value":"37.5","unit":"C"},{"visit":"WEEK 16","visitnum":"6.0","dtc":"2024-08-25","value":"37.4","unit":"C"},{"visit":"WEEK 24","visitnum":"7.0","dtc":"2024-10-21","value":"37.4","unit":"C"},{"visit":"WEEK 36","visitnum":"8.0","dtc":"2025-01-12","value":"37.3","unit":"C"},{"visit":"WEEK 40 EOT","visitnum":"9.0","dtc":"2025-02-16","value":"37.4","unit":"C"},{"visit":"WEEK 60 FU","visitnum":"10.0","dtc":"2025-06-25","value":"37.4","unit":"C"}],"WEIGHT":[{"visit":"SCREENING","visitnum":"1.0","dtc":"2024-04-01","value":"65.5","unit":"kg"},{"visit":"WEEK 0 BASELINE","visitnum":"2.0","dtc":"2024-05-10","value":"63.8","unit":"kg"},{"visit":"WEEK 4","visitnum":"3.0","dtc":"2024-06-06","value":"62.2","unit":"kg"},{"visit":"WEEK 8","visitnum":"4.0","dtc":"2024-07-08","value":"63.9","unit":"kg"},{"visit":"WEEK 16","visitnum":"6.0","dtc":"2024-08-25","value":"65.4","unit":"kg"},{"visit":"WEEK 24","visitnum":"7.0","dtc":"2024-10-21","value":"65.5","unit":"kg"},{"visit":"WEEK 36","visitnum":"8.0","dtc":"2025-01-12","value":"66.1","unit":"kg"},{"visit":"WEEK 40 EOT","visitnum":"9.0","dtc":"2025-02-16","value":"66.0","unit":"kg"},{"visit":"WEEK 60 FU","visitnum":"10.0","dtc":"2025-06-25","value":"63.4","unit":"kg"}]},"results":[{"seq":"1","testcd":"BMI","test":"BMI","cat":null,"orres":null,"orresu":null,"stresc":"24.8","stresn":"24.8","stresu":"kg/m2","stnrlo":null,"stnrhi":null,"nrind":null,"pos":null,"loc":null,"dtc":"2024-04-01","dy":"-39","visit":"SCREENING","visitnum":"1.0","epoch":"SCREENING"},{"seq":"2","testcd":"DIABP","test":"Diastolic Blood Pressure","cat":null,"orres":"68.4","orresu":"mmHg","stresc":"68.4","stresn":"68.4","stresu":"mmHg","stnrlo":null,"stnrhi":null,"nrind":null,"pos":null,"loc":null,"dtc":"2024-04-01","dy":"-39","visit":"SCREENING","visitnum":"1.0","epoch":"SCREENING"},{"seq":"3","testcd":"HEIGHT","test":"Height","cat":null,"orres":"162.6","orresu":"cm","stresc":"162.6","stresn":"162.6","stresu":"cm","stnrlo":null,"stnrhi":null,"nrind":null,"pos":null,"loc":null,"dtc":"2024-04-01","dy":"-39","visit":"SCREENING","visitnum":"1.0","epoch":"SCREENING"},{"seq":"4","testcd":"PULSE","test":"Pulse Rate","cat":null,"orres":"82.0","orresu":"beats/min","stresc":"82.0","stresn":"82.0","stresu":"beats/min","stnrlo":null,"stnrhi":null,"nrind":null,"pos":null,"loc":null,"dtc":"2024-04-01","dy":"-39","visit":"SCREENING","visitnum":"1.0","epoch":"SCREENING"},{"seq":"5","testcd":"RESP","test":"Respiratory Rate","cat":null,"orres":"14.9","orresu":"breaths/min","stresc":"14.9","stresn":"14.9","stresu":"breaths/min","stnrlo":null,"stnrhi":null,"nrind":null,"pos":null,"loc":null,"dtc":"2024-04-01","dy":"-39","visit":"SCREENING","visitnum":"1.0","epoch":"SCREENING"},{"seq":"6","testcd":"SYSBP","test":"Systolic Blood Pressure","cat":null,"orres":"105.3","orresu":"mmHg","stresc":"105.3","stresn":"105.3","stresu":"mmHg","stnrlo":null,"stnrhi":null,"nrind":null,"pos":null,"loc":null,"dtc":"2024-04-01","dy":"-39","visit":"SCREENING","visitnum":"1.0","epoch":"SCREENING"},{"seq":"7","testcd":"TEMP","test":"Temperature","cat":null,"orres":"37.4","orresu":"C","stresc":"37.4","stresn":"37.4","stresu":"C","stnrlo":null,"stnrhi":null,"nrind":null,"pos":null,"loc":null,"dtc":"2024-04-01","dy":"-39","visit":"SCREENING","visitnum":"1.0","epoch":"SCREENING"},{"seq":"8","testcd":"WEIGHT","test":"Weight","cat":null,"orres":"65.5","orresu":"kg","stresc":"65.5","stresn":"65.5","stresu":"kg","stnrlo":null,"stnrhi":null,"nrind":null,"pos":null,"loc":null,"dtc":"2024-04-01","dy":"-39","visit":"SCREENING","visitnum":"1.0","epoch":"SCREENING"},{"seq":"9","testcd":"BMI","test":"BMI","cat":null,"orres":null,"orresu":null,"stresc":"24.2","stresn":"24.2","stresu":"kg/m2","stnrlo":null,"stnrhi":null,"nrind":null,"pos":null,"loc":null,"dtc":"2024-05-10","dy":"1","visit":"WEEK 0 BASELINE","visitnum":"2.0","epoch":"TREATMENT"},{"seq":"10","testcd":"DIABP","test":"Diastolic Blood Pressure","cat":null,"orres":"69.2","orresu":"mmHg","stresc":"69.2","stresn":"69.2","stresu":"mmHg","stnrlo":null,"stnrhi":null,"nrind":null,"pos":null,"loc":null,"dtc":"2024-05-10","dy":"1","visit":"WEEK 0 BASELINE","visitnum":"2.0","epoch":"TREATMENT"},{"seq":"11","testcd":"HEIGHT","test":"Height","cat":null,"orres":"162.4","orresu":"cm","stresc":"162.4","stresn":"162.4","stresu":"cm","stnrlo":null,"stnrhi":null,"nrind":null,"pos":null,"loc":null,"dtc":"2024-05-10","dy":"1","visit":"WEEK 0 BASELINE","visitnum":"2.0","epoch":"TREATMENT"},{"seq":"12","testcd":"PULSE","test":"Pulse Rate","cat":null,"orres":"79.6","orresu":"beats/min","stresc":"79.6","stresn":"79.6","stresu":"beats/min","stnrlo":null,"stnrhi":null,"nrind":null,"pos":null,"loc":null,"dtc":"2024-05-10","dy":"1","visit":"WEEK 0 BASELINE","visitnum":"2.0","epoch":"TREATMENT"},{"seq":"13","testcd":"RESP","test":"Respiratory Rate","cat":null,"orres":"15.0","orresu":"breaths/min","stresc":"15.0","stresn":"15.0","stresu":"breaths/min","stnrlo":null,"stnrhi":null,"nrind":null,"pos":null,"loc":null,"dtc":"2024-05-10","dy":"1","visit":"WEEK 0 BASELINE","visitnum":"2.0","epoch":"TREATMENT"},{"seq":"14","testcd":"SYSBP","test":"Systolic Blood Pressure","cat":null,"orres":"106.4","orresu":"mmHg","stresc":"106.4","stresn":"106.4","stresu":"mmHg","stnrlo":null,"stnrhi":null,"nrind":null,"pos":null,"loc":null,"dtc":"2024-05-10","dy":"1","visit":"WEEK 0 BASELINE","visitnum":"2.0","epoch":"TREATMENT"},{"seq":"15","testcd":"TEMP","test":"Temperature","cat":null,"orres":"37.4","orresu":"C","stresc":"37.4","stresn":"37.4","stresu":"C","stnrlo":null,"stnrhi":null,"nrind":null,"pos":null,"loc":null,"dtc":"2024-05-10","dy":"1","visit":"WEEK 0 BASELINE","visitnum":"2.0","epoch":"TREATMENT"},{"seq":"16","testcd":"WEIGHT","test":"Weight","cat":null,"orres":"63.8","orresu":"kg","stresc":"63.8","stresn":"63.8","stresu":"kg","stnrlo":null,"stnrhi":null,"nrind":null,"pos":null,"loc":null,"dtc":"2024-05-10","dy":"1","visit":"WEEK 0 BASELINE","visitnum":"2.0","epoch":"TREATMENT"},{"seq":"17","testcd":"BMI","test":"BMI","cat":null,"orres":null,"orresu":null,"stresc":"23.6","stresn":"23.6","stresu":"kg/m2","stnrlo":null,"stnrhi":null,"nrind":null,"pos":null,"loc":null,"dtc":"2024-06-06","dy":"28","visit":"WEEK 4","visitnum":"3.0","epoch":"TREATMENT"},{"seq":"18","testcd":"DIABP","test":"Diastolic Blood Pressure","cat":null,"orres":"68.1","orresu":"mmHg","stresc":"68.1","stresn":"68.1","stresu":"mmHg","stnrlo":null,"stnrhi":null,"nrind":null,"pos":null,"loc":null,"dtc":"2024-06-06","dy":"28","visit":"WEEK 4","visitnum":"3.0","epoch":"TREATMENT"},{"seq":"19","testcd":"HEIGHT","test":"Height","cat":null,"orres":"162.2","orresu":"cm","stresc":"162.2","stresn":"162.2","stresu":"cm","stnrlo":null,"stnrhi":null,"nrind":null,"pos":null,"loc":null,"dtc":"2024-06-06","dy":"28","visit":"WEEK 4","visitnum":"3.0","epoch":"TREATMENT"},{"seq":"20","testcd":"PULSE","test":"Pulse Rate","cat":null,"orres":"81.3","orresu":"beats/min","stresc":"81.3","stresn":"81.3","stresu":"beats/min","stnrlo":null,"stnrhi":null,"nrind":null,"pos":null,"loc":null,"dtc":"2024-06-06","dy":"28","visit":"WEEK 4","visitnum":"3.0","epoch":"TREATMENT"},{"seq":"21","testcd":"RESP","test":"Respiratory Rate","cat":null,"orres":"13.9","orresu":"breaths/min","stresc":"13.9","stresn":"13.9","stresu":"breaths/min","stnrlo":null,"stnrhi":null,"nrind":null,"pos":null,"loc":null,"dtc":"2024-06-06","dy":"28","visit":"WEEK 4","visitnum":"3.0","epoch":"TREATMENT"},{"seq":"22","testcd":"SYSBP","test":"Systolic Blood Pressure","cat":null,"orres":"106.1","orresu":"mmHg","stresc":"106.1","stresn":"106.1","stresu":"mmHg","stnrlo":null,"stnrhi":null,"nrind":null,"pos":null,"loc":null,"dtc":"2024-06-06","dy":"28","visit":"WEEK 4","visitnum":"3.0","epoch":"TREATMENT"},{"seq":"23","testcd":"TEMP","test":"Temperature","cat":null,"orres":"37.4","orresu":"C","stresc":"37.4","stresn":"37.4","stresu":"C","stnrlo":null,"stnrhi":null,"nrind":null,"pos":null,"loc":null,"dtc":"2024-06-06","dy":"28","visit":"WEEK 4","visitnum":"3.0","epoch":"TREATMENT"},{"seq":"24","testcd":"WEIGHT","test":"Weight","cat":null,"orres":"62.2","orresu":"kg","stresc":"62.2","stresn":"62.2","stresu":"kg","stnrlo":null,"stnrhi":null,"nrind":null,"pos":null,"loc":null,"dtc":"2024-06-06","dy":"28","visit":"WEEK 4","visitnum":"3.0","epoch":"TREATMENT"},{"seq":"25","testcd":"BMI","test":"BMI","cat":null,"orres":null,"orresu":null,"stresc":"24.2","stresn":"24.2","stresu":"kg/m2","stnrlo":null,"stnrhi":null,"nrind":null,"pos":null,"loc":null,"dtc":"2024-07-08","dy":"60","visit":"WEEK 8","visitnum":"4.0","epoch":"TREATMENT"},{"seq":"26","testcd":"DIABP","test":"Diastolic Blood Pressure","cat":null,"orres":"68.9","orresu":"mmHg","stresc":"68.9","stresn":"68.9","stresu":"mmHg","stnrlo":null,"stnrhi":null,"nrind":null,"pos":null,"loc":null,"dtc":"2024-07-08","dy":"60","visit":"WEEK 8","visitnum":"4.0","epoch":"TREATMENT"},{"seq":"27","testcd":"HEIGHT","test":"Height","cat":null,"orres":"162.6","orresu":"cm","stresc":"162.6","stresn":"162.6","stresu":"cm","stnrlo":null,"stnrhi":null,"nrind":null,"pos":null,"loc":null,"dtc":"2024-07-08","dy":"60","visit":"WEEK 8","visitnum":"4.0","epoch":"TREATMENT"},{"seq":"28","testcd":"PULSE","test":"Pulse Rate","cat":null,"orres":"84.7","orresu":"beats/min","stresc":"84.7","stresn":"84.7","stresu":"beats/min","stnrlo":null,"stnrhi":null,"nrind":null,"pos":null,"loc":null,"dtc":"2024-07-08","dy":"60","visit":"WEEK 8","visitnum":"4.0","epoch":"TREATMENT"},{"seq":"29","testcd":"RESP","test":"Respiratory Rate","cat":null,"orres":"16.4","orresu":"breaths/min","stresc":"16.4","stresn":"16.4","stresu":"breaths/min","stnrlo":null,"stnrhi":null,"nrind":null,"pos":null,"loc":null,"dtc":"2024-07-08","dy":"60","visit":"WEEK 8","visitnum":"4.0","epoch":"TREATMENT"},{"seq":"30","testcd":"SYSBP","test":"Systolic Blood Pressure","cat":null,"orres":"107.1","orresu":"mmHg","stresc":"107.1","stresn":"107.1","stresu":"mmHg","stnrlo":null,"stnrhi":null,"nrind":null,"pos":null,"loc":null,"dtc":"2024-07-08","dy":"60","visit":"WEEK 8","visitnum":"4.0","epoch":"TREATMENT"},{"seq":"31","testcd":"TEMP","test":"Temperature","cat":null,"orres":"37.5","orresu":"C","stresc":"37.5","stresn":"37.5","stresu":"C","stnrlo":null,"stnrhi":null,"nrind":null,"pos":null,"loc":null,"dtc":"2024-07-08","dy":"60","visit":"WEEK 8","visitnum":"4.0","epoch":"TREATMENT"},{"seq":"32","testcd":"WEIGHT","test":"Weight","cat":null,"orres":"63.9","orresu":"kg","stresc":"63.9","stresn":"63.9","stresu":"kg","stnrlo":null,"stnrhi":null,"nrind":null,"pos":null,"loc":null,"dtc":"2024-07-08","dy":"60","visit":"WEEK 8","visitnum":"4.0","epoch":"TREATMENT"},{"seq":"33","testcd":"BMI","test":"BMI","cat":null,"orres":null,"orresu":null,"stresc":"24.6","stresn":"24.6","stresu":"kg/m2","stnrlo":null,"stnrhi":null,"nrind":null,"pos":null,"loc":null,"dtc":"2024-08-25","dy":"108","visit":"WEEK 16","visitnum":"6.0","epoch":"TREATMENT"},{"seq":"34","testcd":"DIABP","test":"Diastolic Blood Pressure","cat":null,"orres":"66.1","orresu":"mmHg","stresc":"66.1","stresn":"66.1","stresu":"mmHg","stnrlo":null,"stnrhi":null,"nrind":null,"pos":null,"loc":null,"dtc":"2024-08-25","dy":"108","visit":"WEEK 16","visitnum":"6.0","epoch":"TREATMENT"},{"seq":"35","testcd":"HEIGHT","test":"Height","cat":null,"orres":"162.9","orresu":"cm","stresc":"162.9","stresn":"162.9","stresu":"cm","stnrlo":null,"stnrhi":null,"nrind":null,"pos":null,"loc":null,"dtc":"2024-08-25","dy":"108","visit":"WEEK 16","visitnum":"6.0","epoch":"TREATMENT"},{"seq":"36","testcd":"PULSE","test":"Pulse Rate","cat":null,"orres":"82.7","orresu":"beats/min","stresc":"82.7","stresn":"82.7","stresu":"beats/min","stnrlo":null,"stnrhi":null,"nrind":null,"pos":null,"loc":null,"dtc":"2024-08-25","dy":"108","visit":"WEEK 16","visitnum":"6.0","epoch":"TREATMENT"},{"seq":"37","testcd":"RESP","test":"Respiratory Rate","cat":null,"orres":"15.6","orresu":"breaths/min","stresc":"15.6","stresn":"15.6","stresu":"breaths/min","stnrlo":null,"stnrhi":null,"nrind":null,"pos":null,"loc":null,"dtc":"2024-08-25","dy":"108","visit":"WEEK 16","visitnum":"6.0","epoch":"TREATMENT"},{"seq":"38","testcd":"SYSBP","test":"Systolic Blood Pressure","cat":null,"orres":"104.2","orresu":"mmHg","stresc":"104.2","stresn":"104.2","stresu":"mmHg","stnrlo":null,"stnrhi":null,"nrind":null,"pos":null,"loc":null,"dtc":"2024-08-25","dy":"108","visit":"WEEK 16","visitnum":"6.0","epoch":"TREATMENT"},{"seq":"39","testcd":"TEMP","test":"Temperature","cat":null,"orres":"37.4","orresu":"C","stresc":"37.4","stresn":"37.4","stresu":"C","stnrlo":null,"stnrhi":null,"nrind":null,"pos":null,"loc":null,"dtc":"2024-08-25","dy":"108","visit":"WEEK 16","visitnum":"6.0","epoch":"TREATMENT"},{"seq":"40","testcd":"WEIGHT","test":"Weight","cat":null,"orres":"65.4","orresu":"kg","stresc":"65.4","stresn":"65.4","stresu":"kg","stnrlo":null,"stnrhi":null,"nrind":null,"pos":null,"loc":null,"dtc":"2024-08-25","dy":"108","visit":"WEEK 16","visitnum":"6.0","epoch":"TREATMENT"},{"seq":"41","testcd":"BMI","test":"BMI","cat":null,"orres":null,"orresu":null,"stresc":"25.0","stresn":"25.0","stresu":"kg/m2","stnrlo":null,"stnrhi":null,"nrind":null,"pos":null,"loc":null,"dtc":"2024-10-21","dy":"165","visit":"WEEK 24","visitnum":"7.0","epoch":"TREATMENT"},{"seq":"42","testcd":"DIABP","test":"Diastolic Blood Pressure","cat":null,"orres":"67.2","orresu":"mmHg","stresc":"67.2","stresn":"67.2","stresu":"mmHg","stnrlo":null,"stnrhi":null,"nrind":null,"pos":null,"loc":null,"dtc":"2024-10-21","dy":"165","visit":"WEEK 24","visitnum":"7.0","epoch":"TREATMENT"},{"seq":"43","testcd":"HEIGHT","test":"Height","cat":null,"orres":"161.9","orresu":"cm","stresc":"161.9","stresn":"161.9","stresu":"cm","stnrlo":null,"stnrhi":null,"nrind":null,"pos":null,"loc":null,"dtc":"2024-10-21","dy":"165","visit":"WEEK 24","visitnum":"7.0","epoch":"TREATMENT"},{"seq":"44","testcd":"PULSE","test":"Pulse Rate","cat":null,"orres":"83.2","orresu":"beats/min","stresc":"83.2","stresn":"83.2","stresu":"beats/min","stnrlo":null,"stnrhi":null,"nrind":null,"pos":null,"loc":null,"dtc":"2024-10-21","dy":"165","visit":"WEEK 24","visitnum":"7.0","epoch":"TREATMENT"},{"seq":"45","testcd":"RESP","test":"Respiratory Rate","cat":null,"orres":"15.0","orresu":"breaths/min","stresc":"15.0","stresn":"15.0","stresu":"breaths/min","stnrlo":null,"stnrhi":null,"nrind":null,"pos":null,"loc":null,"dtc":"2024-10-21","dy":"165","visit":"WEEK 24","visitnum":"7.0","epoch":"TREATMENT"},{"seq":"46","testcd":"SYSBP","test":"Systolic Blood Pressure","cat":null,"orres":"105.2","orresu":"mmHg","stresc":"105.2","stresn":"105.2","stresu":"mmHg","stnrlo":null,"stnrhi":null,"nrind":null,"pos":null,"loc":null,"dtc":"2024-10-21","dy":"165","visit":"WEEK 24","visitnum":"7.0","epoch":"TREATMENT"},{"seq":"47","testcd":"TEMP","test":"Temperature","cat":null,"orres":"37.4","orresu":"C","stresc":"37.4","stresn":"37.4","stresu":"C","stnrlo":null,"stnrhi":null,"nrind":null,"pos":null,"loc":null,"dtc":"2024-10-21","dy":"165","visit":"WEEK 24","visitnum":"7.0","epoch":"TREATMENT"},{"seq":"48","testcd":"WEIGHT","test":"Weight","cat":null,"orres":"65.5","orresu":"kg","stresc":"65.5","stresn":"65.5","stresu":"kg","stnrlo":null,"stnrhi":null,"nrind":null,"pos":null,"loc":null,"dtc":"2024-10-21","dy":"165","visit":"WEEK 24","visitnum":"7.0","epoch":"TREATMENT"},{"seq":"49","testcd":"DIABP","test":"Diastolic Blood Pressure","cat":null,"orres":"68.4","orresu":"mmHg","stresc":"68.4","stresn":"68.4","stresu":"mmHg","stnrlo":null,"stnrhi":null,"nrind":null,"pos":null,"loc":null,"dtc":"2025-01-12","dy":"248","visit":"WEEK 36","visitnum":"8.0","epoch":"TREATMENT"},{"seq":"50","testcd":"HEIGHT","test":"Height","cat":null,"orres":null,"orresu":null,"stresc":null,"stresn":null,"stresu":null,"stnrlo":null,"stnrhi":null,"nrind":null,"pos":null,"loc":null,"dtc":"2025-01-12","dy":"248","visit":"WEEK 36","visitnum":"8.0","epoch":"TREATMENT"},{"seq":"51","testcd":"PULSE","test":"Pulse Rate","cat":null,"orres":"88.3","orresu":"beats/min","stresc":"88.3","stresn":"88.3","stresu":"beats/min","stnrlo":null,"stnrhi":null,"nrind":null,"pos":null,"loc":null,"dtc":"2025-01-12","dy":"248","visit":"WEEK 36","visitnum":"8.0","epoch":"TREATMENT"},{"seq":"52","testcd":"RESP","test":"Respiratory Rate","cat":null,"orres":"16.5","orresu":"breaths/min","stresc":"16.5","stresn":"16.5","stresu":"breaths/min","stnrlo":null,"stnrhi":null,"nrind":null,"pos":null,"loc":null,"dtc":"2025-01-12","dy":"248","visit":"WEEK 36","visitnum":"8.0","epoch":"TREATMENT"},{"seq":"53","testcd":"SYSBP","test":"Systolic Blood Pressure","cat":null,"orres":"106.9","orresu":"mmHg","stresc":"106.9","stresn":"106.9","stresu":"mmHg","stnrlo":null,"stnrhi":null,"nrind":null,"pos":null,"loc":null,"dtc":"2025-01-12","dy":"248","visit":"WEEK 36","visitnum":"8.0","epoch":"TREATMENT"},{"seq":"54","testcd":"TEMP","test":"Temperature","cat":null,"orres":"37.3","orresu":"C","stresc":"37.3","stresn":"37.3","stresu":"C","stnrlo":null,"stnrhi":null,"nrind":null,"pos":null,"loc":null,"dtc":"2025-01-12","dy":"248","visit":"WEEK 36","visitnum":"8.0","epoch":"TREATMENT"},{"seq":"55","testcd":"WEIGHT","test":"Weight","cat":null,"orres":"66.1","orresu":"kg","stresc":"66.1","stresn":"66.1","stresu":"kg","stnrlo":null,"stnrhi":null,"nrind":null,"pos":null,"loc":null,"dtc":"2025-01-12","dy":"248","visit":"WEEK 36","visitnum":"8.0","epoch":"TREATMENT"},{"seq":"56","testcd":"BMI","test":"BMI","cat":null,"orres":null,"orresu":null,"stresc":"25.0","stresn":"25.0","stresu":"kg/m2","stnrlo":null,"stnrhi":null,"nrind":null,"pos":null,"loc":null,"dtc":"2025-02-16","dy":"283","visit":"WEEK 40 EOT","visitnum":"9.0","epoch":"TREATMENT"},{"seq":"57","testcd":"DIABP","test":"Diastolic Blood Pressure","cat":null,"orres":"67.2","orresu":"mmHg","stresc":"67.2","stresn":"67.2","stresu":"mmHg","stnrlo":null,"stnrhi":null,"nrind":null,"pos":null,"loc":null,"dtc":"2025-02-16","dy":"283","visit":"WEEK 40 EOT","visitnum":"9.0","epoch":"TREATMENT"},{"seq":"58","testcd":"HEIGHT","test":"Height","cat":null,"orres":"162.5","orresu":"cm","stresc":"162.5","stresn":"162.5","stresu":"cm","stnrlo":null,"stnrhi":null,"nrind":null,"pos":null,"loc":null,"dtc":"2025-02-16","dy":"283","visit":"WEEK 40 EOT","visitnum":"9.0","epoch":"TREATMENT"},{"seq":"59","testcd":"PULSE","test":"Pulse Rate","cat":null,"orres":"87.3","orresu":"beats/min","stresc":"87.3","stresn":"87.3","stresu":"beats/min","stnrlo":null,"stnrhi":null,"nrind":null,"pos":null,"loc":null,"dtc":"2025-02-16","dy":"283","visit":"WEEK 40 EOT","visitnum":"9.0","epoch":"TREATMENT"},{"seq":"60","testcd":"RESP","test":"Respiratory Rate","cat":null,"orres":"14.1","orresu":"breaths/min","stresc":"14.1","stresn":"14.1","stresu":"breaths/min","stnrlo":null,"stnrhi":null,"nrind":null,"pos":null,"loc":null,"dtc":"2025-02-16","dy":"283","visit":"WEEK 40 EOT","visitnum":"9.0","epoch":"TREATMENT"},{"seq":"61","testcd":"SYSBP","test":"Systolic Blood Pressure","cat":null,"orres":"108.6","orresu":"mmHg","stresc":"108.6","stresn":"108.6","stresu":"mmHg","stnrlo":null,"stnrhi":null,"nrind":null,"pos":null,"loc":null,"dtc":"2025-02-16","dy":"283","visit":"WEEK 40 EOT","visitnum":"9.0","epoch":"TREATMENT"},{"seq":"62","testcd":"TEMP","test":"Temperature","cat":null,"orres":"37.4","orresu":"C","stresc":"37.4","stresn":"37.4","stresu":"C","stnrlo":null,"stnrhi":null,"nrind":null,"pos":null,"loc":null,"dtc":"2025-02-16","dy":"283","visit":"WEEK 40 EOT","visitnum":"9.0","epoch":"TREATMENT"},{"seq":"63","testcd":"WEIGHT","test":"Weight","cat":null,"orres":"66.0","orresu":"kg","stresc":"66.0","stresn":"66.0","stresu":"kg","stnrlo":null,"stnrhi":null,"nrind":null,"pos":null,"loc":null,"dtc":"2025-02-16","dy":"283","visit":"WEEK 40 EOT","visitnum":"9.0","epoch":"TREATMENT"},{"seq":"64","testcd":"BMI","test":"BMI","cat":null,"orres":null,"orresu":null,"stresc":"24.0","stresn":"24.0","stresu":"kg/m2","stnrlo":null,"stnrhi":null,"nrind":null,"pos":null,"loc":null,"dtc":"2025-06-25","dy":"412","visit":"WEEK 60 FU","visitnum":"10.0","epoch":"FOLLOW-UP"},{"seq":"65","testcd":"DIABP","test":"Diastolic Blood Pressure","cat":null,"orres":"66.5","orresu":"mmHg","stresc":"66.5","stresn":"66.5","stresu":"mmHg","stnrlo":null,"stnrhi":null,"nrind":null,"pos":null,"loc":null,"dtc":"2025-06-25","dy":"412","visit":"WEEK 60 FU","visitnum":"10.0","epoch":"FOLLOW-UP"},{"seq":"66","testcd":"HEIGHT","test":"Height","cat":null,"orres":"162.5","orresu":"cm","stresc":"162.5","stresn":"162.5","stresu":"cm","stnrlo":null,"stnrhi":null,"nrind":null,"pos":null,"loc":null,"dtc":"2025-06-25","dy":"412","visit":"WEEK 60 FU","visitnum":"10.0","epoch":"FOLLOW-UP"},{"seq":"67","testcd":"PULSE","test":"Pulse Rate","cat":null,"orres":"86.3","orresu":"beats/min","stresc":"86.3","stresn":"86.3","stresu":"beats/min","stnrlo":null,"stnrhi":null,"nrind":null,"pos":null,"loc":null,"dtc":"2025-06-25","dy":"412","visit":"WEEK 60 FU","visitnum":"10.0","epoch":"FOLLOW-UP"},{"seq":"68","testcd":"RESP","test":"Respiratory Rate","cat":null,"orres":"15.9","orresu":"breaths/min","stresc":"15.9","stresn":"15.9","stresu":"breaths/min","stnrlo":null,"stnrhi":null,"nrind":null,"pos":null,"loc":null,"dtc":"2025-06-25","dy":"412","visit":"WEEK 60 FU","visitnum":"10.0","epoch":"FOLLOW-UP"},{"seq":"69","testcd":"SYSBP","test":"Systolic Blood Pressure","cat":null,"orres":"106.8","orresu":"mmHg","stresc":"106.8","stresn":"106.8","stresu":"mmHg","stnrlo":null,"stnrhi":null,"nrind":null,"pos":null,"loc":null,"dtc":"2025-06-25","dy":"412","visit":"WEEK 60 FU","visitnum":"10.0","epoch":"FOLLOW-UP"},{"seq":"70","testcd":"TEMP","test":"Temperature","cat":null,"orres":"37.4","orresu":"C","stresc":"37.4","stresn":"37.4","stresu":"C","stnrlo":null,"stnrhi":null,"nrind":null,"pos":null,"loc":null,"dtc":"2025-06-25","dy":"412","visit":"WEEK 60 FU","visitnum":"10.0","epoch":"FOLLOW-UP"},{"seq":"71","testcd":"WEIGHT","test":"Weight","cat":null,"orres":"63.4","orresu":"kg","stresc":"63.4","stresn":"63.4","stresu":"kg","stnrlo":null,"stnrhi":null,"nrind":null,"pos":null,"loc":null,"dtc":"2025-06-25","dy":"412","visit":"WEEK 60 FU","visitnum":"10.0","epoch":"FOLLOW-UP"}]},"section_10_questionnaires_and_scores":{"questionnaires":[],"findings_about":[]},"section_11_protocol_deviations":{"deviations":[{"seq":"1","term":"Dose modified from 75.0 to 150.0 mg","decod":"DOSE MODIFICATION","cat":"MINOR","scat":"DOSING","start_dtc":"2024-05-10","end_dtc":null,"visit":null},{"seq":"2","term":"Dose modified from 75.0 to 150.0 mg","decod":"DOSE MODIFICATION","cat":"MINOR","scat":"DOSING","start_dtc":"2024-06-07","end_dtc":null,"visit":null},{"seq":"3","term":"Dose modified from 75.0 to 150.0 mg","decod":"DOSE MODIFICATION","cat":"MINOR","scat":"DOSING","start_dtc":"2024-11-22","end_dtc":null,"visit":null},{"seq":"4","term":"Visit WEEK 36 occurred 5 days early (Day 248 vs planned Day 253)","decod":"VISIT OCCURRED OUTSIDE VISIT WINDOW","cat":"MINOR","scat":"VISIT WINDOW","start_dtc":"2025-01-12","end_dtc":null,"visit":null},{"seq":"5","term":"Visit WEEK 40 EOT occurred 2 days late (Day 283 vs planned Day 281)","decod":"VISIT OCCURRED OUTSIDE VISIT WINDOW","cat":"MINOR","scat":"VISIT WINDOW","start_dtc":"2025-02-16","end_dtc":null,"visit":null},{"seq":"6","term":"Visit WEEK 60 FU occurred 9 days early (Day 412 vs planned Day 421)","decod":"VISIT OCCURRED OUTSIDE VISIT WINDOW","cat":"MINOR","scat":"VISIT WINDOW","start_dtc":"2025-06-25","end_dtc":null,"visit":null}],"total":6},"section_12_disposition":{"completion_status":"COMPLETED","disposition_records":[{"seq":"1","term":"INFORMED CONSENT OBTAINED","decod":"INFORMED CONSENT OBTAINED","cat":"PROTOCOL MILESTONE","scat":null,"dtc":"2024-04-11","dy":null,"visit":null,"epoch":"SCREENING"},{"seq":"2","term":"RANDOMIZED","decod":"RANDOMIZED","cat":"PROTOCOL MILESTONE","scat":null,"dtc":"2024-05-10","dy":null,"visit":null,"epoch":"TREATMENT"},{"seq":"3","term":"COMPLETED","decod":"COMPLETED","cat":"DISPOSITION EVENT","scat":null,"dtc":"2025-08-07","dy":null,"visit":null,"epoch":"FOLLOW-UP"}],"death":null},"section_13_hospitalizations":{"items":[],"total":0},"section_14_substance_use":{"items":[{"seq":"1","substance":"BEER/WINE/SPIRITS","decod":"ETHANOL","cat":"ALCOHOL","scat":null,"usage":"Y","dose":"2.0","dosu":"DRINKS/WEEK","freq":"QW","start_dtc":"2002-04-17","end_dtc":null},{"seq":"2","substance":"COFFEE","decod":"COFFEE","cat":"CAFFEINE","scat":null,"usage":"Y","dose":"2.0","dosu":"CUPS/DAY","freq":"QD","start_dtc":"2014-04-14","end_dtc":null},{"seq":"3","substance":"CIGARETTES","decod":"CIGARETTES","cat":"TOBACCO","scat":null,"usage":"Y","dose":"9.0","dosu":"CIGARETTES/DAY","freq":"QD","start_dtc":"2012-04-14","end_dtc":null}],"total":3},"section_15_subject_status":{"items":[{"seq":"1","testcd":"SURVSTAT","test":"Survival Status","orres":"ALIVE","stresc":"ALIVE","dtc":"2025-08-07","visit":null,"epoch":"FOLLOW-UP"}],"total":1}}