{"subject_id":"M19-977-RISA-PED-FRA_SITE01-0003","study_id":"M19-977-RISA-PED","generated_at":"2026-07-07T06:10:44.561908+00:00","sdtmig_version":"3.4","flags":{"has_serious_ae":false,"has_fatal_ae":false,"has_protocol_deviation":true,"n_protocol_deviations":4,"n_adverse_events":13,"n_concomitant_meds":5,"max_ae_severity":"MODERATE","screen_failure":false,"discontinued_early":false,"discontinuation_reason":null,"death":false,"exposure_days":196},"timeline":[{"dtc":"2015-02-24","dy":"-3312","event":"CM START: IBUPROFEN","domain":"CM","category":"concomitant_med"},{"dtc":"2024-02-08","dy":"-41","event":"VISIT: SCREENING","domain":"SV","category":"visit"},{"dtc":"2024-02-22","dy":"-27","event":"INFORMED CONSENT OBTAINED","domain":"DS","category":"milestone"},{"dtc":"2024-03-20","dy":"1","event":"RANDOMIZED","domain":"DS","category":"milestone"},{"dtc":"2024-03-20","dy":"1","event":"FIRST DOSE: USTEKINUMAB","domain":"EX","category":"exposure"},{"dtc":"2024-03-20","dy":"1","event":"VISIT: WEEK 0 BASELINE","domain":"SV","category":"visit"},{"dtc":"2024-03-31","dy":"12","event":"AE: Nausea (MODERATE)","domain":"AE","category":"adverse_event"},{"dtc":"2024-04-07","dy":"19","event":"AE: Injection site reaction (MODERATE)","domain":"AE","category":"adverse_event"},{"dtc":"2024-04-07","dy":"19","event":"CM START: HYDROCORTISONE CREAM","domain":"CM","category":"concomitant_med"},{"dtc":"2024-04-14","dy":"26","event":"VISIT: WEEK 4","domain":"SV","category":"visit"},{"dtc":"2024-05-12","dy":"54","event":"DEVIATION: VISIT OCCURRED OUTSIDE VISIT WINDOW","domain":"DV","category":"deviation"},{"dtc":"2024-05-12","dy":"54","event":"VISIT: WEEK 8","domain":"SV","category":"visit"},{"dtc":"2024-05-24","dy":"66","event":"AE: Upper respiratory tract infection (MILD)","domain":"AE","category":"adverse_event"},{"dtc":"2024-05-24","dy":"66","event":"CM START: AMOXICILLIN","domain":"CM","category":"concomitant_med"},{"dtc":"2024-05-31","dy":"73","event":"AE: Injection site reaction (MILD)","domain":"AE","category":"adverse_event"},{"dtc":"2024-06-03","dy":"76","event":"AE: Headache (MILD)","domain":"AE","category":"adverse_event"},{"dtc":"2024-06-09","dy":"82","event":"DEVIATION: VISIT OCCURRED OUTSIDE VISIT WINDOW","domain":"DV","category":"deviation"},{"dtc":"2024-06-09","dy":"82","event":"VISIT: WEEK 12","domain":"SV","category":"visit"},{"dtc":"2024-06-27","dy":"100","event":"AE: Headache (MILD)","domain":"AE","category":"adverse_event"},{"dtc":"2024-07-04","dy":"107","event":"AE: Fatigue (MODERATE)","domain":"AE","category":"adverse_event"},{"dtc":"2024-07-08","dy":"111","event":"VISIT: WEEK 16","domain":"SV","category":"visit"},{"dtc":"2024-07-26","dy":"129","event":"AE: Nasopharyngitis (MODERATE)","domain":"AE","category":"adverse_event"},{"dtc":"2024-08-03","dy":"137","event":"AE: Herpes simplex (MODERATE)","domain":"AE","category":"adverse_event"},{"dtc":"2024-08-03","dy":"137","event":"CM START: ACICLOVIR","domain":"CM","category":"concomitant_med"},{"dtc":"2024-09-01","dy":"166","event":"VISIT: WEEK 24","domain":"SV","category":"visit"},{"dtc":"2024-09-22","dy":"187","event":"AE: Upper respiratory tract infection (MODERATE)","domain":"AE","category":"adverse_event"},{"dtc":"2024-09-22","dy":"187","event":"CM START: PARACETAMOL","domain":"CM","category":"concomitant_med"},{"dtc":"2024-10-01","dy":"196","event":"AE: Nausea (MILD)","domain":"AE","category":"adverse_event"},{"dtc":"2024-10-02","dy":"197","event":"LAST DOSE: USTEKINUMAB","domain":"EX","category":"exposure"},{"dtc":"2024-10-29","dy":"224","event":"AE: Injection site reaction (MODERATE)","domain":"AE","category":"adverse_event"},{"dtc":"2024-11-29","dy":"255","event":"AE: Injection site reaction (MILD)","domain":"AE","category":"adverse_event"},{"dtc":"2024-11-29","dy":"255","event":"VISIT: WEEK 36","domain":"SV","category":"visit"},{"dtc":"2024-12-26","dy":"282","event":"DEVIATION: VISIT OCCURRED OUTSIDE VISIT WINDOW","domain":"DV","category":"deviation"},{"dtc":"2024-12-26","dy":"282","event":"VISIT: WEEK 40 EOT","domain":"SV","category":"visit"},{"dtc":"2025-05-08","dy":"415","event":"DEVIATION: VISIT OCCURRED OUTSIDE VISIT WINDOW","domain":"DV","category":"deviation"},{"dtc":"2025-05-08","dy":"415","event":"VISIT: WEEK 60 FU","domain":"SV","category":"visit"},{"dtc":"2025-06-17","dy":"455","event":"COMPLETED","domain":"DS","category":"milestone"}],"section_1_demographics":{"usubjid":"M19-977-RISA-PED-FRA_SITE01-0003","subjid":"0003","siteid":"FRA_SITE01","age":"10","ageu":"YEARS","sex":"F","race":"WHITE","ethnicity":"NOT HISPANIC OR LATINO","country":"FRA","arm":"Ustekinumab SC (45 mg simplified; actual is weight-banded)","armcd":"USTE","actarm":"Ustekinumab SC (45 mg simplified; actual is weight-banded)","actarmcd":"USTE","randomization_date":null,"informed_consent_date":"2024-02-22","reference_start_date":"2024-03-20","reference_end_date":"2025-06-17","screen_failure":false,"death_flag":null,"death_date":null,"subject_characteristics":[{"testcd":"ALCUSE","test":"Alcohol Use","orres":"NON-DRINKER","stresc":"NON-DRINKER","visit":null,"dtc":"2024-02-22"},{"testcd":"BMI","test":"Body Mass Index","orres":"21.6","stresc":"21.6","visit":null,"dtc":"2024-02-22"},{"testcd":"DURDIS","test":"Duration of Disease","orres":"121 months","stresc":"121","visit":null,"dtc":"2024-02-22"},{"testcd":"TOBPKYR","test":"Tobacco Pack-Years","orres":"33","stresc":"33","visit":null,"dtc":"2024-02-22"},{"testcd":"TOBUSE","test":"Tobacco Use","orres":"FORMER SMOKER","stresc":"FORMER SMOKER","visit":null,"dtc":"2024-02-22"}]},"section_2_medical_history":{"items":[{"seq":"1","term":"PSORIASIS","decod":"PSORIASIS","cat":"DERMATOLOGICAL","scat":null,"presp":null,"occur":null,"status":null,"onset_dtc":"2014-02","end_dtc":null,"visit":null},{"seq":"2","term":"PSORIATIC ARTHRITIS","decod":"PSORIATIC ARTHRITIS","cat":"MUSCULOSKELETAL","scat":null,"presp":null,"occur":null,"status":null,"onset_dtc":"2015-02-24","end_dtc":null,"visit":null}]},"section_3_inclusion_exclusion":{"criteria":[]},"section_4_trial_participation":{"visits":[{"visitnum":"1.0","visit":"SCREENING","start_dtc":"2024-02-08","end_dtc":"2024-02-08","updes":null},{"visitnum":"2.0","visit":"WEEK 0 BASELINE","start_dtc":"2024-03-20","end_dtc":"2024-03-20","updes":null},{"visitnum":"3.0","visit":"WEEK 4","start_dtc":"2024-04-14","end_dtc":"2024-04-14","updes":null},{"visitnum":"4.0","visit":"WEEK 8","start_dtc":"2024-05-12","end_dtc":"2024-05-12","updes":null},{"visitnum":"5.0","visit":"WEEK 12","start_dtc":"2024-06-09","end_dtc":"2024-06-09","updes":null},{"visitnum":"6.0","visit":"WEEK 16","start_dtc":"2024-07-08","end_dtc":"2024-07-08","updes":null},{"visitnum":"7.0","visit":"WEEK 24","start_dtc":"2024-09-01","end_dtc":"2024-09-01","updes":null},{"visitnum":"8.0","visit":"WEEK 36","start_dtc":"2024-11-29","end_dtc":"2024-11-29","updes":null},{"visitnum":"9.0","visit":"WEEK 40 EOT","start_dtc":"2024-12-26","end_dtc":"2024-12-26","updes":null},{"visitnum":"10.0","visit":"WEEK 60 FU","start_dtc":"2025-05-08","end_dtc":"2025-05-08","updes":null}],"epochs":[{"seq":"1","etcd":"SCRN","element":"Screening","start_dtc":"2024-02-14","end_dtc":"2024-03-20","updes":null},{"seq":"2","etcd":"TRT","element":"Treatment (initial)","start_dtc":"2024-03-20","end_dtc":"2024-12-25","updes":null},{"seq":"3","etcd":"FU","element":"Safety follow-up","start_dtc":"2024-12-25","end_dtc":"2025-05-13","updes":null}],"visit_count":10},"section_5_concomitant_medications":{"medications":[{"seq":"1","trt":"IBUPROFEN","decod":"IBUPROFEN","cat":"PRIOR","dose":"400.0","doseu":null,"dosef":"TID","route":"ORAL","indication":"PSORIATIC ARTHRITIS","start_dtc":"2015-02-24","end_dtc":"2025-06-17","ongoing":null,"visit":null},{"seq":"2","trt":"HYDROCORTISONE CREAM","decod":"HYDROCORTISONE CREAM","cat":"CONCOMITANT","dose":"1","doseu":null,"dosef":"BID","route":"TOPICAL","indication":"INJECTION SITE REACTION","start_dtc":"2024-04-07","end_dtc":"2024-04-18","ongoing":null,"visit":null},{"seq":"3","trt":"AMOXICILLIN","decod":"AMOXICILLIN","cat":"CONCOMITANT","dose":"500","doseu":null,"dosef":"TID","route":"ORAL","indication":"UPPER RESPIRATORY TRACT INFECTION","start_dtc":"2024-05-24","end_dtc":"2024-06-18","ongoing":null,"visit":null},{"seq":"4","trt":"ACICLOVIR","decod":"ACICLOVIR","cat":"CONCOMITANT","dose":"400.0","doseu":null,"dosef":"TID","route":"ORAL","indication":"HERPES SIMPLEX","start_dtc":"2024-08-03","end_dtc":"2024-08-06","ongoing":null,"visit":null},{"seq":"5","trt":"PARACETAMOL","decod":"PARACETAMOL","cat":"CONCOMITANT","dose":"500","doseu":null,"dosef":"PRN","route":"ORAL","indication":"UPPER RESPIRATORY TRACT INFECTION","start_dtc":"2024-09-22","end_dtc":"2024-10-22","ongoing":null,"visit":null}]},"section_6_exposure":{"exposure_as_administered":[{"seq":"1","trt":"USTEKINUMAB","dose":"45.0","doseu":null,"dosef":"ONCE","route":"SUBCUTANEOUS","lot":null,"start_dtc":"2024-03-20","end_dtc":"2024-03-20","start_dy":"1","end_dy":"1","epoch":"TREATMENT","visit":null},{"seq":"2","trt":"USTEKINUMAB","dose":"45.0","doseu":null,"dosef":"ONCE","route":"SUBCUTANEOUS","lot":null,"start_dtc":"2024-04-17","end_dtc":"2024-04-17","start_dy":"29","end_dy":"29","epoch":"TREATMENT","visit":null},{"seq":"3","trt":"USTEKINUMAB","dose":"45.0","doseu":null,"dosef":"Q12W","route":"SUBCUTANEOUS","lot":null,"start_dtc":"2024-07-10","end_dtc":"2024-07-10","start_dy":"113","end_dy":"113","epoch":"TREATMENT","visit":null},{"seq":"4","trt":"USTEKINUMAB","dose":"45.0","doseu":null,"dosef":"Q12W","route":"SUBCUTANEOUS","lot":null,"start_dtc":"2024-10-02","end_dtc":"2024-10-02","start_dy":"197","end_dy":"197","epoch":"TREATMENT","visit":null}],"exposure_as_collected":[{"seq":"1","trt":"USTEKINUMAB","dose":"45.0","doseu":null,"dosef":"ONCE","route":"SUBCUTANEOUS","start_dtc":"2024-03-20","end_dtc":"2024-03-20","visit":"WEEK 0 BASELINE"},{"seq":"2","trt":"USTEKINUMAB","dose":"45.0","doseu":null,"dosef":"ONCE","route":"SUBCUTANEOUS","start_dtc":"2024-04-17","end_dtc":"2024-04-17","visit":"WEEK 4"},{"seq":"3","trt":"USTEKINUMAB","dose":"45.0","doseu":null,"dosef":"Q12W","route":"SUBCUTANEOUS","start_dtc":"2024-07-10","end_dtc":"2024-07-10","visit":"WEEK 16"},{"seq":"4","trt":"USTEKINUMAB","dose":"45.0","doseu":null,"dosef":"Q12W","route":"SUBCUTANEOUS","start_dtc":"2024-10-02","end_dtc":"2024-10-02","visit":null}]},"section_7_adverse_events":{"summary":{"total_aes":13,"serious_aes":0,"fatal_aes":0,"by_severity":{"MODERATE":7,"MILD":6},"by_soc":{"Gastrointestinal disorders":2,"General disorders and administration site conditions":5,"Infections and infestations":4,"Nervous system disorders":2}},"events":[{"seq":"1","term":"NAUSEA","decod":"Nausea","llt":"Nausea","hlt":"Nausea and vomiting symptoms","hlgt":"Gastrointestinal signs and symptoms","soc":"Gastrointestinal disorders","bodsys":"Gastrointestinal disorders","severity":"MODERATE","serious":"N","causality":"NOT RELATED","action_taken":"DOSE NOT CHANGED","outcome":"RECOVERED/RESOLVED","fatal":"N","hospitalization":"N","life_threatening":"N","onset_dtc":"2024-03-31","end_dtc":"2024-04-02","onset_dy":"12","end_dy":"14","duration":null,"epoch":"TREATMENT","visit":null,"supplemental":{"AETRTEM":"Y"}},{"seq":"2","term":"INJECTION SITE REACTION","decod":"Injection site reaction","llt":"Injection site reaction","hlt":"Injection site reactions","hlgt":"Administration site reactions","soc":"General disorders and administration site conditions","bodsys":"General disorders and administration site conditions","severity":"MODERATE","serious":"N","causality":"NOT RELATED","action_taken":"DOSE NOT CHANGED","outcome":"RECOVERED/RESOLVED","fatal":"N","hospitalization":"N","life_threatening":"N","onset_dtc":"2024-04-07","end_dtc":"2024-04-19","onset_dy":"19","end_dy":"31","duration":null,"epoch":"TREATMENT","visit":null,"supplemental":{"AETRTEM":"Y"}},{"seq":"3","term":"UPPER RESPIRATORY TRACT INFECTION","decod":"Upper respiratory tract infection","llt":"Upper respiratory tract infection","hlt":"Upper respiratory tract infections","hlgt":"Upper respiratory tract infections","soc":"Infections and infestations","bodsys":"Infections and infestations","severity":"MILD","serious":"N","causality":"NOT RELATED","action_taken":"DOSE NOT CHANGED","outcome":"NOT RECOVERED/NOT RESOLVED","fatal":"N","hospitalization":"N","life_threatening":"N","onset_dtc":"2024-05-24","end_dtc":null,"onset_dy":"66","end_dy":null,"duration":null,"epoch":"TREATMENT","visit":null,"supplemental":{"AETRTEM":"Y"}},{"seq":"4","term":"INJECTION SITE REACTION","decod":"Injection site reaction","llt":"Injection site reaction","hlt":"Injection site reactions","hlgt":"Administration site reactions","soc":"General disorders and administration site conditions","bodsys":"General disorders and administration site conditions","severity":"MILD","serious":"N","causality":"NOT RELATED","action_taken":"DOSE NOT CHANGED","outcome":"RECOVERED/RESOLVED","fatal":"N","hospitalization":"N","life_threatening":"N","onset_dtc":"2024-05-31","end_dtc":"2024-06-14","onset_dy":"73","end_dy":"87","duration":null,"epoch":"TREATMENT","visit":null,"supplemental":{"AETRTEM":"Y"}},{"seq":"5","term":"HEADACHE","decod":"Headache","llt":"Headache","hlt":"Headaches NEC","hlgt":"Headaches","soc":"Nervous system disorders","bodsys":"Nervous system disorders","severity":"MILD","serious":"N","causality":"NOT RELATED","action_taken":"DOSE NOT CHANGED","outcome":"RECOVERED/RESOLVED","fatal":"N","hospitalization":"N","life_threatening":"N","onset_dtc":"2024-06-03","end_dtc":"2024-06-06","onset_dy":"76","end_dy":"79","duration":null,"epoch":"TREATMENT","visit":null,"supplemental":{"AETRTEM":"Y"}},{"seq":"6","term":"HEADACHE","decod":"Headache","llt":"Headache","hlt":"Headaches NEC","hlgt":"Headaches","soc":"Nervous system disorders","bodsys":"Nervous system disorders","severity":"MILD","serious":"N","causality":"NOT RELATED","action_taken":"DOSE NOT CHANGED","outcome":"NOT RECOVERED/NOT RESOLVED","fatal":"N","hospitalization":"N","life_threatening":"N","onset_dtc":"2024-06-27","end_dtc":null,"onset_dy":"100","end_dy":null,"duration":null,"epoch":"TREATMENT","visit":null,"supplemental":{"AETRTEM":"Y"}},{"seq":"7","term":"FATIGUE","decod":"Fatigue","llt":"Fatigue","hlt":"Asthenic conditions","hlgt":"General system disorders NEC","soc":"General disorders and administration site conditions","bodsys":"General disorders and administration site conditions","severity":"MODERATE","serious":"N","causality":"NOT RELATED","action_taken":"DOSE NOT CHANGED","outcome":"RECOVERED/RESOLVED","fatal":"N","hospitalization":"N","life_threatening":"N","onset_dtc":"2024-07-04","end_dtc":"2024-07-18","onset_dy":"107","end_dy":"121","duration":null,"epoch":"TREATMENT","visit":null,"supplemental":{"AETRTEM":"Y"}},{"seq":"8","term":"NASOPHARYNGITIS","decod":"Nasopharyngitis","llt":"Nasopharyngitis","hlt":"Upper respiratory tract infections","hlgt":"Upper respiratory tract infections","soc":"Infections and infestations","bodsys":"Infections and infestations","severity":"MODERATE","serious":"N","causality":"NOT RELATED","action_taken":"DOSE NOT CHANGED","outcome":"RECOVERED/RESOLVED","fatal":"N","hospitalization":"N","life_threatening":"N","onset_dtc":"2024-07-26","end_dtc":"2024-07-30","onset_dy":"129","end_dy":"133","duration":null,"epoch":"TREATMENT","visit":null,"supplemental":{"AETRTEM":"Y"}},{"seq":"9","term":"HERPES SIMPLEX","decod":"Herpes simplex","llt":"Herpes simplex","hlt":"Herpes viral infections","hlgt":"Viral infections NEC","soc":"Infections and infestations","bodsys":"Infections and infestations","severity":"MODERATE","serious":"N","causality":"NOT RELATED","action_taken":"DOSE NOT CHANGED","outcome":"RECOVERED/RESOLVED","fatal":"N","hospitalization":"N","life_threatening":"N","onset_dtc":"2024-08-03","end_dtc":"2024-08-14","onset_dy":"137","end_dy":"148","duration":null,"epoch":"TREATMENT","visit":null,"supplemental":{"AETRTEM":"Y"}},{"seq":"10","term":"UPPER RESPIRATORY TRACT INFECTION","decod":"Upper respiratory tract infection","llt":"Upper respiratory tract infection","hlt":"Upper respiratory tract infections","hlgt":"Upper respiratory tract infections","soc":"Infections and infestations","bodsys":"Infections and infestations","severity":"MODERATE","serious":"N","causality":"NOT RELATED","action_taken":"DOSE NOT CHANGED","outcome":"NOT RECOVERED/NOT RESOLVED","fatal":"N","hospitalization":"N","life_threatening":"N","onset_dtc":"2024-09-22","end_dtc":null,"onset_dy":"187","end_dy":null,"duration":null,"epoch":"TREATMENT","visit":null,"supplemental":{"AETRTEM":"Y"}},{"seq":"11","term":"NAUSEA","decod":"Nausea","llt":"Nausea","hlt":"Nausea and vomiting symptoms","hlgt":"Gastrointestinal signs and symptoms","soc":"Gastrointestinal disorders","bodsys":"Gastrointestinal disorders","severity":"MILD","serious":"N","causality":"NOT RELATED","action_taken":"DOSE NOT CHANGED","outcome":"RECOVERED/RESOLVED","fatal":"N","hospitalization":"N","life_threatening":"N","onset_dtc":"2024-10-01","end_dtc":"2024-10-03","onset_dy":"196","end_dy":"198","duration":null,"epoch":"TREATMENT","visit":null,"supplemental":{"AETRTEM":"Y"}},{"seq":"12","term":"INJECTION SITE REACTION","decod":"Injection site reaction","llt":"Injection site reaction","hlt":"Injection site reactions","hlgt":"Administration site reactions","soc":"General disorders and administration site conditions","bodsys":"General disorders and administration site conditions","severity":"MODERATE","serious":"N","causality":"NOT RELATED","action_taken":"DOSE NOT CHANGED","outcome":"RECOVERED/RESOLVED","fatal":"N","hospitalization":"N","life_threatening":"N","onset_dtc":"2024-10-29","end_dtc":"2024-11-08","onset_dy":"224","end_dy":"234","duration":null,"epoch":"TREATMENT","visit":null,"supplemental":{"AETRTEM":"Y"}},{"seq":"13","term":"INJECTION SITE REACTION","decod":"Injection site reaction","llt":"Injection site reaction","hlt":"Injection site reactions","hlgt":"Administration site reactions","soc":"General disorders and administration site conditions","bodsys":"General disorders and administration site conditions","severity":"MILD","serious":"N","causality":"NOT RELATED","action_taken":"DOSE NOT CHANGED","outcome":"RECOVERED/RESOLVED","fatal":"N","hospitalization":"N","life_threatening":"N","onset_dtc":"2024-11-29","end_dtc":"2024-12-10","onset_dy":"255","end_dy":"266","duration":null,"epoch":"TREATMENT","visit":null,"supplemental":{"AETRTEM":"Y"}}]},"section_8_laboratory_results":{"summary":{"total_records":63,"abnormal_count":10,"abnormal_pct":15.9},"shift_summary":[{"testcd":"ALT","baseline_value":27.79,"baseline_nrind":"NORMAL","worst_post_baseline_value":32.23,"worst_post_baseline_nrind":"NORMAL","worst_visit":"WEEK 12"},{"testcd":"AST","baseline_value":25.18,"baseline_nrind":"NORMAL","worst_post_baseline_value":24.88,"worst_post_baseline_nrind":"NORMAL","worst_visit":"WEEK 0 BASELINE"},{"testcd":"CREAT","baseline_value":30.08,"baseline_nrind":"LOW","worst_post_baseline_value":30.0,"worst_post_baseline_nrind":"LOW","worst_visit":"WEEK 0 BASELINE"},{"testcd":"GLUC","baseline_value":4.64,"baseline_nrind":"NORMAL","worst_post_baseline_value":4.78,"worst_post_baseline_nrind":"NORMAL","worst_visit":"WEEK 4"},{"testcd":"HGB","baseline_value":129.59,"baseline_nrind":"NORMAL","worst_post_baseline_value":126.89,"worst_post_baseline_nrind":"NORMAL","worst_visit":"WEEK 60 FU"},{"testcd":"PLAT","baseline_value":260.14,"baseline_nrind":"NORMAL","worst_post_baseline_value":257.96,"worst_post_baseline_nrind":"NORMAL","worst_visit":"WEEK 60 FU"},{"testcd":"WBC","baseline_value":10.11,"baseline_nrind":"NORMAL","worst_post_baseline_value":11.02,"worst_post_baseline_nrind":"HIGH","worst_visit":"WEEK 4"}],"results":[{"seq":"1","testcd":"ALT","test":"Alanine Aminotransferase","cat":"CHEMISTRY","orres":"27.79","orresu":"U/L","stresc":"27.79","stresn":"27.79","stresu":"U/L","stnrlo":"7","stnrhi":"56","nrind":"NORMAL","fast":null,"dtc":"2024-02-08","dy":"-41","visit":"SCREENING","visitnum":"1.0","epoch":"SCREENING","spec":null,"method":null},{"seq":"2","testcd":"AST","test":"Aspartate Aminotransferase","cat":"CHEMISTRY","orres":"25.18","orresu":"U/L","stresc":"25.18","stresn":"25.18","stresu":"U/L","stnrlo":"10","stnrhi":"40","nrind":"NORMAL","fast":null,"dtc":"2024-02-08","dy":"-41","visit":"SCREENING","visitnum":"1.0","epoch":"SCREENING","spec":null,"method":null},{"seq":"3","testcd":"CREAT","test":"Creatinine","cat":"CHEMISTRY","orres":"30.08","orresu":"umol/L","stresc":"30.08","stresn":"30.08","stresu":"umol/L","stnrlo":"44","stnrhi":"80","nrind":"LOW","fast":null,"dtc":"2024-02-08","dy":"-41","visit":"SCREENING","visitnum":"1.0","epoch":"SCREENING","spec":null,"method":null},{"seq":"4","testcd":"GLUC","test":"Glucose","cat":"CHEMISTRY","orres":"4.64","orresu":"mmol/L","stresc":"4.64","stresn":"4.64","stresu":"mmol/L","stnrlo":"3.9","stnrhi":"5.6","nrind":"NORMAL","fast":null,"dtc":"2024-02-08","dy":"-41","visit":"SCREENING","visitnum":"1.0","epoch":"SCREENING","spec":null,"method":null},{"seq":"5","testcd":"HGB","test":"Hemoglobin","cat":"HEMATOLOGY","orres":"129.59","orresu":"g/L","stresc":"129.59","stresn":"129.59","stresu":"g/L","stnrlo":"120","stnrhi":"155","nrind":"NORMAL","fast":null,"dtc":"2024-02-08","dy":"-41","visit":"SCREENING","visitnum":"1.0","epoch":"SCREENING","spec":null,"method":null},{"seq":"6","testcd":"PLAT","test":"Platelets","cat":"HEMATOLOGY","orres":"260.14","orresu":"10^9/L","stresc":"260.14","stresn":"260.14","stresu":"10^9/L","stnrlo":"150","stnrhi":"400","nrind":"NORMAL","fast":null,"dtc":"2024-02-08","dy":"-41","visit":"SCREENING","visitnum":"1.0","epoch":"SCREENING","spec":null,"method":null},{"seq":"7","testcd":"WBC","test":"Leukocytes","cat":"HEMATOLOGY","orres":"10.11","orresu":"10^9/L","stresc":"10.11","stresn":"10.11","stresu":"10^9/L","stnrlo":"4.0","stnrhi":"11.0","nrind":"NORMAL","fast":null,"dtc":"2024-02-08","dy":"-41","visit":"SCREENING","visitnum":"1.0","epoch":"SCREENING","spec":null,"method":null},{"seq":"8","testcd":"ALT","test":"Alanine Aminotransferase","cat":"CHEMISTRY","orres":"31.81","orresu":"U/L","stresc":"31.81","stresn":"31.81","stresu":"U/L","stnrlo":"7","stnrhi":"56","nrind":"NORMAL","fast":null,"dtc":"2024-03-20","dy":"1","visit":"WEEK 0 BASELINE","visitnum":"2.0","epoch":"TREATMENT","spec":null,"method":null},{"seq":"9","testcd":"AST","test":"Aspartate Aminotransferase","cat":"CHEMISTRY","orres":"24.88","orresu":"U/L","stresc":"24.88","stresn":"24.88","stresu":"U/L","stnrlo":"10","stnrhi":"40","nrind":"NORMAL","fast":null,"dtc":"2024-03-20","dy":"1","visit":"WEEK 0 BASELINE","visitnum":"2.0","epoch":"TREATMENT","spec":null,"method":null},{"seq":"10","testcd":"CREAT","test":"Creatinine","cat":"CHEMISTRY","orres":"30.0","orresu":"umol/L","stresc":"30.0","stresn":"30.0","stresu":"umol/L","stnrlo":"44","stnrhi":"80","nrind":"LOW","fast":null,"dtc":"2024-03-20","dy":"1","visit":"WEEK 0 BASELINE","visitnum":"2.0","epoch":"TREATMENT","spec":null,"method":null},{"seq":"11","testcd":"GLUC","test":"Glucose","cat":"CHEMISTRY","orres":"4.57","orresu":"mmol/L","stresc":"4.57","stresn":"4.57","stresu":"mmol/L","stnrlo":"3.9","stnrhi":"5.6","nrind":"NORMAL","fast":null,"dtc":"2024-03-20","dy":"1","visit":"WEEK 0 BASELINE","visitnum":"2.0","epoch":"TREATMENT","spec":null,"method":null},{"seq":"12","testcd":"HGB","test":"Hemoglobin","cat":"HEMATOLOGY","orres":"128.7","orresu":"g/L","stresc":"128.7","stresn":"128.7","stresu":"g/L","stnrlo":"120","stnrhi":"155","nrind":"NORMAL","fast":null,"dtc":"2024-03-20","dy":"1","visit":"WEEK 0 BASELINE","visitnum":"2.0","epoch":"TREATMENT","spec":null,"method":null},{"seq":"13","testcd":"PLAT","test":"Platelets","cat":"HEMATOLOGY","orres":"231.37","orresu":"10^9/L","stresc":"231.37","stresn":"231.37","stresu":"10^9/L","stnrlo":"150","stnrhi":"400","nrind":"NORMAL","fast":null,"dtc":"2024-03-20","dy":"1","visit":"WEEK 0 BASELINE","visitnum":"2.0","epoch":"TREATMENT","spec":null,"method":null},{"seq":"14","testcd":"WBC","test":"Leukocytes","cat":"HEMATOLOGY","orres":"10.25","orresu":"10^9/L","stresc":"10.25","stresn":"10.25","stresu":"10^9/L","stnrlo":"4.0","stnrhi":"11.0","nrind":"NORMAL","fast":null,"dtc":"2024-03-20","dy":"1","visit":"WEEK 0 BASELINE","visitnum":"2.0","epoch":"TREATMENT","spec":null,"method":null},{"seq":"15","testcd":"ALT","test":"Alanine Aminotransferase","cat":"CHEMISTRY","orres":"31.14","orresu":"U/L","stresc":"31.14","stresn":"31.14","stresu":"U/L","stnrlo":"7","stnrhi":"56","nrind":"NORMAL","fast":null,"dtc":"2024-04-14","dy":"26","visit":"WEEK 4","visitnum":"3.0","epoch":"TREATMENT","spec":null,"method":null},{"seq":"16","testcd":"AST","test":"Aspartate Aminotransferase","cat":"CHEMISTRY","orres":"23.1","orresu":"U/L","stresc":"23.1","stresn":"23.1","stresu":"U/L","stnrlo":"10","stnrhi":"40","nrind":"NORMAL","fast":null,"dtc":"2024-04-14","dy":"26","visit":"WEEK 4","visitnum":"3.0","epoch":"TREATMENT","spec":null,"method":null},{"seq":"17","testcd":"CREAT","test":"Creatinine","cat":"CHEMISTRY","orres":"30.0","orresu":"umol/L","stresc":"30.0","stresn":"30.0","stresu":"umol/L","stnrlo":"44","stnrhi":"80","nrind":"LOW","fast":null,"dtc":"2024-04-14","dy":"26","visit":"WEEK 4","visitnum":"3.0","epoch":"TREATMENT","spec":null,"method":null},{"seq":"18","testcd":"GLUC","test":"Glucose","cat":"CHEMISTRY","orres":"4.78","orresu":"mmol/L","stresc":"4.78","stresn":"4.78","stresu":"mmol/L","stnrlo":"3.9","stnrhi":"5.6","nrind":"NORMAL","fast":null,"dtc":"2024-04-14","dy":"26","visit":"WEEK 4","visitnum":"3.0","epoch":"TREATMENT","spec":null,"method":null},{"seq":"19","testcd":"HGB","test":"Hemoglobin","cat":"HEMATOLOGY","orres":"128.34","orresu":"g/L","stresc":"128.34","stresn":"128.34","stresu":"g/L","stnrlo":"120","stnrhi":"155","nrind":"NORMAL","fast":null,"dtc":"2024-04-14","dy":"26","visit":"WEEK 4","visitnum":"3.0","epoch":"TREATMENT","spec":null,"method":null},{"seq":"20","testcd":"PLAT","test":"Platelets","cat":"HEMATOLOGY","orres":"243.49","orresu":"10^9/L","stresc":"243.49","stresn":"243.49","stresu":"10^9/L","stnrlo":"150","stnrhi":"400","nrind":"NORMAL","fast":null,"dtc":"2024-04-14","dy":"26","visit":"WEEK 4","visitnum":"3.0","epoch":"TREATMENT","spec":null,"method":null},{"seq":"21","testcd":"WBC","test":"Leukocytes","cat":"HEMATOLOGY","orres":"11.02","orresu":"10^9/L","stresc":"11.02","stresn":"11.02","stresu":"10^9/L","stnrlo":"4.0","stnrhi":"11.0","nrind":"HIGH","fast":null,"dtc":"2024-04-14","dy":"26","visit":"WEEK 4","visitnum":"3.0","epoch":"TREATMENT","spec":null,"method":null},{"seq":"22","testcd":"ALT","test":"Alanine Aminotransferase","cat":"CHEMISTRY","orres":"30.59","orresu":"U/L","stresc":"30.59","stresn":"30.59","stresu":"U/L","stnrlo":"7","stnrhi":"56","nrind":"NORMAL","fast":null,"dtc":"2024-05-12","dy":"54","visit":"WEEK 8","visitnum":"4.0","epoch":"TREATMENT","spec":null,"method":null},{"seq":"23","testcd":"AST","test":"Aspartate Aminotransferase","cat":"CHEMISTRY","orres":"22.76","orresu":"U/L","stresc":"22.76","stresn":"22.76","stresu":"U/L","stnrlo":"10","stnrhi":"40","nrind":"NORMAL","fast":null,"dtc":"2024-05-12","dy":"54","visit":"WEEK 8","visitnum":"4.0","epoch":"TREATMENT","spec":null,"method":null},{"seq":"24","testcd":"CREAT","test":"Creatinine","cat":"CHEMISTRY","orres":"30.0","orresu":"umol/L","stresc":"30.0","stresn":"30.0","stresu":"umol/L","stnrlo":"44","stnrhi":"80","nrind":"LOW","fast":null,"dtc":"2024-05-12","dy":"54","visit":"WEEK 8","visitnum":"4.0","epoch":"TREATMENT","spec":null,"method":null},{"seq":"25","testcd":"GLUC","test":"Glucose","cat":"CHEMISTRY","orres":"4.74","orresu":"mmol/L","stresc":"4.74","stresn":"4.74","stresu":"mmol/L","stnrlo":"3.9","stnrhi":"5.6","nrind":"NORMAL","fast":null,"dtc":"2024-05-12","dy":"54","visit":"WEEK 8","visitnum":"4.0","epoch":"TREATMENT","spec":null,"method":null},{"seq":"26","testcd":"HGB","test":"Hemoglobin","cat":"HEMATOLOGY","orres":"131.39","orresu":"g/L","stresc":"131.39","stresn":"131.39","stresu":"g/L","stnrlo":"120","stnrhi":"155","nrind":"NORMAL","fast":null,"dtc":"2024-05-12","dy":"54","visit":"WEEK 8","visitnum":"4.0","epoch":"TREATMENT","spec":null,"method":null},{"seq":"27","testcd":"PLAT","test":"Platelets","cat":"HEMATOLOGY","orres":"249.34","orresu":"10^9/L","stresc":"249.34","stresn":"249.34","stresu":"10^9/L","stnrlo":"150","stnrhi":"400","nrind":"NORMAL","fast":null,"dtc":"2024-05-12","dy":"54","visit":"WEEK 8","visitnum":"4.0","epoch":"TREATMENT","spec":null,"method":null},{"seq":"28","testcd":"WBC","test":"Leukocytes","cat":"HEMATOLOGY","orres":"10.39","orresu":"10^9/L","stresc":"10.39","stresn":"10.39","stresu":"10^9/L","stnrlo":"4.0","stnrhi":"11.0","nrind":"NORMAL","fast":null,"dtc":"2024-05-12","dy":"54","visit":"WEEK 8","visitnum":"4.0","epoch":"TREATMENT","spec":null,"method":null},{"seq":"29","testcd":"ALT","test":"Alanine Aminotransferase","cat":"CHEMISTRY","orres":"32.23","orresu":"U/L","stresc":"32.23","stresn":"32.23","stresu":"U/L","stnrlo":"7","stnrhi":"56","nrind":"NORMAL","fast":null,"dtc":"2024-06-09","dy":"82","visit":"WEEK 12","visitnum":"5.0","epoch":"TREATMENT","spec":null,"method":null},{"seq":"30","testcd":"AST","test":"Aspartate Aminotransferase","cat":"CHEMISTRY","orres":"23.45","orresu":"U/L","stresc":"23.45","stresn":"23.45","stresu":"U/L","stnrlo":"10","stnrhi":"40","nrind":"NORMAL","fast":null,"dtc":"2024-06-09","dy":"82","visit":"WEEK 12","visitnum":"5.0","epoch":"TREATMENT","spec":null,"method":null},{"seq":"31","testcd":"CREAT","test":"Creatinine","cat":"CHEMISTRY","orres":"30.0","orresu":"umol/L","stresc":"30.0","stresn":"30.0","stresu":"umol/L","stnrlo":"44","stnrhi":"80","nrind":"LOW","fast":null,"dtc":"2024-06-09","dy":"82","visit":"WEEK 12","visitnum":"5.0","epoch":"TREATMENT","spec":null,"method":null},{"seq":"32","testcd":"GLUC","test":"Glucose","cat":"CHEMISTRY","orres":"4.66","orresu":"mmol/L","stresc":"4.66","stresn":"4.66","stresu":"mmol/L","stnrlo":"3.9","stnrhi":"5.6","nrind":"NORMAL","fast":null,"dtc":"2024-06-09","dy":"82","visit":"WEEK 12","visitnum":"5.0","epoch":"TREATMENT","spec":null,"method":null},{"seq":"33","testcd":"HGB","test":"Hemoglobin","cat":"HEMATOLOGY","orres":"130.11","orresu":"g/L","stresc":"130.11","stresn":"130.11","stresu":"g/L","stnrlo":"120","stnrhi":"155","nrind":"NORMAL","fast":null,"dtc":"2024-06-09","dy":"82","visit":"WEEK 12","visitnum":"5.0","epoch":"TREATMENT","spec":null,"method":null},{"seq":"34","testcd":"PLAT","test":"Platelets","cat":"HEMATOLOGY","orres":"244.09","orresu":"10^9/L","stresc":"244.09","stresn":"244.09","stresu":"10^9/L","stnrlo":"150","stnrhi":"400","nrind":"NORMAL","fast":null,"dtc":"2024-06-09","dy":"82","visit":"WEEK 12","visitnum":"5.0","epoch":"TREATMENT","spec":null,"method":null},{"seq":"35","testcd":"WBC","test":"Leukocytes","cat":"HEMATOLOGY","orres":"10.01","orresu":"10^9/L","stresc":"10.01","stresn":"10.01","stresu":"10^9/L","stnrlo":"4.0","stnrhi":"11.0","nrind":"NORMAL","fast":null,"dtc":"2024-06-09","dy":"82","visit":"WEEK 12","visitnum":"5.0","epoch":"TREATMENT","spec":null,"method":null},{"seq":"36","testcd":"ALT","test":"Alanine Aminotransferase","cat":"CHEMISTRY","orres":"28.1","orresu":"U/L","stresc":"28.1","stresn":"28.1","stresu":"U/L","stnrlo":"7","stnrhi":"56","nrind":"NORMAL","fast":null,"dtc":"2024-09-01","dy":"166","visit":"WEEK 24","visitnum":"7.0","epoch":"TREATMENT","spec":null,"method":null},{"seq":"37","testcd":"AST","test":"Aspartate Aminotransferase","cat":"CHEMISTRY","orres":"22.9","orresu":"U/L","stresc":"22.9","stresn":"22.9","stresu":"U/L","stnrlo":"10","stnrhi":"40","nrind":"NORMAL","fast":null,"dtc":"2024-09-01","dy":"166","visit":"WEEK 24","visitnum":"7.0","epoch":"TREATMENT","spec":null,"method":null},{"seq":"38","testcd":"CREAT","test":"Creatinine","cat":"CHEMISTRY","orres":"30.0","orresu":"umol/L","stresc":"30.0","stresn":"30.0","stresu":"umol/L","stnrlo":"44","stnrhi":"80","nrind":"LOW","fast":null,"dtc":"2024-09-01","dy":"166","visit":"WEEK 24","visitnum":"7.0","epoch":"TREATMENT","spec":null,"method":null},{"seq":"39","testcd":"GLUC","test":"Glucose","cat":"CHEMISTRY","orres":"4.53","orresu":"mmol/L","stresc":"4.53","stresn":"4.53","stresu":"mmol/L","stnrlo":"3.9","stnrhi":"5.6","nrind":"NORMAL","fast":null,"dtc":"2024-09-01","dy":"166","visit":"WEEK 24","visitnum":"7.0","epoch":"TREATMENT","spec":null,"method":null},{"seq":"40","testcd":"HGB","test":"Hemoglobin","cat":"HEMATOLOGY","orres":"130.67","orresu":"g/L","stresc":"130.67","stresn":"130.67","stresu":"g/L","stnrlo":"120","stnrhi":"155","nrind":"NORMAL","fast":null,"dtc":"2024-09-01","dy":"166","visit":"WEEK 24","visitnum":"7.0","epoch":"TREATMENT","spec":null,"method":null},{"seq":"41","testcd":"PLAT","test":"Platelets","cat":"HEMATOLOGY","orres":"248.26","orresu":"10^9/L","stresc":"248.26","stresn":"248.26","stresu":"10^9/L","stnrlo":"150","stnrhi":"400","nrind":"NORMAL","fast":null,"dtc":"2024-09-01","dy":"166","visit":"WEEK 24","visitnum":"7.0","epoch":"TREATMENT","spec":null,"method":null},{"seq":"42","testcd":"WBC","test":"Leukocytes","cat":"HEMATOLOGY","orres":"10.01","orresu":"10^9/L","stresc":"10.01","stresn":"10.01","stresu":"10^9/L","stnrlo":"4.0","stnrhi":"11.0","nrind":"NORMAL","fast":null,"dtc":"2024-09-01","dy":"166","visit":"WEEK 24","visitnum":"7.0","epoch":"TREATMENT","spec":null,"method":null},{"seq":"43","testcd":"ALT","test":"Alanine Aminotransferase","cat":"CHEMISTRY","orres":"26.96","orresu":"U/L","stresc":"26.96","stresn":"26.96","stresu":"U/L","stnrlo":"7","stnrhi":"56","nrind":"NORMAL","fast":null,"dtc":"2024-11-29","dy":"255","visit":"WEEK 36","visitnum":"8.0","epoch":"TREATMENT","spec":null,"method":null},{"seq":"44","testcd":"AST","test":"Aspartate Aminotransferase","cat":"CHEMISTRY","orres":"24.58","orresu":"U/L","stresc":"24.58","stresn":"24.58","stresu":"U/L","stnrlo":"10","stnrhi":"40","nrind":"NORMAL","fast":null,"dtc":"2024-11-29","dy":"255","visit":"WEEK 36","visitnum":"8.0","epoch":"TREATMENT","spec":null,"method":null},{"seq":"45","testcd":"CREAT","test":"Creatinine","cat":"CHEMISTRY","orres":"30.0","orresu":"umol/L","stresc":"30.0","stresn":"30.0","stresu":"umol/L","stnrlo":"44","stnrhi":"80","nrind":"LOW","fast":null,"dtc":"2024-11-29","dy":"255","visit":"WEEK 36","visitnum":"8.0","epoch":"TREATMENT","spec":null,"method":null},{"seq":"46","testcd":"GLUC","test":"Glucose","cat":"CHEMISTRY","orres":"4.54","orresu":"mmol/L","stresc":"4.54","stresn":"4.54","stresu":"mmol/L","stnrlo":"3.9","stnrhi":"5.6","nrind":"NORMAL","fast":null,"dtc":"2024-11-29","dy":"255","visit":"WEEK 36","visitnum":"8.0","epoch":"TREATMENT","spec":null,"method":null},{"seq":"47","testcd":"HGB","test":"Hemoglobin","cat":"HEMATOLOGY","orres":"129.51","orresu":"g/L","stresc":"129.51","stresn":"129.51","stresu":"g/L","stnrlo":"120","stnrhi":"155","nrind":"NORMAL","fast":null,"dtc":"2024-11-29","dy":"255","visit":"WEEK 36","visitnum":"8.0","epoch":"TREATMENT","spec":null,"method":null},{"seq":"48","testcd":"PLAT","test":"Platelets","cat":"HEMATOLOGY","orres":"236.01","orresu":"10^9/L","stresc":"236.01","stresn":"236.01","stresu":"10^9/L","stnrlo":"150","stnrhi":"400","nrind":"NORMAL","fast":null,"dtc":"2024-11-29","dy":"255","visit":"WEEK 36","visitnum":"8.0","epoch":"TREATMENT","spec":null,"method":null},{"seq":"49","testcd":"WBC","test":"Leukocytes","cat":"HEMATOLOGY","orres":"10.71","orresu":"10^9/L","stresc":"10.71","stresn":"10.71","stresu":"10^9/L","stnrlo":"4.0","stnrhi":"11.0","nrind":"NORMAL","fast":null,"dtc":"2024-11-29","dy":"255","visit":"WEEK 36","visitnum":"8.0","epoch":"TREATMENT","spec":null,"method":null},{"seq":"50","testcd":"ALT","test":"Alanine Aminotransferase","cat":"CHEMISTRY","orres":"29.56","orresu":"U/L","stresc":"29.56","stresn":"29.56","stresu":"U/L","stnrlo":"7","stnrhi":"56","nrind":"NORMAL","fast":null,"dtc":"2024-12-26","dy":"282","visit":"WEEK 40 EOT","visitnum":"9.0","epoch":"TREATMENT","spec":null,"method":null},{"seq":"51","testcd":"AST","test":"Aspartate Aminotransferase","cat":"CHEMISTRY","orres":"23.63","orresu":"U/L","stresc":"23.63","stresn":"23.63","stresu":"U/L","stnrlo":"10","stnrhi":"40","nrind":"NORMAL","fast":null,"dtc":"2024-12-26","dy":"282","visit":"WEEK 40 EOT","visitnum":"9.0","epoch":"TREATMENT","spec":null,"method":null},{"seq":"52","testcd":"CREAT","test":"Creatinine","cat":"CHEMISTRY","orres":"30.0","orresu":"umol/L","stresc":"30.0","stresn":"30.0","stresu":"umol/L","stnrlo":"44","stnrhi":"80","nrind":"LOW","fast":null,"dtc":"2024-12-26","dy":"282","visit":"WEEK 40 EOT","visitnum":"9.0","epoch":"TREATMENT","spec":null,"method":null},{"seq":"53","testcd":"GLUC","test":"Glucose","cat":"CHEMISTRY","orres":"4.65","orresu":"mmol/L","stresc":"4.65","stresn":"4.65","stresu":"mmol/L","stnrlo":"3.9","stnrhi":"5.6","nrind":"NORMAL","fast":null,"dtc":"2024-12-26","dy":"282","visit":"WEEK 40 EOT","visitnum":"9.0","epoch":"TREATMENT","spec":null,"method":null},{"seq":"54","testcd":"HGB","test":"Hemoglobin","cat":"HEMATOLOGY","orres":"128.43","orresu":"g/L","stresc":"128.43","stresn":"128.43","stresu":"g/L","stnrlo":"120","stnrhi":"155","nrind":"NORMAL","fast":null,"dtc":"2024-12-26","dy":"282","visit":"WEEK 40 EOT","visitnum":"9.0","epoch":"TREATMENT","spec":null,"method":null},{"seq":"55","testcd":"PLAT","test":"Platelets","cat":"HEMATOLOGY","orres":"246.9","orresu":"10^9/L","stresc":"246.9","stresn":"246.9","stresu":"10^9/L","stnrlo":"150","stnrhi":"400","nrind":"NORMAL","fast":null,"dtc":"2024-12-26","dy":"282","visit":"WEEK 40 EOT","visitnum":"9.0","epoch":"TREATMENT","spec":null,"method":null},{"seq":"56","testcd":"WBC","test":"Leukocytes","cat":"HEMATOLOGY","orres":"10.75","orresu":"10^9/L","stresc":"10.75","stresn":"10.75","stresu":"10^9/L","stnrlo":"4.0","stnrhi":"11.0","nrind":"NORMAL","fast":null,"dtc":"2024-12-26","dy":"282","visit":"WEEK 40 EOT","visitnum":"9.0","epoch":"TREATMENT","spec":null,"method":null},{"seq":"57","testcd":"ALT","test":"Alanine Aminotransferase","cat":"CHEMISTRY","orres":"27.02","orresu":"U/L","stresc":"27.02","stresn":"27.02","stresu":"U/L","stnrlo":"7","stnrhi":"56","nrind":"NORMAL","fast":null,"dtc":"2025-05-08","dy":"415","visit":"WEEK 60 FU","visitnum":"10.0","epoch":"FOLLOW-UP","spec":null,"method":null},{"seq":"58","testcd":"AST","test":"Aspartate Aminotransferase","cat":"CHEMISTRY","orres":"22.35","orresu":"U/L","stresc":"22.35","stresn":"22.35","stresu":"U/L","stnrlo":"10","stnrhi":"40","nrind":"NORMAL","fast":null,"dtc":"2025-05-08","dy":"415","visit":"WEEK 60 FU","visitnum":"10.0","epoch":"FOLLOW-UP","spec":null,"method":null},{"seq":"59","testcd":"CREAT","test":"Creatinine","cat":"CHEMISTRY","orres":"30.0","orresu":"umol/L","stresc":"30.0","stresn":"30.0","stresu":"umol/L","stnrlo":"44","stnrhi":"80","nrind":"LOW","fast":null,"dtc":"2025-05-08","dy":"415","visit":"WEEK 60 FU","visitnum":"10.0","epoch":"FOLLOW-UP","spec":null,"method":null},{"seq":"60","testcd":"GLUC","test":"Glucose","cat":"CHEMISTRY","orres":"4.59","orresu":"mmol/L","stresc":"4.59","stresn":"4.59","stresu":"mmol/L","stnrlo":"3.9","stnrhi":"5.6","nrind":"NORMAL","fast":null,"dtc":"2025-05-08","dy":"415","visit":"WEEK 60 FU","visitnum":"10.0","epoch":"FOLLOW-UP","spec":null,"method":null},{"seq":"61","testcd":"HGB","test":"Hemoglobin","cat":"HEMATOLOGY","orres":"126.89","orresu":"g/L","stresc":"126.89","stresn":"126.89","stresu":"g/L","stnrlo":"120","stnrhi":"155","nrind":"NORMAL","fast":null,"dtc":"2025-05-08","dy":"415","visit":"WEEK 60 FU","visitnum":"10.0","epoch":"FOLLOW-UP","spec":null,"method":null},{"seq":"62","testcd":"PLAT","test":"Platelets","cat":"HEMATOLOGY","orres":"257.96","orresu":"10^9/L","stresc":"257.96","stresn":"257.96","stresu":"10^9/L","stnrlo":"150","stnrhi":"400","nrind":"NORMAL","fast":null,"dtc":"2025-05-08","dy":"415","visit":"WEEK 60 FU","visitnum":"10.0","epoch":"FOLLOW-UP","spec":null,"method":null},{"seq":"63","testcd":"WBC","test":"Leukocytes","cat":"HEMATOLOGY","orres":"10.88","orresu":"10^9/L","stresc":"10.88","stresn":"10.88","stresu":"10^9/L","stnrlo":"4.0","stnrhi":"11.0","nrind":"NORMAL","fast":null,"dtc":"2025-05-08","dy":"415","visit":"WEEK 60 FU","visitnum":"10.0","epoch":"FOLLOW-UP","spec":null,"method":null}]},"section_9_vital_signs":{"summary":{"total_records":80},"trends":{"BMI":[{"visit":"SCREENING","visitnum":"1.0","dtc":"2024-02-08","value":"21.6","unit":"kg/m2"},{"visit":"WEEK 0 BASELINE","visitnum":"2.0","dtc":"2024-03-20","value":"21.8","unit":"kg/m2"},{"visit":"WEEK 4","visitnum":"3.0","dtc":"2024-04-14","value":"21.6","unit":"kg/m2"},{"visit":"WEEK 8","visitnum":"4.0","dtc":"2024-05-12","value":"22.4","unit":"kg/m2"},{"visit":"WEEK 12","visitnum":"5.0","dtc":"2024-06-09","value":"22.1","unit":"kg/m2"},{"visit":"WEEK 16","visitnum":"6.0","dtc":"2024-07-08","value":"20.7","unit":"kg/m2"},{"visit":"WEEK 24","visitnum":"7.0","dtc":"2024-09-01","value":"21.2","unit":"kg/m2"},{"visit":"WEEK 36","visitnum":"8.0","dtc":"2024-11-29","value":"20.3","unit":"kg/m2"},{"visit":"WEEK 40 EOT","visitnum":"9.0","dtc":"2024-12-26","value":"21.2","unit":"kg/m2"},{"visit":"WEEK 60 FU","visitnum":"10.0","dtc":"2025-05-08","value":"20.7","unit":"kg/m2"}],"DIABP":[{"visit":"SCREENING","visitnum":"1.0","dtc":"2024-02-08","value":"69.5","unit":"mmHg"},{"visit":"WEEK 0 BASELINE","visitnum":"2.0","dtc":"2024-03-20","value":"69.4","unit":"mmHg"},{"visit":"WEEK 4","visitnum":"3.0","dtc":"2024-04-14","value":"71.1","unit":"mmHg"},{"visit":"WEEK 8","visitnum":"4.0","dtc":"2024-05-12","value":"72.3","unit":"mmHg"},{"visit":"WEEK 12","visitnum":"5.0","dtc":"2024-06-09","value":"72.1","unit":"mmHg"},{"visit":"WEEK 16","visitnum":"6.0","dtc":"2024-07-08","value":"68.6","unit":"mmHg"},{"visit":"WEEK 24","visitnum":"7.0","dtc":"2024-09-01","value":"68.7","unit":"mmHg"},{"visit":"WEEK 36","visitnum":"8.0","dtc":"2024-11-29","value":"70.2","unit":"mmHg"},{"visit":"WEEK 40 EOT","visitnum":"9.0","dtc":"2024-12-26","value":"70.6","unit":"mmHg"},{"visit":"WEEK 60 FU","visitnum":"10.0","dtc":"2025-05-08","value":"68.3","unit":"mmHg"}],"HEIGHT":[{"visit":"SCREENING","visitnum":"1.0","dtc":"2024-02-08","value":"147.1","unit":"cm"},{"visit":"WEEK 0 BASELINE","visitnum":"2.0","dtc":"2024-03-20","value":"147.2","unit":"cm"},{"visit":"WEEK 4","visitnum":"3.0","dtc":"2024-04-14","value":"148.0","unit":"cm"},{"visit":"WEEK 8","visitnum":"4.0","dtc":"2024-05-12","value":"148.3","unit":"cm"},{"visit":"WEEK 12","visitnum":"5.0","dtc":"2024-06-09","value":"148.1","unit":"cm"},{"visit":"WEEK 16","visitnum":"6.0","dtc":"2024-07-08","value":"148.6","unit":"cm"},{"visit":"WEEK 24","visitnum":"7.0","dtc":"2024-09-01","value":"148.1","unit":"cm"},{"visit":"WEEK 36","visitnum":"8.0","dtc":"2024-11-29","value":"147.6","unit":"cm"},{"visit":"WEEK 40 EOT","visitnum":"9.0","dtc":"2024-12-26","value":"147.7","unit":"cm"},{"visit":"WEEK 60 FU","visitnum":"10.0","dtc":"2025-05-08","value":"147.8","unit":"cm"}],"PULSE":[{"visit":"SCREENING","visitnum":"1.0","dtc":"2024-02-08","value":"55.4","unit":"beats/min"},{"visit":"WEEK 0 BASELINE","visitnum":"2.0","dtc":"2024-03-20","value":"52.9","unit":"beats/min"},{"visit":"WEEK 4","visitnum":"3.0","dtc":"2024-04-14","value":"53.6","unit":"beats/min"},{"visit":"WEEK 12","visitnum":"5.0","dtc":"2024-06-09","value":"56.2","unit":"beats/min"},{"visit":"WEEK 16","visitnum":"6.0","dtc":"2024-07-08","value":"52.9","unit":"beats/min"},{"visit":"WEEK 24","visitnum":"7.0","dtc":"2024-09-01","value":"58.1","unit":"beats/min"},{"visit":"WEEK 36","visitnum":"8.0","dtc":"2024-11-29","value":"63.9","unit":"beats/min"},{"visit":"WEEK 40 EOT","visitnum":"9.0","dtc":"2024-12-26","value":"58.3","unit":"beats/min"},{"visit":"WEEK 60 FU","visitnum":"10.0","dtc":"2025-05-08","value":"55.2","unit":"beats/min"}],"RESP":[{"visit":"SCREENING","visitnum":"1.0","dtc":"2024-02-08","value":"16.5","unit":"breaths/min"},{"visit":"WEEK 0 BASELINE","visitnum":"2.0","dtc":"2024-03-20","value":"17.2","unit":"breaths/min"},{"visit":"WEEK 4","visitnum":"3.0","dtc":"2024-04-14","value":"16.2","unit":"breaths/min"},{"visit":"WEEK 8","visitnum":"4.0","dtc":"2024-05-12","value":"16.4","unit":"breaths/min"},{"visit":"WEEK 12","visitnum":"5.0","dtc":"2024-06-09","value":"16.3","unit":"breaths/min"},{"visit":"WEEK 16","visitnum":"6.0","dtc":"2024-07-08","value":"13.3","unit":"breaths/min"},{"visit":"WEEK 24","visitnum":"7.0","dtc":"2024-09-01","value":"14.4","unit":"breaths/min"},{"visit":"WEEK 36","visitnum":"8.0","dtc":"2024-11-29","value":"15.5","unit":"breaths/min"},{"visit":"WEEK 40 EOT","visitnum":"9.0","dtc":"2024-12-26","value":"15.7","unit":"breaths/min"},{"visit":"WEEK 60 FU","visitnum":"10.0","dtc":"2025-05-08","value":"16.3","unit":"breaths/min"}],"SYSBP":[{"visit":"SCREENING","visitnum":"1.0","dtc":"2024-02-08","value":"126.1","unit":"mmHg"},{"visit":"WEEK 0 BASELINE","visitnum":"2.0","dtc":"2024-03-20","value":"126.6","unit":"mmHg"},{"visit":"WEEK 4","visitnum":"3.0","dtc":"2024-04-14","value":"128.2","unit":"mmHg"},{"visit":"WEEK 8","visitnum":"4.0","dtc":"2024-05-12","value":"130.8","unit":"mmHg"},{"visit":"WEEK 12","visitnum":"5.0","dtc":"2024-06-09","value":"130.2","unit":"mmHg"},{"visit":"WEEK 16","visitnum":"6.0","dtc":"2024-07-08","value":"125.2","unit":"mmHg"},{"visit":"WEEK 24","visitnum":"7.0","dtc":"2024-09-01","value":"123.2","unit":"mmHg"},{"visit":"WEEK 36","visitnum":"8.0","dtc":"2024-11-29","value":"124.7","unit":"mmHg"},{"visit":"WEEK 40 EOT","visitnum":"9.0","dtc":"2024-12-26","value":"123.8","unit":"mmHg"},{"visit":"WEEK 60 FU","visitnum":"10.0","dtc":"2025-05-08","value":"123.3","unit":"mmHg"}],"TEMP":[{"visit":"SCREENING","visitnum":"1.0","dtc":"2024-02-08","value":"36.5","unit":"C"},{"visit":"WEEK 0 BASELINE","visitnum":"2.0","dtc":"2024-03-20","value":"36.5","unit":"C"},{"visit":"WEEK 4","visitnum":"3.0","dtc":"2024-04-14","value":"36.3","unit":"C"},{"visit":"WEEK 8","visitnum":"4.0","dtc":"2024-05-12","value":"36.3","unit":"C"},{"visit":"WEEK 12","visitnum":"5.0","dtc":"2024-06-09","value":"36.6","unit":"C"},{"visit":"WEEK 16","visitnum":"6.0","dtc":"2024-07-08","value":"36.5","unit":"C"},{"visit":"WEEK 24","visitnum":"7.0","dtc":"2024-09-01","value":"36.4","unit":"C"},{"visit":"WEEK 36","visitnum":"8.0","dtc":"2024-11-29","value":"36.3","unit":"C"},{"visit":"WEEK 40 EOT","visitnum":"9.0","dtc":"2024-12-26","value":"36.4","unit":"C"},{"visit":"WEEK 60 FU","visitnum":"10.0","dtc":"2025-05-08","value":"36.5","unit":"C"}],"WEIGHT":[{"visit":"SCREENING","visitnum":"1.0","dtc":"2024-02-08","value":"46.8","unit":"kg"},{"visit":"WEEK 0 BASELINE","visitnum":"2.0","dtc":"2024-03-20","value":"47.3","unit":"kg"},{"visit":"WEEK 4","visitnum":"3.0","dtc":"2024-04-14","value":"47.4","unit":"kg"},{"visit":"WEEK 8","visitnum":"4.0","dtc":"2024-05-12","value":"49.2","unit":"kg"},{"visit":"WEEK 12","visitnum":"5.0","dtc":"2024-06-09","value":"48.5","unit":"kg"},{"visit":"WEEK 16","visitnum":"6.0","dtc":"2024-07-08","value":"45.7","unit":"kg"},{"visit":"WEEK 24","visitnum":"7.0","dtc":"2024-09-01","value":"46.5","unit":"kg"},{"visit":"WEEK 36","visitnum":"8.0","dtc":"2024-11-29","value":"44.3","unit":"kg"},{"visit":"WEEK 40 EOT","visitnum":"9.0","dtc":"2024-12-26","value":"46.3","unit":"kg"},{"visit":"WEEK 60 FU","visitnum":"10.0","dtc":"2025-05-08","value":"45.2","unit":"kg"}]},"results":[{"seq":"1","testcd":"BMI","test":"BMI","cat":null,"orres":null,"orresu":null,"stresc":"21.6","stresn":"21.6","stresu":"kg/m2","stnrlo":null,"stnrhi":null,"nrind":null,"pos":null,"loc":null,"dtc":"2024-02-08","dy":"-41","visit":"SCREENING","visitnum":"1.0","epoch":"SCREENING"},{"seq":"2","testcd":"DIABP","test":"Diastolic Blood Pressure","cat":null,"orres":"69.5","orresu":"mmHg","stresc":"69.5","stresn":"69.5","stresu":"mmHg","stnrlo":null,"stnrhi":null,"nrind":null,"pos":null,"loc":null,"dtc":"2024-02-08","dy":"-41","visit":"SCREENING","visitnum":"1.0","epoch":"SCREENING"},{"seq":"3","testcd":"HEIGHT","test":"Height","cat":null,"orres":"147.1","orresu":"cm","stresc":"147.1","stresn":"147.1","stresu":"cm","stnrlo":null,"stnrhi":null,"nrind":null,"pos":null,"loc":null,"dtc":"2024-02-08","dy":"-41","visit":"SCREENING","visitnum":"1.0","epoch":"SCREENING"},{"seq":"4","testcd":"PULSE","test":"Pulse Rate","cat":null,"orres":"55.4","orresu":"beats/min","stresc":"55.4","stresn":"55.4","stresu":"beats/min","stnrlo":null,"stnrhi":null,"nrind":null,"pos":null,"loc":null,"dtc":"2024-02-08","dy":"-41","visit":"SCREENING","visitnum":"1.0","epoch":"SCREENING"},{"seq":"5","testcd":"RESP","test":"Respiratory Rate","cat":null,"orres":"16.5","orresu":"breaths/min","stresc":"16.5","stresn":"16.5","stresu":"breaths/min","stnrlo":null,"stnrhi":null,"nrind":null,"pos":null,"loc":null,"dtc":"2024-02-08","dy":"-41","visit":"SCREENING","visitnum":"1.0","epoch":"SCREENING"},{"seq":"6","testcd":"SYSBP","test":"Systolic Blood Pressure","cat":null,"orres":"126.1","orresu":"mmHg","stresc":"126.1","stresn":"126.1","stresu":"mmHg","stnrlo":null,"stnrhi":null,"nrind":null,"pos":null,"loc":null,"dtc":"2024-02-08","dy":"-41","visit":"SCREENING","visitnum":"1.0","epoch":"SCREENING"},{"seq":"7","testcd":"TEMP","test":"Temperature","cat":null,"orres":"36.5","orresu":"C","stresc":"36.5","stresn":"36.5","stresu":"C","stnrlo":null,"stnrhi":null,"nrind":null,"pos":null,"loc":null,"dtc":"2024-02-08","dy":"-41","visit":"SCREENING","visitnum":"1.0","epoch":"SCREENING"},{"seq":"8","testcd":"WEIGHT","test":"Weight","cat":null,"orres":"46.8","orresu":"kg","stresc":"46.8","stresn":"46.8","stresu":"kg","stnrlo":null,"stnrhi":null,"nrind":null,"pos":null,"loc":null,"dtc":"2024-02-08","dy":"-41","visit":"SCREENING","visitnum":"1.0","epoch":"SCREENING"},{"seq":"9","testcd":"BMI","test":"BMI","cat":null,"orres":null,"orresu":null,"stresc":"21.8","stresn":"21.8","stresu":"kg/m2","stnrlo":null,"stnrhi":null,"nrind":null,"pos":null,"loc":null,"dtc":"2024-03-20","dy":"1","visit":"WEEK 0 BASELINE","visitnum":"2.0","epoch":"TREATMENT"},{"seq":"10","testcd":"DIABP","test":"Diastolic Blood Pressure","cat":null,"orres":"69.4","orresu":"mmHg","stresc":"69.4","stresn":"69.4","stresu":"mmHg","stnrlo":null,"stnrhi":null,"nrind":null,"pos":null,"loc":null,"dtc":"2024-03-20","dy":"1","visit":"WEEK 0 BASELINE","visitnum":"2.0","epoch":"TREATMENT"},{"seq":"11","testcd":"HEIGHT","test":"Height","cat":null,"orres":"147.2","orresu":"cm","stresc":"147.2","stresn":"147.2","stresu":"cm","stnrlo":null,"stnrhi":null,"nrind":null,"pos":null,"loc":null,"dtc":"2024-03-20","dy":"1","visit":"WEEK 0 BASELINE","visitnum":"2.0","epoch":"TREATMENT"},{"seq":"12","testcd":"PULSE","test":"Pulse Rate","cat":null,"orres":"52.9","orresu":"beats/min","stresc":"52.9","stresn":"52.9","stresu":"beats/min","stnrlo":null,"stnrhi":null,"nrind":null,"pos":null,"loc":null,"dtc":"2024-03-20","dy":"1","visit":"WEEK 0 BASELINE","visitnum":"2.0","epoch":"TREATMENT"},{"seq":"13","testcd":"RESP","test":"Respiratory Rate","cat":null,"orres":"17.2","orresu":"breaths/min","stresc":"17.2","stresn":"17.2","stresu":"breaths/min","stnrlo":null,"stnrhi":null,"nrind":null,"pos":null,"loc":null,"dtc":"2024-03-20","dy":"1","visit":"WEEK 0 BASELINE","visitnum":"2.0","epoch":"TREATMENT"},{"seq":"14","testcd":"SYSBP","test":"Systolic Blood Pressure","cat":null,"orres":"126.6","orresu":"mmHg","stresc":"126.6","stresn":"126.6","stresu":"mmHg","stnrlo":null,"stnrhi":null,"nrind":null,"pos":null,"loc":null,"dtc":"2024-03-20","dy":"1","visit":"WEEK 0 BASELINE","visitnum":"2.0","epoch":"TREATMENT"},{"seq":"15","testcd":"TEMP","test":"Temperature","cat":null,"orres":"36.5","orresu":"C","stresc":"36.5","stresn":"36.5","stresu":"C","stnrlo":null,"stnrhi":null,"nrind":null,"pos":null,"loc":null,"dtc":"2024-03-20","dy":"1","visit":"WEEK 0 BASELINE","visitnum":"2.0","epoch":"TREATMENT"},{"seq":"16","testcd":"WEIGHT","test":"Weight","cat":null,"orres":"47.3","orresu":"kg","stresc":"47.3","stresn":"47.3","stresu":"kg","stnrlo":null,"stnrhi":null,"nrind":null,"pos":null,"loc":null,"dtc":"2024-03-20","dy":"1","visit":"WEEK 0 BASELINE","visitnum":"2.0","epoch":"TREATMENT"},{"seq":"17","testcd":"BMI","test":"BMI","cat":null,"orres":null,"orresu":null,"stresc":"21.6","stresn":"21.6","stresu":"kg/m2","stnrlo":null,"stnrhi":null,"nrind":null,"pos":null,"loc":null,"dtc":"2024-04-14","dy":"26","visit":"WEEK 4","visitnum":"3.0","epoch":"TREATMENT"},{"seq":"18","testcd":"DIABP","test":"Diastolic Blood Pressure","cat":null,"orres":"71.1","orresu":"mmHg","stresc":"71.1","stresn":"71.1","stresu":"mmHg","stnrlo":null,"stnrhi":null,"nrind":null,"pos":null,"loc":null,"dtc":"2024-04-14","dy":"26","visit":"WEEK 4","visitnum":"3.0","epoch":"TREATMENT"},{"seq":"19","testcd":"HEIGHT","test":"Height","cat":null,"orres":"148.0","orresu":"cm","stresc":"148.0","stresn":"148.0","stresu":"cm","stnrlo":null,"stnrhi":null,"nrind":null,"pos":null,"loc":null,"dtc":"2024-04-14","dy":"26","visit":"WEEK 4","visitnum":"3.0","epoch":"TREATMENT"},{"seq":"20","testcd":"PULSE","test":"Pulse Rate","cat":null,"orres":"53.6","orresu":"beats/min","stresc":"53.6","stresn":"53.6","stresu":"beats/min","stnrlo":null,"stnrhi":null,"nrind":null,"pos":null,"loc":null,"dtc":"2024-04-14","dy":"26","visit":"WEEK 4","visitnum":"3.0","epoch":"TREATMENT"},{"seq":"21","testcd":"RESP","test":"Respiratory Rate","cat":null,"orres":"16.2","orresu":"breaths/min","stresc":"16.2","stresn":"16.2","stresu":"breaths/min","stnrlo":null,"stnrhi":null,"nrind":null,"pos":null,"loc":null,"dtc":"2024-04-14","dy":"26","visit":"WEEK 4","visitnum":"3.0","epoch":"TREATMENT"},{"seq":"22","testcd":"SYSBP","test":"Systolic Blood Pressure","cat":null,"orres":"128.2","orresu":"mmHg","stresc":"128.2","stresn":"128.2","stresu":"mmHg","stnrlo":null,"stnrhi":null,"nrind":null,"pos":null,"loc":null,"dtc":"2024-04-14","dy":"26","visit":"WEEK 4","visitnum":"3.0","epoch":"TREATMENT"},{"seq":"23","testcd":"TEMP","test":"Temperature","cat":null,"orres":"36.3","orresu":"C","stresc":"36.3","stresn":"36.3","stresu":"C","stnrlo":null,"stnrhi":null,"nrind":null,"pos":null,"loc":null,"dtc":"2024-04-14","dy":"26","visit":"WEEK 4","visitnum":"3.0","epoch":"TREATMENT"},{"seq":"24","testcd":"WEIGHT","test":"Weight","cat":null,"orres":"47.4","orresu":"kg","stresc":"47.4","stresn":"47.4","stresu":"kg","stnrlo":null,"stnrhi":null,"nrind":null,"pos":null,"loc":null,"dtc":"2024-04-14","dy":"26","visit":"WEEK 4","visitnum":"3.0","epoch":"TREATMENT"},{"seq":"25","testcd":"BMI","test":"BMI","cat":null,"orres":null,"orresu":null,"stresc":"22.4","stresn":"22.4","stresu":"kg/m2","stnrlo":null,"stnrhi":null,"nrind":null,"pos":null,"loc":null,"dtc":"2024-05-12","dy":"54","visit":"WEEK 8","visitnum":"4.0","epoch":"TREATMENT"},{"seq":"26","testcd":"DIABP","test":"Diastolic Blood Pressure","cat":null,"orres":"72.3","orresu":"mmHg","stresc":"72.3","stresn":"72.3","stresu":"mmHg","stnrlo":null,"stnrhi":null,"nrind":null,"pos":null,"loc":null,"dtc":"2024-05-12","dy":"54","visit":"WEEK 8","visitnum":"4.0","epoch":"TREATMENT"},{"seq":"27","testcd":"HEIGHT","test":"Height","cat":null,"orres":"148.3","orresu":"cm","stresc":"148.3","stresn":"148.3","stresu":"cm","stnrlo":null,"stnrhi":null,"nrind":null,"pos":null,"loc":null,"dtc":"2024-05-12","dy":"54","visit":"WEEK 8","visitnum":"4.0","epoch":"TREATMENT"},{"seq":"28","testcd":"PULSE","test":"Pulse Rate","cat":null,"orres":null,"orresu":null,"stresc":null,"stresn":null,"stresu":null,"stnrlo":null,"stnrhi":null,"nrind":null,"pos":null,"loc":null,"dtc":"2024-05-12","dy":"54","visit":"WEEK 8","visitnum":"4.0","epoch":"TREATMENT"},{"seq":"29","testcd":"RESP","test":"Respiratory Rate","cat":null,"orres":"16.4","orresu":"breaths/min","stresc":"16.4","stresn":"16.4","stresu":"breaths/min","stnrlo":null,"stnrhi":null,"nrind":null,"pos":null,"loc":null,"dtc":"2024-05-12","dy":"54","visit":"WEEK 8","visitnum":"4.0","epoch":"TREATMENT"},{"seq":"30","testcd":"SYSBP","test":"Systolic Blood Pressure","cat":null,"orres":"130.8","orresu":"mmHg","stresc":"130.8","stresn":"130.8","stresu":"mmHg","stnrlo":null,"stnrhi":null,"nrind":null,"pos":null,"loc":null,"dtc":"2024-05-12","dy":"54","visit":"WEEK 8","visitnum":"4.0","epoch":"TREATMENT"},{"seq":"31","testcd":"TEMP","test":"Temperature","cat":null,"orres":"36.3","orresu":"C","stresc":"36.3","stresn":"36.3","stresu":"C","stnrlo":null,"stnrhi":null,"nrind":null,"pos":null,"loc":null,"dtc":"2024-05-12","dy":"54","visit":"WEEK 8","visitnum":"4.0","epoch":"TREATMENT"},{"seq":"32","testcd":"WEIGHT","test":"Weight","cat":null,"orres":"49.2","orresu":"kg","stresc":"49.2","stresn":"49.2","stresu":"kg","stnrlo":null,"stnrhi":null,"nrind":null,"pos":null,"loc":null,"dtc":"2024-05-12","dy":"54","visit":"WEEK 8","visitnum":"4.0","epoch":"TREATMENT"},{"seq":"33","testcd":"BMI","test":"BMI","cat":null,"orres":null,"orresu":null,"stresc":"22.1","stresn":"22.1","stresu":"kg/m2","stnrlo":null,"stnrhi":null,"nrind":null,"pos":null,"loc":null,"dtc":"2024-06-09","dy":"82","visit":"WEEK 12","visitnum":"5.0","epoch":"TREATMENT"},{"seq":"34","testcd":"DIABP","test":"Diastolic Blood Pressure","cat":null,"orres":"72.1","orresu":"mmHg","stresc":"72.1","stresn":"72.1","stresu":"mmHg","stnrlo":null,"stnrhi":null,"nrind":null,"pos":null,"loc":null,"dtc":"2024-06-09","dy":"82","visit":"WEEK 12","visitnum":"5.0","epoch":"TREATMENT"},{"seq":"35","testcd":"HEIGHT","test":"Height","cat":null,"orres":"148.1","orresu":"cm","stresc":"148.1","stresn":"148.1","stresu":"cm","stnrlo":null,"stnrhi":null,"nrind":null,"pos":null,"loc":null,"dtc":"2024-06-09","dy":"82","visit":"WEEK 12","visitnum":"5.0","epoch":"TREATMENT"},{"seq":"36","testcd":"PULSE","test":"Pulse Rate","cat":null,"orres":"56.2","orresu":"beats/min","stresc":"56.2","stresn":"56.2","stresu":"beats/min","stnrlo":null,"stnrhi":null,"nrind":null,"pos":null,"loc":null,"dtc":"2024-06-09","dy":"82","visit":"WEEK 12","visitnum":"5.0","epoch":"TREATMENT"},{"seq":"37","testcd":"RESP","test":"Respiratory Rate","cat":null,"orres":"16.3","orresu":"breaths/min","stresc":"16.3","stresn":"16.3","stresu":"breaths/min","stnrlo":null,"stnrhi":null,"nrind":null,"pos":null,"loc":null,"dtc":"2024-06-09","dy":"82","visit":"WEEK 12","visitnum":"5.0","epoch":"TREATMENT"},{"seq":"38","testcd":"SYSBP","test":"Systolic Blood Pressure","cat":null,"orres":"130.2","orresu":"mmHg","stresc":"130.2","stresn":"130.2","stresu":"mmHg","stnrlo":null,"stnrhi":null,"nrind":null,"pos":null,"loc":null,"dtc":"2024-06-09","dy":"82","visit":"WEEK 12","visitnum":"5.0","epoch":"TREATMENT"},{"seq":"39","testcd":"TEMP","test":"Temperature","cat":null,"orres":"36.6","orresu":"C","stresc":"36.6","stresn":"36.6","stresu":"C","stnrlo":null,"stnrhi":null,"nrind":null,"pos":null,"loc":null,"dtc":"2024-06-09","dy":"82","visit":"WEEK 12","visitnum":"5.0","epoch":"TREATMENT"},{"seq":"40","testcd":"WEIGHT","test":"Weight","cat":null,"orres":"48.5","orresu":"kg","stresc":"48.5","stresn":"48.5","stresu":"kg","stnrlo":null,"stnrhi":null,"nrind":null,"pos":null,"loc":null,"dtc":"2024-06-09","dy":"82","visit":"WEEK 12","visitnum":"5.0","epoch":"TREATMENT"},{"seq":"41","testcd":"BMI","test":"BMI","cat":null,"orres":null,"orresu":null,"stresc":"20.7","stresn":"20.7","stresu":"kg/m2","stnrlo":null,"stnrhi":null,"nrind":null,"pos":null,"loc":null,"dtc":"2024-07-08","dy":"111","visit":"WEEK 16","visitnum":"6.0","epoch":"TREATMENT"},{"seq":"42","testcd":"DIABP","test":"Diastolic Blood Pressure","cat":null,"orres":"68.6","orresu":"mmHg","stresc":"68.6","stresn":"68.6","stresu":"mmHg","stnrlo":null,"stnrhi":null,"nrind":null,"pos":null,"loc":null,"dtc":"2024-07-08","dy":"111","visit":"WEEK 16","visitnum":"6.0","epoch":"TREATMENT"},{"seq":"43","testcd":"HEIGHT","test":"Height","cat":null,"orres":"148.6","orresu":"cm","stresc":"148.6","stresn":"148.6","stresu":"cm","stnrlo":null,"stnrhi":null,"nrind":null,"pos":null,"loc":null,"dtc":"2024-07-08","dy":"111","visit":"WEEK 16","visitnum":"6.0","epoch":"TREATMENT"},{"seq":"44","testcd":"PULSE","test":"Pulse Rate","cat":null,"orres":"52.9","orresu":"beats/min","stresc":"52.9","stresn":"52.9","stresu":"beats/min","stnrlo":null,"stnrhi":null,"nrind":null,"pos":null,"loc":null,"dtc":"2024-07-08","dy":"111","visit":"WEEK 16","visitnum":"6.0","epoch":"TREATMENT"},{"seq":"45","testcd":"RESP","test":"Respiratory Rate","cat":null,"orres":"13.3","orresu":"breaths/min","stresc":"13.3","stresn":"13.3","stresu":"breaths/min","stnrlo":null,"stnrhi":null,"nrind":null,"pos":null,"loc":null,"dtc":"2024-07-08","dy":"111","visit":"WEEK 16","visitnum":"6.0","epoch":"TREATMENT"},{"seq":"46","testcd":"SYSBP","test":"Systolic Blood Pressure","cat":null,"orres":"125.2","orresu":"mmHg","stresc":"125.2","stresn":"125.2","stresu":"mmHg","stnrlo":null,"stnrhi":null,"nrind":null,"pos":null,"loc":null,"dtc":"2024-07-08","dy":"111","visit":"WEEK 16","visitnum":"6.0","epoch":"TREATMENT"},{"seq":"47","testcd":"TEMP","test":"Temperature","cat":null,"orres":"36.5","orresu":"C","stresc":"36.5","stresn":"36.5","stresu":"C","stnrlo":null,"stnrhi":null,"nrind":null,"pos":null,"loc":null,"dtc":"2024-07-08","dy":"111","visit":"WEEK 16","visitnum":"6.0","epoch":"TREATMENT"},{"seq":"48","testcd":"WEIGHT","test":"Weight","cat":null,"orres":"45.7","orresu":"kg","stresc":"45.7","stresn":"45.7","stresu":"kg","stnrlo":null,"stnrhi":null,"nrind":null,"pos":null,"loc":null,"dtc":"2024-07-08","dy":"111","visit":"WEEK 16","visitnum":"6.0","epoch":"TREATMENT"},{"seq":"49","testcd":"BMI","test":"BMI","cat":null,"orres":null,"orresu":null,"stresc":"21.2","stresn":"21.2","stresu":"kg/m2","stnrlo":null,"stnrhi":null,"nrind":null,"pos":null,"loc":null,"dtc":"2024-09-01","dy":"166","visit":"WEEK 24","visitnum":"7.0","epoch":"TREATMENT"},{"seq":"50","testcd":"DIABP","test":"Diastolic Blood Pressure","cat":null,"orres":"68.7","orresu":"mmHg","stresc":"68.7","stresn":"68.7","stresu":"mmHg","stnrlo":null,"stnrhi":null,"nrind":null,"pos":null,"loc":null,"dtc":"2024-09-01","dy":"166","visit":"WEEK 24","visitnum":"7.0","epoch":"TREATMENT"},{"seq":"51","testcd":"HEIGHT","test":"Height","cat":null,"orres":"148.1","orresu":"cm","stresc":"148.1","stresn":"148.1","stresu":"cm","stnrlo":null,"stnrhi":null,"nrind":null,"pos":null,"loc":null,"dtc":"2024-09-01","dy":"166","visit":"WEEK 24","visitnum":"7.0","epoch":"TREATMENT"},{"seq":"52","testcd":"PULSE","test":"Pulse Rate","cat":null,"orres":"58.1","orresu":"beats/min","stresc":"58.1","stresn":"58.1","stresu":"beats/min","stnrlo":null,"stnrhi":null,"nrind":null,"pos":null,"loc":null,"dtc":"2024-09-01","dy":"166","visit":"WEEK 24","visitnum":"7.0","epoch":"TREATMENT"},{"seq":"53","testcd":"RESP","test":"Respiratory Rate","cat":null,"orres":"14.4","orresu":"breaths/min","stresc":"14.4","stresn":"14.4","stresu":"breaths/min","stnrlo":null,"stnrhi":null,"nrind":null,"pos":null,"loc":null,"dtc":"2024-09-01","dy":"166","visit":"WEEK 24","visitnum":"7.0","epoch":"TREATMENT"},{"seq":"54","testcd":"SYSBP","test":"Systolic Blood Pressure","cat":null,"orres":"123.2","orresu":"mmHg","stresc":"123.2","stresn":"123.2","stresu":"mmHg","stnrlo":null,"stnrhi":null,"nrind":null,"pos":null,"loc":null,"dtc":"2024-09-01","dy":"166","visit":"WEEK 24","visitnum":"7.0","epoch":"TREATMENT"},{"seq":"55","testcd":"TEMP","test":"Temperature","cat":null,"orres":"36.4","orresu":"C","stresc":"36.4","stresn":"36.4","stresu":"C","stnrlo":null,"stnrhi":null,"nrind":null,"pos":null,"loc":null,"dtc":"2024-09-01","dy":"166","visit":"WEEK 24","visitnum":"7.0","epoch":"TREATMENT"},{"seq":"56","testcd":"WEIGHT","test":"Weight","cat":null,"orres":"46.5","orresu":"kg","stresc":"46.5","stresn":"46.5","stresu":"kg","stnrlo":null,"stnrhi":null,"nrind":null,"pos":null,"loc":null,"dtc":"2024-09-01","dy":"166","visit":"WEEK 24","visitnum":"7.0","epoch":"TREATMENT"},{"seq":"57","testcd":"BMI","test":"BMI","cat":null,"orres":null,"orresu":null,"stresc":"20.3","stresn":"20.3","stresu":"kg/m2","stnrlo":null,"stnrhi":null,"nrind":null,"pos":null,"loc":null,"dtc":"2024-11-29","dy":"255","visit":"WEEK 36","visitnum":"8.0","epoch":"TREATMENT"},{"seq":"58","testcd":"DIABP","test":"Diastolic Blood Pressure","cat":null,"orres":"70.2","orresu":"mmHg","stresc":"70.2","stresn":"70.2","stresu":"mmHg","stnrlo":null,"stnrhi":null,"nrind":null,"pos":null,"loc":null,"dtc":"2024-11-29","dy":"255","visit":"WEEK 36","visitnum":"8.0","epoch":"TREATMENT"},{"seq":"59","testcd":"HEIGHT","test":"Height","cat":null,"orres":"147.6","orresu":"cm","stresc":"147.6","stresn":"147.6","stresu":"cm","stnrlo":null,"stnrhi":null,"nrind":null,"pos":null,"loc":null,"dtc":"2024-11-29","dy":"255","visit":"WEEK 36","visitnum":"8.0","epoch":"TREATMENT"},{"seq":"60","testcd":"PULSE","test":"Pulse Rate","cat":null,"orres":"63.9","orresu":"beats/min","stresc":"63.9","stresn":"63.9","stresu":"beats/min","stnrlo":null,"stnrhi":null,"nrind":null,"pos":null,"loc":null,"dtc":"2024-11-29","dy":"255","visit":"WEEK 36","visitnum":"8.0","epoch":"TREATMENT"},{"seq":"61","testcd":"RESP","test":"Respiratory Rate","cat":null,"orres":"15.5","orresu":"breaths/min","stresc":"15.5","stresn":"15.5","stresu":"breaths/min","stnrlo":null,"stnrhi":null,"nrind":null,"pos":null,"loc":null,"dtc":"2024-11-29","dy":"255","visit":"WEEK 36","visitnum":"8.0","epoch":"TREATMENT"},{"seq":"62","testcd":"SYSBP","test":"Systolic Blood Pressure","cat":null,"orres":"124.7","orresu":"mmHg","stresc":"124.7","stresn":"124.7","stresu":"mmHg","stnrlo":null,"stnrhi":null,"nrind":null,"pos":null,"loc":null,"dtc":"2024-11-29","dy":"255","visit":"WEEK 36","visitnum":"8.0","epoch":"TREATMENT"},{"seq":"63","testcd":"TEMP","test":"Temperature","cat":null,"orres":"36.3","orresu":"C","stresc":"36.3","stresn":"36.3","stresu":"C","stnrlo":null,"stnrhi":null,"nrind":null,"pos":null,"loc":null,"dtc":"2024-11-29","dy":"255","visit":"WEEK 36","visitnum":"8.0","epoch":"TREATMENT"},{"seq":"64","testcd":"WEIGHT","test":"Weight","cat":null,"orres":"44.3","orresu":"kg","stresc":"44.3","stresn":"44.3","stresu":"kg","stnrlo":null,"stnrhi":null,"nrind":null,"pos":null,"loc":null,"dtc":"2024-11-29","dy":"255","visit":"WEEK 36","visitnum":"8.0","epoch":"TREATMENT"},{"seq":"65","testcd":"BMI","test":"BMI","cat":null,"orres":null,"orresu":null,"stresc":"21.2","stresn":"21.2","stresu":"kg/m2","stnrlo":null,"stnrhi":null,"nrind":null,"pos":null,"loc":null,"dtc":"2024-12-26","dy":"282","visit":"WEEK 40 EOT","visitnum":"9.0","epoch":"TREATMENT"},{"seq":"66","testcd":"DIABP","test":"Diastolic Blood Pressure","cat":null,"orres":"70.6","orresu":"mmHg","stresc":"70.6","stresn":"70.6","stresu":"mmHg","stnrlo":null,"stnrhi":null,"nrind":null,"pos":null,"loc":null,"dtc":"2024-12-26","dy":"282","visit":"WEEK 40 EOT","visitnum":"9.0","epoch":"TREATMENT"},{"seq":"67","testcd":"HEIGHT","test":"Height","cat":null,"orres":"147.7","orresu":"cm","stresc":"147.7","stresn":"147.7","stresu":"cm","stnrlo":null,"stnrhi":null,"nrind":null,"pos":null,"loc":null,"dtc":"2024-12-26","dy":"282","visit":"WEEK 40 EOT","visitnum":"9.0","epoch":"TREATMENT"},{"seq":"68","testcd":"PULSE","test":"Pulse Rate","cat":null,"orres":"58.3","orresu":"beats/min","stresc":"58.3","stresn":"58.3","stresu":"beats/min","stnrlo":null,"stnrhi":null,"nrind":null,"pos":null,"loc":null,"dtc":"2024-12-26","dy":"282","visit":"WEEK 40 EOT","visitnum":"9.0","epoch":"TREATMENT"},{"seq":"69","testcd":"RESP","test":"Respiratory Rate","cat":null,"orres":"15.7","orresu":"breaths/min","stresc":"15.7","stresn":"15.7","stresu":"breaths/min","stnrlo":null,"stnrhi":null,"nrind":null,"pos":null,"loc":null,"dtc":"2024-12-26","dy":"282","visit":"WEEK 40 EOT","visitnum":"9.0","epoch":"TREATMENT"},{"seq":"70","testcd":"SYSBP","test":"Systolic Blood Pressure","cat":null,"orres":"123.8","orresu":"mmHg","stresc":"123.8","stresn":"123.8","stresu":"mmHg","stnrlo":null,"stnrhi":null,"nrind":null,"pos":null,"loc":null,"dtc":"2024-12-26","dy":"282","visit":"WEEK 40 EOT","visitnum":"9.0","epoch":"TREATMENT"},{"seq":"71","testcd":"TEMP","test":"Temperature","cat":null,"orres":"36.4","orresu":"C","stresc":"36.4","stresn":"36.4","stresu":"C","stnrlo":null,"stnrhi":null,"nrind":null,"pos":null,"loc":null,"dtc":"2024-12-26","dy":"282","visit":"WEEK 40 EOT","visitnum":"9.0","epoch":"TREATMENT"},{"seq":"72","testcd":"WEIGHT","test":"Weight","cat":null,"orres":"46.3","orresu":"kg","stresc":"46.3","stresn":"46.3","stresu":"kg","stnrlo":null,"stnrhi":null,"nrind":null,"pos":null,"loc":null,"dtc":"2024-12-26","dy":"282","visit":"WEEK 40 EOT","visitnum":"9.0","epoch":"TREATMENT"},{"seq":"73","testcd":"BMI","test":"BMI","cat":null,"orres":null,"orresu":null,"stresc":"20.7","stresn":"20.7","stresu":"kg/m2","stnrlo":null,"stnrhi":null,"nrind":null,"pos":null,"loc":null,"dtc":"2025-05-08","dy":"415","visit":"WEEK 60 FU","visitnum":"10.0","epoch":"FOLLOW-UP"},{"seq":"74","testcd":"DIABP","test":"Diastolic Blood Pressure","cat":null,"orres":"68.3","orresu":"mmHg","stresc":"68.3","stresn":"68.3","stresu":"mmHg","stnrlo":null,"stnrhi":null,"nrind":null,"pos":null,"loc":null,"dtc":"2025-05-08","dy":"415","visit":"WEEK 60 FU","visitnum":"10.0","epoch":"FOLLOW-UP"},{"seq":"75","testcd":"HEIGHT","test":"Height","cat":null,"orres":"147.8","orresu":"cm","stresc":"147.8","stresn":"147.8","stresu":"cm","stnrlo":null,"stnrhi":null,"nrind":null,"pos":null,"loc":null,"dtc":"2025-05-08","dy":"415","visit":"WEEK 60 FU","visitnum":"10.0","epoch":"FOLLOW-UP"},{"seq":"76","testcd":"PULSE","test":"Pulse Rate","cat":null,"orres":"55.2","orresu":"beats/min","stresc":"55.2","stresn":"55.2","stresu":"beats/min","stnrlo":null,"stnrhi":null,"nrind":null,"pos":null,"loc":null,"dtc":"2025-05-08","dy":"415","visit":"WEEK 60 FU","visitnum":"10.0","epoch":"FOLLOW-UP"},{"seq":"77","testcd":"RESP","test":"Respiratory Rate","cat":null,"orres":"16.3","orresu":"breaths/min","stresc":"16.3","stresn":"16.3","stresu":"breaths/min","stnrlo":null,"stnrhi":null,"nrind":null,"pos":null,"loc":null,"dtc":"2025-05-08","dy":"415","visit":"WEEK 60 FU","visitnum":"10.0","epoch":"FOLLOW-UP"},{"seq":"78","testcd":"SYSBP","test":"Systolic Blood Pressure","cat":null,"orres":"123.3","orresu":"mmHg","stresc":"123.3","stresn":"123.3","stresu":"mmHg","stnrlo":null,"stnrhi":null,"nrind":null,"pos":null,"loc":null,"dtc":"2025-05-08","dy":"415","visit":"WEEK 60 FU","visitnum":"10.0","epoch":"FOLLOW-UP"},{"seq":"79","testcd":"TEMP","test":"Temperature","cat":null,"orres":"36.5","orresu":"C","stresc":"36.5","stresn":"36.5","stresu":"C","stnrlo":null,"stnrhi":null,"nrind":null,"pos":null,"loc":null,"dtc":"2025-05-08","dy":"415","visit":"WEEK 60 FU","visitnum":"10.0","epoch":"FOLLOW-UP"},{"seq":"80","testcd":"WEIGHT","test":"Weight","cat":null,"orres":"45.2","orresu":"kg","stresc":"45.2","stresn":"45.2","stresu":"kg","stnrlo":null,"stnrhi":null,"nrind":null,"pos":null,"loc":null,"dtc":"2025-05-08","dy":"415","visit":"WEEK 60 FU","visitnum":"10.0","epoch":"FOLLOW-UP"}]},"section_10_questionnaires_and_scores":{"questionnaires":[],"findings_about":[]},"section_11_protocol_deviations":{"deviations":[{"seq":"1","term":"Visit WEEK 8 occurred 3 days early (Day 54 vs planned Day 57)","decod":"VISIT OCCURRED OUTSIDE VISIT WINDOW","cat":"MINOR","scat":"VISIT WINDOW","start_dtc":"2024-05-12","end_dtc":null,"visit":null},{"seq":"2","term":"Visit WEEK 12 occurred 3 days early (Day 82 vs planned Day 85)","decod":"VISIT OCCURRED OUTSIDE VISIT WINDOW","cat":"MINOR","scat":"VISIT WINDOW","start_dtc":"2024-06-09","end_dtc":null,"visit":null},{"seq":"3","term":"Visit WEEK 40 EOT occurred 1 days late (Day 282 vs planned Day 281)","decod":"VISIT OCCURRED OUTSIDE VISIT WINDOW","cat":"MINOR","scat":"VISIT WINDOW","start_dtc":"2024-12-26","end_dtc":null,"visit":null},{"seq":"4","term":"Visit WEEK 60 FU occurred 6 days early (Day 415 vs planned Day 421)","decod":"VISIT OCCURRED OUTSIDE VISIT WINDOW","cat":"MINOR","scat":"VISIT WINDOW","start_dtc":"2025-05-08","end_dtc":null,"visit":null}],"total":4},"section_12_disposition":{"completion_status":"COMPLETED","disposition_records":[{"seq":"1","term":"INFORMED CONSENT OBTAINED","decod":"INFORMED CONSENT OBTAINED","cat":"PROTOCOL MILESTONE","scat":null,"dtc":"2024-02-22","dy":null,"visit":null,"epoch":"SCREENING"},{"seq":"2","term":"RANDOMIZED","decod":"RANDOMIZED","cat":"PROTOCOL MILESTONE","scat":null,"dtc":"2024-03-20","dy":null,"visit":null,"epoch":"TREATMENT"},{"seq":"3","term":"COMPLETED","decod":"COMPLETED","cat":"DISPOSITION EVENT","scat":null,"dtc":"2025-06-17","dy":null,"visit":null,"epoch":"FOLLOW-UP"}],"death":null},"section_13_hospitalizations":{"items":[],"total":0},"section_14_substance_use":{"items":[{"seq":"1","substance":"BEER/WINE/SPIRITS","decod":"ETHANOL","cat":"ALCOHOL","scat":null,"usage":"N","dose":null,"dosu":null,"freq":null,"start_dtc":null,"end_dtc":null},{"seq":"2","substance":"COFFEE","decod":"COFFEE","cat":"CAFFEINE","scat":null,"usage":"N","dose":null,"dosu":null,"freq":null,"start_dtc":null,"end_dtc":null},{"seq":"3","substance":"CIGARETTES","decod":"CIGARETTES","cat":"TOBACCO","scat":null,"usage":"Y","dose":null,"dosu":null,"freq":null,"start_dtc":"1996-02-29","end_dtc":"2021-02-22"}],"total":3},"section_15_subject_status":{"items":[{"seq":"1","testcd":"SURVSTAT","test":"Survival Status","orres":"ALIVE","stresc":"ALIVE","dtc":"2025-06-17","visit":null,"epoch":"FOLLOW-UP"}],"total":1}}