STUDYID,DOMAIN,USUBJID,FASEQ,FATESTCD,FATEST,FAOBJ,FACAT,FASCAT,FAORRES,FAORRESU,FASTRESC,FASTRESN,FASTRESU,FASTAT,FABLFL,VISITNUM,VISIT,EPOCH,FADTC,FADY
MS200095-0022-VISION,FA,MS200095-0022-VISION-CHN_SITE01-0001,1,LDIAM,Longest Diameter,TARGET LESION 1,TUMOR ASSESSMENT,,39.7,mm,39.7,39.7,mm,,,1.0,SCREENING,SCREENING,2024-02-13,-12
MS200095-0022-VISION,FA,MS200095-0022-VISION-CHN_SITE01-0001,2,SAXIS,Short Axis,TARGET LESION 1,TUMOR ASSESSMENT,,12.0,mm,12.0,12.0,mm,,,1.0,SCREENING,SCREENING,2024-02-13,-12
MS200095-0022-VISION,FA,MS200095-0022-VISION-CHN_SITE01-0001,3,LDIAM,Longest Diameter,TARGET LESION 2,TUMOR ASSESSMENT,,40.1,mm,40.1,40.1,mm,,,1.0,SCREENING,SCREENING,2024-02-13,-12
MS200095-0022-VISION,FA,MS200095-0022-VISION-CHN_SITE01-0001,4,SAXIS,Short Axis,TARGET LESION 2,TUMOR ASSESSMENT,,6.6,mm,6.6,6.6,mm,,,1.0,SCREENING,SCREENING,2024-02-13,-12
MS200095-0022-VISION,FA,MS200095-0022-VISION-CHN_SITE01-0001,5,LDIAM,Longest Diameter,TARGET LESION 3,TUMOR ASSESSMENT,,36.3,mm,36.3,36.3,mm,,,1.0,SCREENING,SCREENING,2024-02-13,-12
MS200095-0022-VISION,FA,MS200095-0022-VISION-CHN_SITE01-0001,6,SAXIS,Short Axis,TARGET LESION 3,TUMOR ASSESSMENT,,11.9,mm,11.9,11.9,mm,,,1.0,SCREENING,SCREENING,2024-02-13,-12
MS200095-0022-VISION,FA,MS200095-0022-VISION-CHN_SITE01-0001,7,LDIAM,Longest Diameter,TARGET LESION 1,TUMOR ASSESSMENT,,39.0,mm,39.0,39.0,mm,,Y,2.0,C1D1,TREATMENT,2024-02-25,1
MS200095-0022-VISION,FA,MS200095-0022-VISION-CHN_SITE01-0001,8,SAXIS,Short Axis,TARGET LESION 1,TUMOR ASSESSMENT,,10.9,mm,10.9,10.9,mm,,Y,2.0,C1D1,TREATMENT,2024-02-25,1
MS200095-0022-VISION,FA,MS200095-0022-VISION-CHN_SITE01-0001,9,LDIAM,Longest Diameter,TARGET LESION 2,TUMOR ASSESSMENT,,38.1,mm,38.1,38.1,mm,,,2.0,C1D1,TREATMENT,2024-02-25,1
MS200095-0022-VISION,FA,MS200095-0022-VISION-CHN_SITE01-0001,10,SAXIS,Short Axis,TARGET LESION 2,TUMOR ASSESSMENT,,6.6,mm,6.6,6.6,mm,,,2.0,C1D1,TREATMENT,2024-02-25,1
MS200095-0022-VISION,FA,MS200095-0022-VISION-CHN_SITE01-0001,11,LDIAM,Longest Diameter,TARGET LESION 3,TUMOR ASSESSMENT,,35.4,mm,35.4,35.4,mm,,,2.0,C1D1,TREATMENT,2024-02-25,1
MS200095-0022-VISION,FA,MS200095-0022-VISION-CHN_SITE01-0001,12,SAXIS,Short Axis,TARGET LESION 3,TUMOR ASSESSMENT,,11.5,mm,11.5,11.5,mm,,,2.0,C1D1,TREATMENT,2024-02-25,1
MS200095-0022-VISION,FA,MS200095-0022-VISION-CHN_SITE01-0001,13,LDIAM,Longest Diameter,TARGET LESION 1,TUMOR ASSESSMENT,,38.6,mm,38.6,38.6,mm,,,3.0,C1D15,TREATMENT,2024-03-10,15
MS200095-0022-VISION,FA,MS200095-0022-VISION-CHN_SITE01-0001,14,SAXIS,Short Axis,TARGET LESION 1,TUMOR ASSESSMENT,,11.8,mm,11.8,11.8,mm,,,3.0,C1D15,TREATMENT,2024-03-10,15
MS200095-0022-VISION,FA,MS200095-0022-VISION-CHN_SITE01-0001,15,LDIAM,Longest Diameter,TARGET LESION 2,TUMOR ASSESSMENT,,39.5,mm,39.5,39.5,mm,,,3.0,C1D15,TREATMENT,2024-03-10,15
MS200095-0022-VISION,FA,MS200095-0022-VISION-CHN_SITE01-0001,16,SAXIS,Short Axis,TARGET LESION 2,TUMOR ASSESSMENT,,5.8,mm,5.8,5.8,mm,,,3.0,C1D15,TREATMENT,2024-03-10,15
MS200095-0022-VISION,FA,MS200095-0022-VISION-CHN_SITE01-0001,17,LDIAM,Longest Diameter,TARGET LESION 3,TUMOR ASSESSMENT,,32.4,mm,32.4,32.4,mm,,,3.0,C1D15,TREATMENT,2024-03-10,15
MS200095-0022-VISION,FA,MS200095-0022-VISION-CHN_SITE01-0001,18,SAXIS,Short Axis,TARGET LESION 3,TUMOR ASSESSMENT,,11.7,mm,11.7,11.7,mm,,,3.0,C1D15,TREATMENT,2024-03-10,15
MS200095-0022-VISION,FA,MS200095-0022-VISION-CHN_SITE01-0015,1,LDIAM,Longest Diameter,TARGET LESION 1,TUMOR ASSESSMENT,,18.3,mm,18.3,18.3,mm,,,1.0,SCREENING,SCREENING,2024-04-01,-32
MS200095-0022-VISION,FA,MS200095-0022-VISION-CHN_SITE01-0015,2,SAXIS,Short Axis,TARGET LESION 1,TUMOR ASSESSMENT,,19.8,mm,19.8,19.8,mm,,,1.0,SCREENING,SCREENING,2024-04-01,-32
MS200095-0022-VISION,FA,MS200095-0022-VISION-CHN_SITE01-0015,3,LDIAM,Longest Diameter,TARGET LESION 2,TUMOR ASSESSMENT,,42.5,mm,42.5,42.5,mm,,,1.0,SCREENING,SCREENING,2024-04-01,-32
MS200095-0022-VISION,FA,MS200095-0022-VISION-CHN_SITE01-0015,4,SAXIS,Short Axis,TARGET LESION 2,TUMOR ASSESSMENT,,8.3,mm,8.3,8.3,mm,,,1.0,SCREENING,SCREENING,2024-04-01,-32
MS200095-0022-VISION,FA,MS200095-0022-VISION-CHN_SITE01-0015,5,LDIAM,Longest Diameter,TARGET LESION 1,TUMOR ASSESSMENT,,16.5,mm,16.5,16.5,mm,,Y,2.0,C1D1,TREATMENT,2024-05-03,1
MS200095-0022-VISION,FA,MS200095-0022-VISION-CHN_SITE01-0015,6,SAXIS,Short Axis,TARGET LESION 1,TUMOR ASSESSMENT,,18.8,mm,18.8,18.8,mm,,Y,2.0,C1D1,TREATMENT,2024-05-03,1
MS200095-0022-VISION,FA,MS200095-0022-VISION-CHN_SITE01-0015,7,LDIAM,Longest Diameter,TARGET LESION 2,TUMOR ASSESSMENT,,41.9,mm,41.9,41.9,mm,,,2.0,C1D1,TREATMENT,2024-05-03,1
MS200095-0022-VISION,FA,MS200095-0022-VISION-CHN_SITE01-0015,8,SAXIS,Short Axis,TARGET LESION 2,TUMOR ASSESSMENT,,8.0,mm,8.0,8.0,mm,,,2.0,C1D1,TREATMENT,2024-05-03,1
MS200095-0022-VISION,FA,MS200095-0022-VISION-CHN_SITE01-0015,9,LDIAM,Longest Diameter,TARGET LESION 1,TUMOR ASSESSMENT,,17.4,mm,17.4,17.4,mm,,,3.0,C1D15,TREATMENT,2024-05-17,15
MS200095-0022-VISION,FA,MS200095-0022-VISION-CHN_SITE01-0015,10,SAXIS,Short Axis,TARGET LESION 1,TUMOR ASSESSMENT,,18.6,mm,18.6,18.6,mm,,,3.0,C1D15,TREATMENT,2024-05-17,15
MS200095-0022-VISION,FA,MS200095-0022-VISION-CHN_SITE01-0015,11,LDIAM,Longest Diameter,TARGET LESION 2,TUMOR ASSESSMENT,,39.6,mm,39.6,39.6,mm,,,3.0,C1D15,TREATMENT,2024-05-17,15
MS200095-0022-VISION,FA,MS200095-0022-VISION-CHN_SITE01-0015,12,SAXIS,Short Axis,TARGET LESION 2,TUMOR ASSESSMENT,,6.9,mm,6.9,6.9,mm,,,3.0,C1D15,TREATMENT,2024-05-17,15
MS200095-0022-VISION,FA,MS200095-0022-VISION-CHN_SITE01-0015,13,LDIAM,Longest Diameter,TARGET LESION 1,TUMOR ASSESSMENT,,15.5,mm,15.5,15.5,mm,,,4.0,C2D1,TREATMENT,2024-05-24,22
MS200095-0022-VISION,FA,MS200095-0022-VISION-CHN_SITE01-0015,14,SAXIS,Short Axis,TARGET LESION 1,TUMOR ASSESSMENT,,17.8,mm,17.8,17.8,mm,,,4.0,C2D1,TREATMENT,2024-05-24,22
MS200095-0022-VISION,FA,MS200095-0022-VISION-CHN_SITE01-0015,15,LDIAM,Longest Diameter,TARGET LESION 2,TUMOR ASSESSMENT,,36.3,mm,36.3,36.3,mm,,,4.0,C2D1,TREATMENT,2024-05-24,22
MS200095-0022-VISION,FA,MS200095-0022-VISION-CHN_SITE01-0015,16,SAXIS,Short Axis,TARGET LESION 2,TUMOR ASSESSMENT,,7.3,mm,7.3,7.3,mm,,,4.0,C2D1,TREATMENT,2024-05-24,22
MS200095-0022-VISION,FA,MS200095-0022-VISION-CHN_SITE01-0015,17,LDIAM,Longest Diameter,TARGET LESION 1,TUMOR ASSESSMENT,,14.0,mm,14.0,14.0,mm,,,5.0,C3D1,TREATMENT,2024-06-14,43
MS200095-0022-VISION,FA,MS200095-0022-VISION-CHN_SITE01-0015,18,SAXIS,Short Axis,TARGET LESION 1,TUMOR ASSESSMENT,,17.2,mm,17.2,17.2,mm,,,5.0,C3D1,TREATMENT,2024-06-14,43
MS200095-0022-VISION,FA,MS200095-0022-VISION-CHN_SITE01-0015,19,LDIAM,Longest Diameter,TARGET LESION 2,TUMOR ASSESSMENT,,38.8,mm,38.8,38.8,mm,,,5.0,C3D1,TREATMENT,2024-06-14,43
MS200095-0022-VISION,FA,MS200095-0022-VISION-CHN_SITE01-0015,20,SAXIS,Short Axis,TARGET LESION 2,TUMOR ASSESSMENT,,8.3,mm,8.3,8.3,mm,,,5.0,C3D1,TREATMENT,2024-06-14,43
MS200095-0022-VISION,FA,MS200095-0022-VISION-CHN_SITE01-0015,21,LDIAM,Longest Diameter,TARGET LESION 1,TUMOR ASSESSMENT,,16.8,mm,16.8,16.8,mm,,,6.0,C4D1,TREATMENT,2024-07-05,64
MS200095-0022-VISION,FA,MS200095-0022-VISION-CHN_SITE01-0015,22,SAXIS,Short Axis,TARGET LESION 1,TUMOR ASSESSMENT,,17.2,mm,17.2,17.2,mm,,,6.0,C4D1,TREATMENT,2024-07-05,64
MS200095-0022-VISION,FA,MS200095-0022-VISION-CHN_SITE01-0015,23,LDIAM,Longest Diameter,TARGET LESION 2,TUMOR ASSESSMENT,,33.8,mm,33.8,33.8,mm,,,6.0,C4D1,TREATMENT,2024-07-05,64
MS200095-0022-VISION,FA,MS200095-0022-VISION-CHN_SITE01-0015,24,SAXIS,Short Axis,TARGET LESION 2,TUMOR ASSESSMENT,,7.3,mm,7.3,7.3,mm,,,6.0,C4D1,TREATMENT,2024-07-05,64
MS200095-0022-VISION,FA,MS200095-0022-VISION-CHN_SITE01-0015,25,LDIAM,Longest Diameter,TARGET LESION 1,TUMOR ASSESSMENT,,13.9,mm,13.9,13.9,mm,,,7.0,C6D1,TREATMENT,2024-08-16,106
MS200095-0022-VISION,FA,MS200095-0022-VISION-CHN_SITE01-0015,26,SAXIS,Short Axis,TARGET LESION 1,TUMOR ASSESSMENT,,15.8,mm,15.8,15.8,mm,,,7.0,C6D1,TREATMENT,2024-08-16,106
MS200095-0022-VISION,FA,MS200095-0022-VISION-CHN_SITE01-0015,27,LDIAM,Longest Diameter,TARGET LESION 2,TUMOR ASSESSMENT,,30.6,mm,30.6,30.6,mm,,,7.0,C6D1,TREATMENT,2024-08-16,106
MS200095-0022-VISION,FA,MS200095-0022-VISION-CHN_SITE01-0015,28,SAXIS,Short Axis,TARGET LESION 2,TUMOR ASSESSMENT,,6.3,mm,6.3,6.3,mm,,,7.0,C6D1,TREATMENT,2024-08-16,106
MS200095-0022-VISION,FA,MS200095-0022-VISION-CHN_SITE01-0015,29,LDIAM,Longest Diameter,TARGET LESION 1,TUMOR ASSESSMENT,,14.4,mm,14.4,14.4,mm,,,8.0,C8D1,TREATMENT,2024-09-27,148
MS200095-0022-VISION,FA,MS200095-0022-VISION-CHN_SITE01-0015,30,SAXIS,Short Axis,TARGET LESION 1,TUMOR ASSESSMENT,,14.4,mm,14.4,14.4,mm,,,8.0,C8D1,TREATMENT,2024-09-27,148
MS200095-0022-VISION,FA,MS200095-0022-VISION-CHN_SITE01-0015,31,LDIAM,Longest Diameter,TARGET LESION 2,TUMOR ASSESSMENT,,31.5,mm,31.5,31.5,mm,,,8.0,C8D1,TREATMENT,2024-09-27,148
MS200095-0022-VISION,FA,MS200095-0022-VISION-CHN_SITE01-0015,32,SAXIS,Short Axis,TARGET LESION 2,TUMOR ASSESSMENT,,6.4,mm,6.4,6.4,mm,,,8.0,C8D1,TREATMENT,2024-09-27,148
MS200095-0022-VISION,FA,MS200095-0022-VISION-CHN_SITE01-0015,33,LDIAM,Longest Diameter,TARGET LESION 1,TUMOR ASSESSMENT,,12.4,mm,12.4,12.4,mm,,,9.0,C12D1,TREATMENT,2024-12-20,232
MS200095-0022-VISION,FA,MS200095-0022-VISION-CHN_SITE01-0015,34,SAXIS,Short Axis,TARGET LESION 1,TUMOR ASSESSMENT,,14.5,mm,14.5,14.5,mm,,,9.0,C12D1,TREATMENT,2024-12-20,232
MS200095-0022-VISION,FA,MS200095-0022-VISION-CHN_SITE01-0015,35,LDIAM,Longest Diameter,TARGET LESION 2,TUMOR ASSESSMENT,,29.6,mm,29.6,29.6,mm,,,9.0,C12D1,TREATMENT,2024-12-20,232
MS200095-0022-VISION,FA,MS200095-0022-VISION-CHN_SITE01-0015,36,SAXIS,Short Axis,TARGET LESION 2,TUMOR ASSESSMENT,,5.7,mm,5.7,5.7,mm,,,9.0,C12D1,TREATMENT,2024-12-20,232
MS200095-0022-VISION,FA,MS200095-0022-VISION-CHN_SITE01-0015,37,LDIAM,Longest Diameter,TARGET LESION 1,TUMOR ASSESSMENT,,11.9,mm,11.9,11.9,mm,,,10.0,C18D1,TREATMENT,2025-04-25,358
MS200095-0022-VISION,FA,MS200095-0022-VISION-CHN_SITE01-0015,38,SAXIS,Short Axis,TARGET LESION 1,TUMOR ASSESSMENT,,12.7,mm,12.7,12.7,mm,,,10.0,C18D1,TREATMENT,2025-04-25,358
MS200095-0022-VISION,FA,MS200095-0022-VISION-CHN_SITE01-0015,39,LDIAM,Longest Diameter,TARGET LESION 2,TUMOR ASSESSMENT,,27.7,mm,27.7,27.7,mm,,,10.0,C18D1,TREATMENT,2025-04-25,358
MS200095-0022-VISION,FA,MS200095-0022-VISION-CHN_SITE01-0015,40,SAXIS,Short Axis,TARGET LESION 2,TUMOR ASSESSMENT,,6.0,mm,6.0,6.0,mm,,,10.0,C18D1,TREATMENT,2025-04-25,358
MS200095-0022-VISION,FA,MS200095-0022-VISION-CHN_SITE01-0015,41,LDIAM,Longest Diameter,TARGET LESION 1,TUMOR ASSESSMENT,,11.7,mm,11.7,11.7,mm,,,11.0,C24D1,TREATMENT,2025-08-29,484
MS200095-0022-VISION,FA,MS200095-0022-VISION-CHN_SITE01-0015,42,SAXIS,Short Axis,TARGET LESION 1,TUMOR ASSESSMENT,,12.4,mm,12.4,12.4,mm,,,11.0,C24D1,TREATMENT,2025-08-29,484
MS200095-0022-VISION,FA,MS200095-0022-VISION-CHN_SITE01-0015,43,LDIAM,Longest Diameter,TARGET LESION 2,TUMOR ASSESSMENT,,29.6,mm,29.6,29.6,mm,,,11.0,C24D1,TREATMENT,2025-08-29,484
MS200095-0022-VISION,FA,MS200095-0022-VISION-CHN_SITE01-0015,44,SAXIS,Short Axis,TARGET LESION 2,TUMOR ASSESSMENT,,4.4,mm,4.4,4.4,mm,,,11.0,C24D1,TREATMENT,2025-08-29,484
MS200095-0022-VISION,FA,MS200095-0022-VISION-CHN_SITE01-0015,45,LDIAM,Longest Diameter,TARGET LESION 1,TUMOR ASSESSMENT,,9.1,mm,9.1,9.1,mm,,,12.0,EOT,FOLLOW-UP,2025-09-19,505
MS200095-0022-VISION,FA,MS200095-0022-VISION-CHN_SITE01-0015,46,SAXIS,Short Axis,TARGET LESION 1,TUMOR ASSESSMENT,,11.9,mm,11.9,11.9,mm,,,12.0,EOT,FOLLOW-UP,2025-09-19,505
MS200095-0022-VISION,FA,MS200095-0022-VISION-CHN_SITE01-0015,47,LDIAM,Longest Diameter,TARGET LESION 2,TUMOR ASSESSMENT,,25.7,mm,25.7,25.7,mm,,,12.0,EOT,FOLLOW-UP,2025-09-19,505
MS200095-0022-VISION,FA,MS200095-0022-VISION-CHN_SITE01-0015,48,SAXIS,Short Axis,TARGET LESION 2,TUMOR ASSESSMENT,,5.7,mm,5.7,5.7,mm,,,12.0,EOT,FOLLOW-UP,2025-09-19,505
MS200095-0022-VISION,FA,MS200095-0022-VISION-DEU_SITE01-0009,1,LDIAM,Longest Diameter,TARGET LESION 1,TUMOR ASSESSMENT,,44.1,mm,44.1,44.1,mm,,,1.0,SCREENING,SCREENING,2024-01-25,-13
MS200095-0022-VISION,FA,MS200095-0022-VISION-DEU_SITE01-0009,2,SAXIS,Short Axis,TARGET LESION 1,TUMOR ASSESSMENT,,6.0,mm,6.0,6.0,mm,,,1.0,SCREENING,SCREENING,2024-01-25,-13
MS200095-0022-VISION,FA,MS200095-0022-VISION-DEU_SITE01-0009,3,LDIAM,Longest Diameter,TARGET LESION 2,TUMOR ASSESSMENT,,33.9,mm,33.9,33.9,mm,,,1.0,SCREENING,SCREENING,2024-01-25,-13
MS200095-0022-VISION,FA,MS200095-0022-VISION-DEU_SITE01-0009,4,SAXIS,Short Axis,TARGET LESION 2,TUMOR ASSESSMENT,,13.6,mm,13.6,13.6,mm,,,1.0,SCREENING,SCREENING,2024-01-25,-13
MS200095-0022-VISION,FA,MS200095-0022-VISION-DEU_SITE01-0009,5,LDIAM,Longest Diameter,TARGET LESION 3,TUMOR ASSESSMENT,,58.0,mm,58.0,58.0,mm,,,1.0,SCREENING,SCREENING,2024-01-25,-13
MS200095-0022-VISION,FA,MS200095-0022-VISION-DEU_SITE01-0009,6,SAXIS,Short Axis,TARGET LESION 3,TUMOR ASSESSMENT,,8.9,mm,8.9,8.9,mm,,,1.0,SCREENING,SCREENING,2024-01-25,-13
MS200095-0022-VISION,FA,MS200095-0022-VISION-DEU_SITE01-0009,7,LDIAM,Longest Diameter,TARGET LESION 4,TUMOR ASSESSMENT,,34.6,mm,34.6,34.6,mm,,,1.0,SCREENING,SCREENING,2024-01-25,-13
MS200095-0022-VISION,FA,MS200095-0022-VISION-DEU_SITE01-0009,8,SAXIS,Short Axis,TARGET LESION 4,TUMOR ASSESSMENT,,11.9,mm,11.9,11.9,mm,,,1.0,SCREENING,SCREENING,2024-01-25,-13
MS200095-0022-VISION,FA,MS200095-0022-VISION-DEU_SITE01-0009,9,LDIAM,Longest Diameter,TARGET LESION 1,TUMOR ASSESSMENT,,45.2,mm,45.2,45.2,mm,,Y,2.0,C1D1,TREATMENT,2024-02-07,1
MS200095-0022-VISION,FA,MS200095-0022-VISION-DEU_SITE01-0009,10,SAXIS,Short Axis,TARGET LESION 1,TUMOR ASSESSMENT,,6.0,mm,6.0,6.0,mm,,Y,2.0,C1D1,TREATMENT,2024-02-07,1
MS200095-0022-VISION,FA,MS200095-0022-VISION-DEU_SITE01-0009,11,LDIAM,Longest Diameter,TARGET LESION 2,TUMOR ASSESSMENT,,33.8,mm,33.8,33.8,mm,,,2.0,C1D1,TREATMENT,2024-02-07,1
MS200095-0022-VISION,FA,MS200095-0022-VISION-DEU_SITE01-0009,12,SAXIS,Short Axis,TARGET LESION 2,TUMOR ASSESSMENT,,13.9,mm,13.9,13.9,mm,,,2.0,C1D1,TREATMENT,2024-02-07,1
MS200095-0022-VISION,FA,MS200095-0022-VISION-DEU_SITE01-0009,13,LDIAM,Longest Diameter,TARGET LESION 3,TUMOR ASSESSMENT,,57.0,mm,57.0,57.0,mm,,,2.0,C1D1,TREATMENT,2024-02-07,1
MS200095-0022-VISION,FA,MS200095-0022-VISION-DEU_SITE01-0009,14,SAXIS,Short Axis,TARGET LESION 3,TUMOR ASSESSMENT,,9.4,mm,9.4,9.4,mm,,,2.0,C1D1,TREATMENT,2024-02-07,1
MS200095-0022-VISION,FA,MS200095-0022-VISION-DEU_SITE01-0009,15,LDIAM,Longest Diameter,TARGET LESION 4,TUMOR ASSESSMENT,,35.0,mm,35.0,35.0,mm,,,2.0,C1D1,TREATMENT,2024-02-07,1
MS200095-0022-VISION,FA,MS200095-0022-VISION-DEU_SITE01-0009,16,SAXIS,Short Axis,TARGET LESION 4,TUMOR ASSESSMENT,,12.5,mm,12.5,12.5,mm,,,2.0,C1D1,TREATMENT,2024-02-07,1
MS200095-0022-VISION,FA,MS200095-0022-VISION-DEU_SITE01-0009,17,LDIAM,Longest Diameter,TARGET LESION 1,TUMOR ASSESSMENT,,43.6,mm,43.6,43.6,mm,,,3.0,C1D15,TREATMENT,2024-02-21,15
MS200095-0022-VISION,FA,MS200095-0022-VISION-DEU_SITE01-0009,18,SAXIS,Short Axis,TARGET LESION 1,TUMOR ASSESSMENT,,6.4,mm,6.4,6.4,mm,,,3.0,C1D15,TREATMENT,2024-02-21,15
MS200095-0022-VISION,FA,MS200095-0022-VISION-DEU_SITE01-0009,19,LDIAM,Longest Diameter,TARGET LESION 2,TUMOR ASSESSMENT,,33.4,mm,33.4,33.4,mm,,,3.0,C1D15,TREATMENT,2024-02-21,15
MS200095-0022-VISION,FA,MS200095-0022-VISION-DEU_SITE01-0009,20,SAXIS,Short Axis,TARGET LESION 2,TUMOR ASSESSMENT,,13.0,mm,13.0,13.0,mm,,,3.0,C1D15,TREATMENT,2024-02-21,15
MS200095-0022-VISION,FA,MS200095-0022-VISION-DEU_SITE01-0009,21,LDIAM,Longest Diameter,TARGET LESION 3,TUMOR ASSESSMENT,,56.7,mm,56.7,56.7,mm,,,3.0,C1D15,TREATMENT,2024-02-21,15
MS200095-0022-VISION,FA,MS200095-0022-VISION-DEU_SITE01-0009,22,SAXIS,Short Axis,TARGET LESION 3,TUMOR ASSESSMENT,,8.6,mm,8.6,8.6,mm,,,3.0,C1D15,TREATMENT,2024-02-21,15
MS200095-0022-VISION,FA,MS200095-0022-VISION-DEU_SITE01-0009,23,LDIAM,Longest Diameter,TARGET LESION 4,TUMOR ASSESSMENT,,34.9,mm,34.9,34.9,mm,,,3.0,C1D15,TREATMENT,2024-02-21,15
MS200095-0022-VISION,FA,MS200095-0022-VISION-DEU_SITE01-0009,24,SAXIS,Short Axis,TARGET LESION 4,TUMOR ASSESSMENT,,11.8,mm,11.8,11.8,mm,,,3.0,C1D15,TREATMENT,2024-02-21,15
MS200095-0022-VISION,FA,MS200095-0022-VISION-DEU_SITE01-0009,25,LDIAM,Longest Diameter,TARGET LESION 1,TUMOR ASSESSMENT,,44.9,mm,44.9,44.9,mm,,,4.0,C2D1,TREATMENT,2024-02-28,22
MS200095-0022-VISION,FA,MS200095-0022-VISION-DEU_SITE01-0009,26,SAXIS,Short Axis,TARGET LESION 1,TUMOR ASSESSMENT,,5.6,mm,5.6,5.6,mm,,,4.0,C2D1,TREATMENT,2024-02-28,22
MS200095-0022-VISION,FA,MS200095-0022-VISION-DEU_SITE01-0009,27,LDIAM,Longest Diameter,TARGET LESION 2,TUMOR ASSESSMENT,,34.2,mm,34.2,34.2,mm,,,4.0,C2D1,TREATMENT,2024-02-28,22
MS200095-0022-VISION,FA,MS200095-0022-VISION-DEU_SITE01-0009,28,SAXIS,Short Axis,TARGET LESION 2,TUMOR ASSESSMENT,,13.9,mm,13.9,13.9,mm,,,4.0,C2D1,TREATMENT,2024-02-28,22
MS200095-0022-VISION,FA,MS200095-0022-VISION-DEU_SITE01-0009,29,LDIAM,Longest Diameter,TARGET LESION 3,TUMOR ASSESSMENT,,56.1,mm,56.1,56.1,mm,,,4.0,C2D1,TREATMENT,2024-02-28,22
MS200095-0022-VISION,FA,MS200095-0022-VISION-DEU_SITE01-0009,30,SAXIS,Short Axis,TARGET LESION 3,TUMOR ASSESSMENT,,8.3,mm,8.3,8.3,mm,,,4.0,C2D1,TREATMENT,2024-02-28,22
MS200095-0022-VISION,FA,MS200095-0022-VISION-DEU_SITE01-0009,31,LDIAM,Longest Diameter,TARGET LESION 4,TUMOR ASSESSMENT,,30.0,mm,30.0,30.0,mm,,,4.0,C2D1,TREATMENT,2024-02-28,22
MS200095-0022-VISION,FA,MS200095-0022-VISION-DEU_SITE01-0009,32,SAXIS,Short Axis,TARGET LESION 4,TUMOR ASSESSMENT,,12.0,mm,12.0,12.0,mm,,,4.0,C2D1,TREATMENT,2024-02-28,22
MS200095-0022-VISION,FA,MS200095-0022-VISION-DEU_SITE01-0009,33,LDIAM,Longest Diameter,TARGET LESION 1,TUMOR ASSESSMENT,,43.1,mm,43.1,43.1,mm,,,5.0,C3D1,TREATMENT,2024-03-20,43
MS200095-0022-VISION,FA,MS200095-0022-VISION-DEU_SITE01-0009,34,SAXIS,Short Axis,TARGET LESION 1,TUMOR ASSESSMENT,,5.5,mm,5.5,5.5,mm,,,5.0,C3D1,TREATMENT,2024-03-20,43
MS200095-0022-VISION,FA,MS200095-0022-VISION-DEU_SITE01-0009,35,LDIAM,Longest Diameter,TARGET LESION 2,TUMOR ASSESSMENT,,34.8,mm,34.8,34.8,mm,,,5.0,C3D1,TREATMENT,2024-03-20,43
MS200095-0022-VISION,FA,MS200095-0022-VISION-DEU_SITE01-0009,36,SAXIS,Short Axis,TARGET LESION 2,TUMOR ASSESSMENT,,13.5,mm,13.5,13.5,mm,,,5.0,C3D1,TREATMENT,2024-03-20,43
MS200095-0022-VISION,FA,MS200095-0022-VISION-DEU_SITE01-0009,37,LDIAM,Longest Diameter,TARGET LESION 3,TUMOR ASSESSMENT,,55.6,mm,55.6,55.6,mm,,,5.0,C3D1,TREATMENT,2024-03-20,43
MS200095-0022-VISION,FA,MS200095-0022-VISION-DEU_SITE01-0009,38,SAXIS,Short Axis,TARGET LESION 3,TUMOR ASSESSMENT,,8.3,mm,8.3,8.3,mm,,,5.0,C3D1,TREATMENT,2024-03-20,43
MS200095-0022-VISION,FA,MS200095-0022-VISION-DEU_SITE01-0009,39,LDIAM,Longest Diameter,TARGET LESION 4,TUMOR ASSESSMENT,,34.8,mm,34.8,34.8,mm,,,5.0,C3D1,TREATMENT,2024-03-20,43
MS200095-0022-VISION,FA,MS200095-0022-VISION-DEU_SITE01-0009,40,SAXIS,Short Axis,TARGET LESION 4,TUMOR ASSESSMENT,,11.1,mm,11.1,11.1,mm,,,5.0,C3D1,TREATMENT,2024-03-20,43
MS200095-0022-VISION,FA,MS200095-0022-VISION-DEU_SITE01-0009,41,LDIAM,Longest Diameter,TARGET LESION 1,TUMOR ASSESSMENT,,41.7,mm,41.7,41.7,mm,,,6.0,C4D1,TREATMENT,2024-04-10,64
MS200095-0022-VISION,FA,MS200095-0022-VISION-DEU_SITE01-0009,42,SAXIS,Short Axis,TARGET LESION 1,TUMOR ASSESSMENT,,6.0,mm,6.0,6.0,mm,,,6.0,C4D1,TREATMENT,2024-04-10,64
MS200095-0022-VISION,FA,MS200095-0022-VISION-DEU_SITE01-0009,43,LDIAM,Longest Diameter,TARGET LESION 2,TUMOR ASSESSMENT,,33.5,mm,33.5,33.5,mm,,,6.0,C4D1,TREATMENT,2024-04-10,64
MS200095-0022-VISION,FA,MS200095-0022-VISION-DEU_SITE01-0009,44,SAXIS,Short Axis,TARGET LESION 2,TUMOR ASSESSMENT,,13.4,mm,13.4,13.4,mm,,,6.0,C4D1,TREATMENT,2024-04-10,64
MS200095-0022-VISION,FA,MS200095-0022-VISION-DEU_SITE01-0009,45,LDIAM,Longest Diameter,TARGET LESION 3,TUMOR ASSESSMENT,,57.5,mm,57.5,57.5,mm,,,6.0,C4D1,TREATMENT,2024-04-10,64
MS200095-0022-VISION,FA,MS200095-0022-VISION-DEU_SITE01-0009,46,SAXIS,Short Axis,TARGET LESION 3,TUMOR ASSESSMENT,,8.5,mm,8.5,8.5,mm,,,6.0,C4D1,TREATMENT,2024-04-10,64
MS200095-0022-VISION,FA,MS200095-0022-VISION-DEU_SITE01-0009,47,LDIAM,Longest Diameter,TARGET LESION 4,TUMOR ASSESSMENT,,34.2,mm,34.2,34.2,mm,,,6.0,C4D1,TREATMENT,2024-04-10,64
MS200095-0022-VISION,FA,MS200095-0022-VISION-DEU_SITE01-0009,48,SAXIS,Short Axis,TARGET LESION 4,TUMOR ASSESSMENT,,11.6,mm,11.6,11.6,mm,,,6.0,C4D1,TREATMENT,2024-04-10,64
MS200095-0022-VISION,FA,MS200095-0022-VISION-DEU_SITE01-0009,49,LDIAM,Longest Diameter,TARGET LESION 1,TUMOR ASSESSMENT,,42.4,mm,42.4,42.4,mm,,,7.0,C6D1,TREATMENT,2024-05-22,106
MS200095-0022-VISION,FA,MS200095-0022-VISION-DEU_SITE01-0009,50,SAXIS,Short Axis,TARGET LESION 1,TUMOR ASSESSMENT,,6.3,mm,6.3,6.3,mm,,,7.0,C6D1,TREATMENT,2024-05-22,106
MS200095-0022-VISION,FA,MS200095-0022-VISION-DEU_SITE01-0009,51,LDIAM,Longest Diameter,TARGET LESION 2,TUMOR ASSESSMENT,,33.0,mm,33.0,33.0,mm,,,7.0,C6D1,TREATMENT,2024-05-22,106
MS200095-0022-VISION,FA,MS200095-0022-VISION-DEU_SITE01-0009,52,SAXIS,Short Axis,TARGET LESION 2,TUMOR ASSESSMENT,,13.8,mm,13.8,13.8,mm,,,7.0,C6D1,TREATMENT,2024-05-22,106
MS200095-0022-VISION,FA,MS200095-0022-VISION-DEU_SITE01-0009,53,LDIAM,Longest Diameter,TARGET LESION 3,TUMOR ASSESSMENT,,56.2,mm,56.2,56.2,mm,,,7.0,C6D1,TREATMENT,2024-05-22,106
MS200095-0022-VISION,FA,MS200095-0022-VISION-DEU_SITE01-0009,54,SAXIS,Short Axis,TARGET LESION 3,TUMOR ASSESSMENT,,8.6,mm,8.6,8.6,mm,,,7.0,C6D1,TREATMENT,2024-05-22,106
MS200095-0022-VISION,FA,MS200095-0022-VISION-DEU_SITE01-0009,55,LDIAM,Longest Diameter,TARGET LESION 4,TUMOR ASSESSMENT,,34.1,mm,34.1,34.1,mm,,,7.0,C6D1,TREATMENT,2024-05-22,106
MS200095-0022-VISION,FA,MS200095-0022-VISION-DEU_SITE01-0009,56,SAXIS,Short Axis,TARGET LESION 4,TUMOR ASSESSMENT,,11.4,mm,11.4,11.4,mm,,,7.0,C6D1,TREATMENT,2024-05-22,106
MS200095-0022-VISION,FA,MS200095-0022-VISION-DEU_SITE01-0009,57,LDIAM,Longest Diameter,TARGET LESION 1,TUMOR ASSESSMENT,,41.4,mm,41.4,41.4,mm,,,8.0,C8D1,TREATMENT,2024-07-03,148
MS200095-0022-VISION,FA,MS200095-0022-VISION-DEU_SITE01-0009,58,SAXIS,Short Axis,TARGET LESION 1,TUMOR ASSESSMENT,,5.7,mm,5.7,5.7,mm,,,8.0,C8D1,TREATMENT,2024-07-03,148
MS200095-0022-VISION,FA,MS200095-0022-VISION-DEU_SITE01-0009,59,LDIAM,Longest Diameter,TARGET LESION 2,TUMOR ASSESSMENT,,33.1,mm,33.1,33.1,mm,,,8.0,C8D1,TREATMENT,2024-07-03,148
MS200095-0022-VISION,FA,MS200095-0022-VISION-DEU_SITE01-0009,60,SAXIS,Short Axis,TARGET LESION 2,TUMOR ASSESSMENT,,12.9,mm,12.9,12.9,mm,,,8.0,C8D1,TREATMENT,2024-07-03,148
MS200095-0022-VISION,FA,MS200095-0022-VISION-DEU_SITE01-0009,61,LDIAM,Longest Diameter,TARGET LESION 3,TUMOR ASSESSMENT,,55.6,mm,55.6,55.6,mm,,,8.0,C8D1,TREATMENT,2024-07-03,148
MS200095-0022-VISION,FA,MS200095-0022-VISION-DEU_SITE01-0009,62,SAXIS,Short Axis,TARGET LESION 3,TUMOR ASSESSMENT,,8.3,mm,8.3,8.3,mm,,,8.0,C8D1,TREATMENT,2024-07-03,148
MS200095-0022-VISION,FA,MS200095-0022-VISION-DEU_SITE01-0009,63,LDIAM,Longest Diameter,TARGET LESION 4,TUMOR ASSESSMENT,,31.4,mm,31.4,31.4,mm,,,8.0,C8D1,TREATMENT,2024-07-03,148
MS200095-0022-VISION,FA,MS200095-0022-VISION-DEU_SITE01-0009,64,SAXIS,Short Axis,TARGET LESION 4,TUMOR ASSESSMENT,,12.1,mm,12.1,12.1,mm,,,8.0,C8D1,TREATMENT,2024-07-03,148
MS200095-0022-VISION,FA,MS200095-0022-VISION-DEU_SITE01-0009,65,LDIAM,Longest Diameter,TARGET LESION 1,TUMOR ASSESSMENT,,40.5,mm,40.5,40.5,mm,,,9.0,C12D1,TREATMENT,2024-09-25,232
MS200095-0022-VISION,FA,MS200095-0022-VISION-DEU_SITE01-0009,66,SAXIS,Short Axis,TARGET LESION 1,TUMOR ASSESSMENT,,5.9,mm,5.9,5.9,mm,,,9.0,C12D1,TREATMENT,2024-09-25,232
MS200095-0022-VISION,FA,MS200095-0022-VISION-DEU_SITE01-0009,67,LDIAM,Longest Diameter,TARGET LESION 2,TUMOR ASSESSMENT,,31.0,mm,31.0,31.0,mm,,,9.0,C12D1,TREATMENT,2024-09-25,232
MS200095-0022-VISION,FA,MS200095-0022-VISION-DEU_SITE01-0009,68,SAXIS,Short Axis,TARGET LESION 2,TUMOR ASSESSMENT,,13.1,mm,13.1,13.1,mm,,,9.0,C12D1,TREATMENT,2024-09-25,232
MS200095-0022-VISION,FA,MS200095-0022-VISION-DEU_SITE01-0009,69,LDIAM,Longest Diameter,TARGET LESION 3,TUMOR ASSESSMENT,,56.5,mm,56.5,56.5,mm,,,9.0,C12D1,TREATMENT,2024-09-25,232
MS200095-0022-VISION,FA,MS200095-0022-VISION-DEU_SITE01-0009,70,SAXIS,Short Axis,TARGET LESION 3,TUMOR ASSESSMENT,,8.7,mm,8.7,8.7,mm,,,9.0,C12D1,TREATMENT,2024-09-25,232
MS200095-0022-VISION,FA,MS200095-0022-VISION-DEU_SITE01-0009,71,LDIAM,Longest Diameter,TARGET LESION 4,TUMOR ASSESSMENT,,30.7,mm,30.7,30.7,mm,,,9.0,C12D1,TREATMENT,2024-09-25,232
MS200095-0022-VISION,FA,MS200095-0022-VISION-DEU_SITE01-0009,72,SAXIS,Short Axis,TARGET LESION 4,TUMOR ASSESSMENT,,11.4,mm,11.4,11.4,mm,,,9.0,C12D1,TREATMENT,2024-09-25,232
MS200095-0022-VISION,FA,MS200095-0022-VISION-DEU_SITE01-0009,73,LDIAM,Longest Diameter,TARGET LESION 1,TUMOR ASSESSMENT,,44.2,mm,44.2,44.2,mm,,,10.0,C18D1,TREATMENT,2025-01-29,358
MS200095-0022-VISION,FA,MS200095-0022-VISION-DEU_SITE01-0009,74,SAXIS,Short Axis,TARGET LESION 1,TUMOR ASSESSMENT,,5.7,mm,5.7,5.7,mm,,,10.0,C18D1,TREATMENT,2025-01-29,358
MS200095-0022-VISION,FA,MS200095-0022-VISION-DEU_SITE01-0009,75,LDIAM,Longest Diameter,TARGET LESION 2,TUMOR ASSESSMENT,,35.4,mm,35.4,35.4,mm,,,10.0,C18D1,TREATMENT,2025-01-29,358
MS200095-0022-VISION,FA,MS200095-0022-VISION-DEU_SITE01-0009,76,SAXIS,Short Axis,TARGET LESION 2,TUMOR ASSESSMENT,,13.3,mm,13.3,13.3,mm,,,10.0,C18D1,TREATMENT,2025-01-29,358
MS200095-0022-VISION,FA,MS200095-0022-VISION-DEU_SITE01-0009,77,LDIAM,Longest Diameter,TARGET LESION 3,TUMOR ASSESSMENT,,56.9,mm,56.9,56.9,mm,,,10.0,C18D1,TREATMENT,2025-01-29,358
MS200095-0022-VISION,FA,MS200095-0022-VISION-DEU_SITE01-0009,78,SAXIS,Short Axis,TARGET LESION 3,TUMOR ASSESSMENT,,8.9,mm,8.9,8.9,mm,,,10.0,C18D1,TREATMENT,2025-01-29,358
MS200095-0022-VISION,FA,MS200095-0022-VISION-DEU_SITE01-0009,79,LDIAM,Longest Diameter,TARGET LESION 4,TUMOR ASSESSMENT,,31.5,mm,31.5,31.5,mm,,,10.0,C18D1,TREATMENT,2025-01-29,358
MS200095-0022-VISION,FA,MS200095-0022-VISION-DEU_SITE01-0009,80,SAXIS,Short Axis,TARGET LESION 4,TUMOR ASSESSMENT,,11.2,mm,11.2,11.2,mm,,,10.0,C18D1,TREATMENT,2025-01-29,358
MS200095-0022-VISION,FA,MS200095-0022-VISION-DEU_SITE01-0009,81,LDIAM,Longest Diameter,TARGET LESION 1,TUMOR ASSESSMENT,,43.1,mm,43.1,43.1,mm,,,11.0,C24D1,TREATMENT,2025-06-04,484
MS200095-0022-VISION,FA,MS200095-0022-VISION-DEU_SITE01-0009,82,SAXIS,Short Axis,TARGET LESION 1,TUMOR ASSESSMENT,,5.0,mm,5.0,5.0,mm,,,11.0,C24D1,TREATMENT,2025-06-04,484
MS200095-0022-VISION,FA,MS200095-0022-VISION-DEU_SITE01-0009,83,LDIAM,Longest Diameter,TARGET LESION 2,TUMOR ASSESSMENT,,34.4,mm,34.4,34.4,mm,,,11.0,C24D1,TREATMENT,2025-06-04,484
MS200095-0022-VISION,FA,MS200095-0022-VISION-DEU_SITE01-0009,84,SAXIS,Short Axis,TARGET LESION 2,TUMOR ASSESSMENT,,13.8,mm,13.8,13.8,mm,,,11.0,C24D1,TREATMENT,2025-06-04,484
MS200095-0022-VISION,FA,MS200095-0022-VISION-DEU_SITE01-0009,85,LDIAM,Longest Diameter,TARGET LESION 3,TUMOR ASSESSMENT,,56.4,mm,56.4,56.4,mm,,,11.0,C24D1,TREATMENT,2025-06-04,484
MS200095-0022-VISION,FA,MS200095-0022-VISION-DEU_SITE01-0009,86,SAXIS,Short Axis,TARGET LESION 3,TUMOR ASSESSMENT,,8.5,mm,8.5,8.5,mm,,,11.0,C24D1,TREATMENT,2025-06-04,484
MS200095-0022-VISION,FA,MS200095-0022-VISION-DEU_SITE01-0009,87,LDIAM,Longest Diameter,TARGET LESION 4,TUMOR ASSESSMENT,,33.2,mm,33.2,33.2,mm,,,11.0,C24D1,TREATMENT,2025-06-04,484
MS200095-0022-VISION,FA,MS200095-0022-VISION-DEU_SITE01-0009,88,SAXIS,Short Axis,TARGET LESION 4,TUMOR ASSESSMENT,,11.4,mm,11.4,11.4,mm,,,11.0,C24D1,TREATMENT,2025-06-04,484
MS200095-0022-VISION,FA,MS200095-0022-VISION-DEU_SITE01-0009,89,LDIAM,Longest Diameter,TARGET LESION 1,TUMOR ASSESSMENT,,42.1,mm,42.1,42.1,mm,,,12.0,EOT,FOLLOW-UP,2025-06-25,505
MS200095-0022-VISION,FA,MS200095-0022-VISION-DEU_SITE01-0009,90,SAXIS,Short Axis,TARGET LESION 1,TUMOR ASSESSMENT,,5.7,mm,5.7,5.7,mm,,,12.0,EOT,FOLLOW-UP,2025-06-25,505
MS200095-0022-VISION,FA,MS200095-0022-VISION-DEU_SITE01-0009,91,LDIAM,Longest Diameter,TARGET LESION 2,TUMOR ASSESSMENT,,33.7,mm,33.7,33.7,mm,,,12.0,EOT,FOLLOW-UP,2025-06-25,505
MS200095-0022-VISION,FA,MS200095-0022-VISION-DEU_SITE01-0009,92,SAXIS,Short Axis,TARGET LESION 2,TUMOR ASSESSMENT,,12.0,mm,12.0,12.0,mm,,,12.0,EOT,FOLLOW-UP,2025-06-25,505
MS200095-0022-VISION,FA,MS200095-0022-VISION-DEU_SITE01-0009,93,LDIAM,Longest Diameter,TARGET LESION 3,TUMOR ASSESSMENT,,57.5,mm,57.5,57.5,mm,,,12.0,EOT,FOLLOW-UP,2025-06-25,505
MS200095-0022-VISION,FA,MS200095-0022-VISION-DEU_SITE01-0009,94,SAXIS,Short Axis,TARGET LESION 3,TUMOR ASSESSMENT,,9.2,mm,9.2,9.2,mm,,,12.0,EOT,FOLLOW-UP,2025-06-25,505
MS200095-0022-VISION,FA,MS200095-0022-VISION-DEU_SITE01-0009,95,LDIAM,Longest Diameter,TARGET LESION 4,TUMOR ASSESSMENT,,31.7,mm,31.7,31.7,mm,,,12.0,EOT,FOLLOW-UP,2025-06-25,505
MS200095-0022-VISION,FA,MS200095-0022-VISION-DEU_SITE01-0009,96,SAXIS,Short Axis,TARGET LESION 4,TUMOR ASSESSMENT,,11.5,mm,11.5,11.5,mm,,,12.0,EOT,FOLLOW-UP,2025-06-25,505
MS200095-0022-VISION,FA,MS200095-0022-VISION-FRA_SITE01-0003,1,LDIAM,Longest Diameter,TARGET LESION 1,TUMOR ASSESSMENT,,12.4,mm,12.4,12.4,mm,,,1.0,SCREENING,SCREENING,2024-04-03,-15
MS200095-0022-VISION,FA,MS200095-0022-VISION-FRA_SITE01-0003,2,SAXIS,Short Axis,TARGET LESION 1,TUMOR ASSESSMENT,,13.7,mm,13.7,13.7,mm,,,1.0,SCREENING,SCREENING,2024-04-03,-15
MS200095-0022-VISION,FA,MS200095-0022-VISION-FRA_SITE01-0003,3,LDIAM,Longest Diameter,TARGET LESION 2,TUMOR ASSESSMENT,,40.3,mm,40.3,40.3,mm,,,1.0,SCREENING,SCREENING,2024-04-03,-15
MS200095-0022-VISION,FA,MS200095-0022-VISION-FRA_SITE01-0003,4,SAXIS,Short Axis,TARGET LESION 2,TUMOR ASSESSMENT,,18.4,mm,18.4,18.4,mm,,,1.0,SCREENING,SCREENING,2024-04-03,-15
MS200095-0022-VISION,FA,MS200095-0022-VISION-FRA_SITE01-0003,5,LDIAM,Longest Diameter,TARGET LESION 1,TUMOR ASSESSMENT,,13.2,mm,13.2,13.2,mm,,Y,2.0,C1D1,TREATMENT,2024-04-18,1
MS200095-0022-VISION,FA,MS200095-0022-VISION-FRA_SITE01-0003,6,SAXIS,Short Axis,TARGET LESION 1,TUMOR ASSESSMENT,,13.3,mm,13.3,13.3,mm,,Y,2.0,C1D1,TREATMENT,2024-04-18,1
MS200095-0022-VISION,FA,MS200095-0022-VISION-FRA_SITE01-0003,7,LDIAM,Longest Diameter,TARGET LESION 2,TUMOR ASSESSMENT,,40.0,mm,40.0,40.0,mm,,,2.0,C1D1,TREATMENT,2024-04-18,1
MS200095-0022-VISION,FA,MS200095-0022-VISION-FRA_SITE01-0003,8,SAXIS,Short Axis,TARGET LESION 2,TUMOR ASSESSMENT,,18.2,mm,18.2,18.2,mm,,,2.0,C1D1,TREATMENT,2024-04-18,1
MS200095-0022-VISION,FA,MS200095-0022-VISION-FRA_SITE01-0003,9,LDIAM,Longest Diameter,TARGET LESION 1,TUMOR ASSESSMENT,,15.2,mm,15.2,15.2,mm,,,3.0,C1D15,TREATMENT,2024-05-02,15
MS200095-0022-VISION,FA,MS200095-0022-VISION-FRA_SITE01-0003,10,SAXIS,Short Axis,TARGET LESION 1,TUMOR ASSESSMENT,,13.7,mm,13.7,13.7,mm,,,3.0,C1D15,TREATMENT,2024-05-02,15
MS200095-0022-VISION,FA,MS200095-0022-VISION-FRA_SITE01-0003,11,LDIAM,Longest Diameter,TARGET LESION 2,TUMOR ASSESSMENT,,40.1,mm,40.1,40.1,mm,,,3.0,C1D15,TREATMENT,2024-05-02,15
MS200095-0022-VISION,FA,MS200095-0022-VISION-FRA_SITE01-0003,12,SAXIS,Short Axis,TARGET LESION 2,TUMOR ASSESSMENT,,17.8,mm,17.8,17.8,mm,,,3.0,C1D15,TREATMENT,2024-05-02,15
MS200095-0022-VISION,FA,MS200095-0022-VISION-FRA_SITE01-0003,13,LDIAM,Longest Diameter,TARGET LESION 1,TUMOR ASSESSMENT,,12.9,mm,12.9,12.9,mm,,,4.0,C2D1,TREATMENT,2024-05-09,22
MS200095-0022-VISION,FA,MS200095-0022-VISION-FRA_SITE01-0003,14,SAXIS,Short Axis,TARGET LESION 1,TUMOR ASSESSMENT,,13.3,mm,13.3,13.3,mm,,,4.0,C2D1,TREATMENT,2024-05-09,22
MS200095-0022-VISION,FA,MS200095-0022-VISION-FRA_SITE01-0003,15,LDIAM,Longest Diameter,TARGET LESION 2,TUMOR ASSESSMENT,,40.4,mm,40.4,40.4,mm,,,4.0,C2D1,TREATMENT,2024-05-09,22
MS200095-0022-VISION,FA,MS200095-0022-VISION-FRA_SITE01-0003,16,SAXIS,Short Axis,TARGET LESION 2,TUMOR ASSESSMENT,,18.4,mm,18.4,18.4,mm,,,4.0,C2D1,TREATMENT,2024-05-09,22
MS200095-0022-VISION,FA,MS200095-0022-VISION-FRA_SITE01-0003,17,LDIAM,Longest Diameter,TARGET LESION 1,TUMOR ASSESSMENT,,12.2,mm,12.2,12.2,mm,,,5.0,C3D1,TREATMENT,2024-05-30,43
MS200095-0022-VISION,FA,MS200095-0022-VISION-FRA_SITE01-0003,18,SAXIS,Short Axis,TARGET LESION 1,TUMOR ASSESSMENT,,12.9,mm,12.9,12.9,mm,,,5.0,C3D1,TREATMENT,2024-05-30,43
MS200095-0022-VISION,FA,MS200095-0022-VISION-FRA_SITE01-0003,19,LDIAM,Longest Diameter,TARGET LESION 2,TUMOR ASSESSMENT,,39.4,mm,39.4,39.4,mm,,,5.0,C3D1,TREATMENT,2024-05-30,43
MS200095-0022-VISION,FA,MS200095-0022-VISION-FRA_SITE01-0003,20,SAXIS,Short Axis,TARGET LESION 2,TUMOR ASSESSMENT,,17.1,mm,17.1,17.1,mm,,,5.0,C3D1,TREATMENT,2024-05-30,43
MS200095-0022-VISION,FA,MS200095-0022-VISION-FRA_SITE01-0003,21,LDIAM,Longest Diameter,TARGET LESION 1,TUMOR ASSESSMENT,,8.9,mm,8.9,8.9,mm,,,6.0,C4D1,TREATMENT,2024-06-20,64
MS200095-0022-VISION,FA,MS200095-0022-VISION-FRA_SITE01-0003,22,SAXIS,Short Axis,TARGET LESION 1,TUMOR ASSESSMENT,,13.6,mm,13.6,13.6,mm,,,6.0,C4D1,TREATMENT,2024-06-20,64
MS200095-0022-VISION,FA,MS200095-0022-VISION-FRA_SITE01-0003,23,LDIAM,Longest Diameter,TARGET LESION 2,TUMOR ASSESSMENT,,39.4,mm,39.4,39.4,mm,,,6.0,C4D1,TREATMENT,2024-06-20,64
MS200095-0022-VISION,FA,MS200095-0022-VISION-FRA_SITE01-0003,24,SAXIS,Short Axis,TARGET LESION 2,TUMOR ASSESSMENT,,18.2,mm,18.2,18.2,mm,,,6.0,C4D1,TREATMENT,2024-06-20,64
MS200095-0022-VISION,FA,MS200095-0022-VISION-FRA_SITE01-0003,25,LDIAM,Longest Diameter,TARGET LESION 1,TUMOR ASSESSMENT,,12.0,mm,12.0,12.0,mm,,,7.0,C6D1,TREATMENT,2024-08-01,106
MS200095-0022-VISION,FA,MS200095-0022-VISION-FRA_SITE01-0003,26,SAXIS,Short Axis,TARGET LESION 1,TUMOR ASSESSMENT,,13.1,mm,13.1,13.1,mm,,,7.0,C6D1,TREATMENT,2024-08-01,106
MS200095-0022-VISION,FA,MS200095-0022-VISION-FRA_SITE01-0003,27,LDIAM,Longest Diameter,TARGET LESION 2,TUMOR ASSESSMENT,,38.4,mm,38.4,38.4,mm,,,7.0,C6D1,TREATMENT,2024-08-01,106
MS200095-0022-VISION,FA,MS200095-0022-VISION-FRA_SITE01-0003,28,SAXIS,Short Axis,TARGET LESION 2,TUMOR ASSESSMENT,,17.0,mm,17.0,17.0,mm,,,7.0,C6D1,TREATMENT,2024-08-01,106
MS200095-0022-VISION,FA,MS200095-0022-VISION-FRA_SITE01-0003,29,LDIAM,Longest Diameter,TARGET LESION 1,TUMOR ASSESSMENT,,11.5,mm,11.5,11.5,mm,,,8.0,C8D1,TREATMENT,2024-09-12,148
MS200095-0022-VISION,FA,MS200095-0022-VISION-FRA_SITE01-0003,30,SAXIS,Short Axis,TARGET LESION 1,TUMOR ASSESSMENT,,13.3,mm,13.3,13.3,mm,,,8.0,C8D1,TREATMENT,2024-09-12,148
MS200095-0022-VISION,FA,MS200095-0022-VISION-FRA_SITE01-0003,31,LDIAM,Longest Diameter,TARGET LESION 2,TUMOR ASSESSMENT,,38.9,mm,38.9,38.9,mm,,,8.0,C8D1,TREATMENT,2024-09-12,148
MS200095-0022-VISION,FA,MS200095-0022-VISION-FRA_SITE01-0003,32,SAXIS,Short Axis,TARGET LESION 2,TUMOR ASSESSMENT,,17.5,mm,17.5,17.5,mm,,,8.0,C8D1,TREATMENT,2024-09-12,148
MS200095-0022-VISION,FA,MS200095-0022-VISION-FRA_SITE01-0003,33,LDIAM,Longest Diameter,TARGET LESION 1,TUMOR ASSESSMENT,,8.6,mm,8.6,8.6,mm,,,9.0,C12D1,TREATMENT,2024-12-05,232
MS200095-0022-VISION,FA,MS200095-0022-VISION-FRA_SITE01-0003,34,SAXIS,Short Axis,TARGET LESION 1,TUMOR ASSESSMENT,,13.1,mm,13.1,13.1,mm,,,9.0,C12D1,TREATMENT,2024-12-05,232
MS200095-0022-VISION,FA,MS200095-0022-VISION-FRA_SITE01-0003,35,LDIAM,Longest Diameter,TARGET LESION 2,TUMOR ASSESSMENT,,38.0,mm,38.0,38.0,mm,,,9.0,C12D1,TREATMENT,2024-12-05,232
MS200095-0022-VISION,FA,MS200095-0022-VISION-FRA_SITE01-0003,36,SAXIS,Short Axis,TARGET LESION 2,TUMOR ASSESSMENT,,18.1,mm,18.1,18.1,mm,,,9.0,C12D1,TREATMENT,2024-12-05,232
MS200095-0022-VISION,FA,MS200095-0022-VISION-FRA_SITE01-0013,1,LDIAM,Longest Diameter,TARGET LESION 1,TUMOR ASSESSMENT,,41.6,mm,41.6,41.6,mm,,,1.0,SCREENING,SCREENING,2024-02-16,-29
MS200095-0022-VISION,FA,MS200095-0022-VISION-FRA_SITE01-0013,2,SAXIS,Short Axis,TARGET LESION 1,TUMOR ASSESSMENT,,7.7,mm,7.7,7.7,mm,,,1.0,SCREENING,SCREENING,2024-02-16,-29
MS200095-0022-VISION,FA,MS200095-0022-VISION-FRA_SITE01-0013,3,LDIAM,Longest Diameter,TARGET LESION 1,TUMOR ASSESSMENT,,5,mm,5,5.0,mm,,Y,2.0,C1D1,TREATMENT,2024-03-16,1
MS200095-0022-VISION,FA,MS200095-0022-VISION-FRA_SITE01-0013,4,SAXIS,Short Axis,TARGET LESION 1,TUMOR ASSESSMENT,,3,mm,3,3.0,mm,,Y,2.0,C1D1,TREATMENT,2024-03-16,1
MS200095-0022-VISION,FA,MS200095-0022-VISION-GBR_SITE01-0008,1,LDIAM,Longest Diameter,TARGET LESION 1,TUMOR ASSESSMENT,,22.8,mm,22.8,22.8,mm,,,1.0,SCREENING,SCREENING,2024-02-23,-27
MS200095-0022-VISION,FA,MS200095-0022-VISION-GBR_SITE01-0008,2,SAXIS,Short Axis,TARGET LESION 1,TUMOR ASSESSMENT,,10.5,mm,10.5,10.5,mm,,,1.0,SCREENING,SCREENING,2024-02-23,-27
MS200095-0022-VISION,FA,MS200095-0022-VISION-GBR_SITE01-0008,3,LDIAM,Longest Diameter,TARGET LESION 2,TUMOR ASSESSMENT,,21.5,mm,21.5,21.5,mm,,,1.0,SCREENING,SCREENING,2024-02-23,-27
MS200095-0022-VISION,FA,MS200095-0022-VISION-GBR_SITE01-0008,4,SAXIS,Short Axis,TARGET LESION 2,TUMOR ASSESSMENT,,9.4,mm,9.4,9.4,mm,,,1.0,SCREENING,SCREENING,2024-02-23,-27
MS200095-0022-VISION,FA,MS200095-0022-VISION-GBR_SITE01-0008,5,LDIAM,Longest Diameter,TARGET LESION 1,TUMOR ASSESSMENT,,24.6,mm,24.6,24.6,mm,,Y,2.0,C1D1,TREATMENT,2024-03-21,1
MS200095-0022-VISION,FA,MS200095-0022-VISION-GBR_SITE01-0008,6,SAXIS,Short Axis,TARGET LESION 1,TUMOR ASSESSMENT,,11.7,mm,11.7,11.7,mm,,Y,2.0,C1D1,TREATMENT,2024-03-21,1
MS200095-0022-VISION,FA,MS200095-0022-VISION-GBR_SITE01-0008,7,LDIAM,Longest Diameter,TARGET LESION 2,TUMOR ASSESSMENT,,21.9,mm,21.9,21.9,mm,,,2.0,C1D1,TREATMENT,2024-03-21,1
MS200095-0022-VISION,FA,MS200095-0022-VISION-GBR_SITE01-0008,8,SAXIS,Short Axis,TARGET LESION 2,TUMOR ASSESSMENT,,9.9,mm,9.9,9.9,mm,,,2.0,C1D1,TREATMENT,2024-03-21,1
MS200095-0022-VISION,FA,MS200095-0022-VISION-GBR_SITE01-0008,9,LDIAM,Longest Diameter,TARGET LESION 1,TUMOR ASSESSMENT,,23.1,mm,23.1,23.1,mm,,,3.0,C1D15,TREATMENT,2024-04-04,15
MS200095-0022-VISION,FA,MS200095-0022-VISION-GBR_SITE01-0008,10,SAXIS,Short Axis,TARGET LESION 1,TUMOR ASSESSMENT,,10.6,mm,10.6,10.6,mm,,,3.0,C1D15,TREATMENT,2024-04-04,15
MS200095-0022-VISION,FA,MS200095-0022-VISION-GBR_SITE01-0008,11,LDIAM,Longest Diameter,TARGET LESION 2,TUMOR ASSESSMENT,,24.1,mm,24.1,24.1,mm,,,3.0,C1D15,TREATMENT,2024-04-04,15
MS200095-0022-VISION,FA,MS200095-0022-VISION-GBR_SITE01-0008,12,SAXIS,Short Axis,TARGET LESION 2,TUMOR ASSESSMENT,,9.7,mm,9.7,9.7,mm,,,3.0,C1D15,TREATMENT,2024-04-04,15
MS200095-0022-VISION,FA,MS200095-0022-VISION-GBR_SITE01-0008,13,LDIAM,Longest Diameter,TARGET LESION 1,TUMOR ASSESSMENT,,23.5,mm,23.5,23.5,mm,,,4.0,C2D1,TREATMENT,2024-04-11,22
MS200095-0022-VISION,FA,MS200095-0022-VISION-GBR_SITE01-0008,14,SAXIS,Short Axis,TARGET LESION 1,TUMOR ASSESSMENT,,12.1,mm,12.1,12.1,mm,,,4.0,C2D1,TREATMENT,2024-04-11,22
MS200095-0022-VISION,FA,MS200095-0022-VISION-GBR_SITE01-0008,15,LDIAM,Longest Diameter,TARGET LESION 2,TUMOR ASSESSMENT,,22.4,mm,22.4,22.4,mm,,,4.0,C2D1,TREATMENT,2024-04-11,22
MS200095-0022-VISION,FA,MS200095-0022-VISION-GBR_SITE01-0008,16,SAXIS,Short Axis,TARGET LESION 2,TUMOR ASSESSMENT,,8.7,mm,8.7,8.7,mm,,,4.0,C2D1,TREATMENT,2024-04-11,22
MS200095-0022-VISION,FA,MS200095-0022-VISION-GBR_SITE01-0008,17,LDIAM,Longest Diameter,TARGET LESION 1,TUMOR ASSESSMENT,,22.5,mm,22.5,22.5,mm,,,5.0,C3D1,TREATMENT,2024-05-02,43
MS200095-0022-VISION,FA,MS200095-0022-VISION-GBR_SITE01-0008,18,SAXIS,Short Axis,TARGET LESION 1,TUMOR ASSESSMENT,,10.9,mm,10.9,10.9,mm,,,5.0,C3D1,TREATMENT,2024-05-02,43
MS200095-0022-VISION,FA,MS200095-0022-VISION-GBR_SITE01-0008,19,LDIAM,Longest Diameter,TARGET LESION 2,TUMOR ASSESSMENT,,21.1,mm,21.1,21.1,mm,,,5.0,C3D1,TREATMENT,2024-05-02,43
MS200095-0022-VISION,FA,MS200095-0022-VISION-GBR_SITE01-0008,20,SAXIS,Short Axis,TARGET LESION 2,TUMOR ASSESSMENT,,8.5,mm,8.5,8.5,mm,,,5.0,C3D1,TREATMENT,2024-05-02,43
MS200095-0022-VISION,FA,MS200095-0022-VISION-GBR_SITE01-0008,21,LDIAM,Longest Diameter,TARGET LESION 1,TUMOR ASSESSMENT,,24.1,mm,24.1,24.1,mm,,,6.0,C4D1,TREATMENT,2024-05-23,64
MS200095-0022-VISION,FA,MS200095-0022-VISION-GBR_SITE01-0008,22,SAXIS,Short Axis,TARGET LESION 1,TUMOR ASSESSMENT,,11.5,mm,11.5,11.5,mm,,,6.0,C4D1,TREATMENT,2024-05-23,64
MS200095-0022-VISION,FA,MS200095-0022-VISION-GBR_SITE01-0008,23,LDIAM,Longest Diameter,TARGET LESION 2,TUMOR ASSESSMENT,,22.9,mm,22.9,22.9,mm,,,6.0,C4D1,TREATMENT,2024-05-23,64
MS200095-0022-VISION,FA,MS200095-0022-VISION-GBR_SITE01-0008,24,SAXIS,Short Axis,TARGET LESION 2,TUMOR ASSESSMENT,,8.7,mm,8.7,8.7,mm,,,6.0,C4D1,TREATMENT,2024-05-23,64
MS200095-0022-VISION,FA,MS200095-0022-VISION-GBR_SITE01-0008,25,LDIAM,Longest Diameter,TARGET LESION 1,TUMOR ASSESSMENT,,25.5,mm,25.5,25.5,mm,,,7.0,C6D1,TREATMENT,2024-07-04,106
MS200095-0022-VISION,FA,MS200095-0022-VISION-GBR_SITE01-0008,26,SAXIS,Short Axis,TARGET LESION 1,TUMOR ASSESSMENT,,11.8,mm,11.8,11.8,mm,,,7.0,C6D1,TREATMENT,2024-07-04,106
MS200095-0022-VISION,FA,MS200095-0022-VISION-GBR_SITE01-0008,27,LDIAM,Longest Diameter,TARGET LESION 2,TUMOR ASSESSMENT,,25.0,mm,25.0,25.0,mm,,,7.0,C6D1,TREATMENT,2024-07-04,106
MS200095-0022-VISION,FA,MS200095-0022-VISION-GBR_SITE01-0008,28,SAXIS,Short Axis,TARGET LESION 2,TUMOR ASSESSMENT,,10.9,mm,10.9,10.9,mm,,,7.0,C6D1,TREATMENT,2024-07-04,106
MS200095-0022-VISION,FA,MS200095-0022-VISION-GBR_SITE01-0008,29,LDIAM,Longest Diameter,TARGET LESION 1,TUMOR ASSESSMENT,,27.4,mm,27.4,27.4,mm,,,8.0,C8D1,TREATMENT,2024-08-15,148
MS200095-0022-VISION,FA,MS200095-0022-VISION-GBR_SITE01-0008,30,SAXIS,Short Axis,TARGET LESION 1,TUMOR ASSESSMENT,,11.6,mm,11.6,11.6,mm,,,8.0,C8D1,TREATMENT,2024-08-15,148
MS200095-0022-VISION,FA,MS200095-0022-VISION-GBR_SITE01-0008,31,LDIAM,Longest Diameter,TARGET LESION 2,TUMOR ASSESSMENT,,24.3,mm,24.3,24.3,mm,,,8.0,C8D1,TREATMENT,2024-08-15,148
MS200095-0022-VISION,FA,MS200095-0022-VISION-GBR_SITE01-0008,32,SAXIS,Short Axis,TARGET LESION 2,TUMOR ASSESSMENT,,9.9,mm,9.9,9.9,mm,,,8.0,C8D1,TREATMENT,2024-08-15,148
MS200095-0022-VISION,FA,MS200095-0022-VISION-GBR_SITE01-0008,33,LDIAM,Longest Diameter,TARGET LESION 1,TUMOR ASSESSMENT,,23.7,mm,23.7,23.7,mm,,,9.0,C12D1,TREATMENT,2024-11-07,232
MS200095-0022-VISION,FA,MS200095-0022-VISION-GBR_SITE01-0008,34,SAXIS,Short Axis,TARGET LESION 1,TUMOR ASSESSMENT,,12.5,mm,12.5,12.5,mm,,,9.0,C12D1,TREATMENT,2024-11-07,232
MS200095-0022-VISION,FA,MS200095-0022-VISION-GBR_SITE01-0008,35,LDIAM,Longest Diameter,TARGET LESION 2,TUMOR ASSESSMENT,,22.9,mm,22.9,22.9,mm,,,9.0,C12D1,TREATMENT,2024-11-07,232
MS200095-0022-VISION,FA,MS200095-0022-VISION-GBR_SITE01-0008,36,SAXIS,Short Axis,TARGET LESION 2,TUMOR ASSESSMENT,,10.9,mm,10.9,10.9,mm,,,9.0,C12D1,TREATMENT,2024-11-07,232
MS200095-0022-VISION,FA,MS200095-0022-VISION-GBR_SITE01-0008,37,LDIAM,Longest Diameter,TARGET LESION 1,TUMOR ASSESSMENT,,27.7,mm,27.7,27.7,mm,,,10.0,C18D1,TREATMENT,2025-03-13,358
MS200095-0022-VISION,FA,MS200095-0022-VISION-GBR_SITE01-0008,38,SAXIS,Short Axis,TARGET LESION 1,TUMOR ASSESSMENT,,13.6,mm,13.6,13.6,mm,,,10.0,C18D1,TREATMENT,2025-03-13,358
MS200095-0022-VISION,FA,MS200095-0022-VISION-GBR_SITE01-0008,39,LDIAM,Longest Diameter,TARGET LESION 2,TUMOR ASSESSMENT,,24.7,mm,24.7,24.7,mm,,,10.0,C18D1,TREATMENT,2025-03-13,358
MS200095-0022-VISION,FA,MS200095-0022-VISION-GBR_SITE01-0008,40,SAXIS,Short Axis,TARGET LESION 2,TUMOR ASSESSMENT,,11.1,mm,11.1,11.1,mm,,,10.0,C18D1,TREATMENT,2025-03-13,358
MS200095-0022-VISION,FA,MS200095-0022-VISION-GBR_SITE01-0008,41,LDIAM,Longest Diameter,TARGET LESION 1,TUMOR ASSESSMENT,,28.2,mm,28.2,28.2,mm,,,11.0,C24D1,TREATMENT,2025-07-17,484
MS200095-0022-VISION,FA,MS200095-0022-VISION-GBR_SITE01-0008,42,SAXIS,Short Axis,TARGET LESION 1,TUMOR ASSESSMENT,,12.3,mm,12.3,12.3,mm,,,11.0,C24D1,TREATMENT,2025-07-17,484
MS200095-0022-VISION,FA,MS200095-0022-VISION-GBR_SITE01-0008,43,LDIAM,Longest Diameter,TARGET LESION 2,TUMOR ASSESSMENT,,26.4,mm,26.4,26.4,mm,,,11.0,C24D1,TREATMENT,2025-07-17,484
MS200095-0022-VISION,FA,MS200095-0022-VISION-GBR_SITE01-0008,44,SAXIS,Short Axis,TARGET LESION 2,TUMOR ASSESSMENT,,11.7,mm,11.7,11.7,mm,,,11.0,C24D1,TREATMENT,2025-07-17,484
MS200095-0022-VISION,FA,MS200095-0022-VISION-GBR_SITE01-0008,45,LDIAM,Longest Diameter,TARGET LESION 1,TUMOR ASSESSMENT,,29.0,mm,29.0,29.0,mm,,,12.0,EOT,FOLLOW-UP,2025-08-07,505
MS200095-0022-VISION,FA,MS200095-0022-VISION-GBR_SITE01-0008,46,SAXIS,Short Axis,TARGET LESION 1,TUMOR ASSESSMENT,,12.1,mm,12.1,12.1,mm,,,12.0,EOT,FOLLOW-UP,2025-08-07,505
MS200095-0022-VISION,FA,MS200095-0022-VISION-GBR_SITE01-0008,47,LDIAM,Longest Diameter,TARGET LESION 2,TUMOR ASSESSMENT,,24.9,mm,24.9,24.9,mm,,,12.0,EOT,FOLLOW-UP,2025-08-07,505
MS200095-0022-VISION,FA,MS200095-0022-VISION-GBR_SITE01-0008,48,SAXIS,Short Axis,TARGET LESION 2,TUMOR ASSESSMENT,,11.6,mm,11.6,11.6,mm,,,12.0,EOT,FOLLOW-UP,2025-08-07,505
MS200095-0022-VISION,FA,MS200095-0022-VISION-ITA_SITE01-0006,1,LDIAM,Longest Diameter,TARGET LESION 1,TUMOR ASSESSMENT,,31.4,mm,31.4,31.4,mm,,,1.0,SCREENING,SCREENING,2024-02-07,-32
MS200095-0022-VISION,FA,MS200095-0022-VISION-ITA_SITE01-0006,2,SAXIS,Short Axis,TARGET LESION 1,TUMOR ASSESSMENT,,15.4,mm,15.4,15.4,mm,,,1.0,SCREENING,SCREENING,2024-02-07,-32
MS200095-0022-VISION,FA,MS200095-0022-VISION-ITA_SITE01-0006,3,LDIAM,Longest Diameter,TARGET LESION 1,TUMOR ASSESSMENT,,29.6,mm,29.6,29.6,mm,,Y,2.0,C1D1,TREATMENT,2024-03-10,1
MS200095-0022-VISION,FA,MS200095-0022-VISION-ITA_SITE01-0006,4,SAXIS,Short Axis,TARGET LESION 1,TUMOR ASSESSMENT,,15.3,mm,15.3,15.3,mm,,Y,2.0,C1D1,TREATMENT,2024-03-10,1
MS200095-0022-VISION,FA,MS200095-0022-VISION-ITA_SITE01-0006,5,LDIAM,Longest Diameter,TARGET LESION 1,TUMOR ASSESSMENT,,29.5,mm,29.5,29.5,mm,,,3.0,C1D15,TREATMENT,2024-03-24,15
MS200095-0022-VISION,FA,MS200095-0022-VISION-ITA_SITE01-0006,6,SAXIS,Short Axis,TARGET LESION 1,TUMOR ASSESSMENT,,13.6,mm,13.6,13.6,mm,,,3.0,C1D15,TREATMENT,2024-03-24,15
MS200095-0022-VISION,FA,MS200095-0022-VISION-ITA_SITE01-0006,7,LDIAM,Longest Diameter,TARGET LESION 1,TUMOR ASSESSMENT,,25.6,mm,25.6,25.6,mm,,,4.0,C2D1,TREATMENT,2024-03-31,22
MS200095-0022-VISION,FA,MS200095-0022-VISION-ITA_SITE01-0006,8,SAXIS,Short Axis,TARGET LESION 1,TUMOR ASSESSMENT,,13.4,mm,13.4,13.4,mm,,,4.0,C2D1,TREATMENT,2024-03-31,22
MS200095-0022-VISION,FA,MS200095-0022-VISION-ITA_SITE01-0006,9,LDIAM,Longest Diameter,TARGET LESION 1,TUMOR ASSESSMENT,,24.5,mm,24.5,24.5,mm,,,5.0,C3D1,TREATMENT,2024-04-21,43
MS200095-0022-VISION,FA,MS200095-0022-VISION-ITA_SITE01-0006,10,SAXIS,Short Axis,TARGET LESION 1,TUMOR ASSESSMENT,,12.9,mm,12.9,12.9,mm,,,5.0,C3D1,TREATMENT,2024-04-21,43
MS200095-0022-VISION,FA,MS200095-0022-VISION-ITA_SITE01-0006,11,LDIAM,Longest Diameter,TARGET LESION 1,TUMOR ASSESSMENT,,24.1,mm,24.1,24.1,mm,,,6.0,C4D1,TREATMENT,2024-05-12,64
MS200095-0022-VISION,FA,MS200095-0022-VISION-ITA_SITE01-0006,12,SAXIS,Short Axis,TARGET LESION 1,TUMOR ASSESSMENT,,11.5,mm,11.5,11.5,mm,,,6.0,C4D1,TREATMENT,2024-05-12,64
MS200095-0022-VISION,FA,MS200095-0022-VISION-ITA_SITE01-0006,13,LDIAM,Longest Diameter,TARGET LESION 1,TUMOR ASSESSMENT,,25.4,mm,25.4,25.4,mm,,,7.0,C6D1,TREATMENT,2024-06-23,106
MS200095-0022-VISION,FA,MS200095-0022-VISION-ITA_SITE01-0006,14,SAXIS,Short Axis,TARGET LESION 1,TUMOR ASSESSMENT,,11.4,mm,11.4,11.4,mm,,,7.0,C6D1,TREATMENT,2024-06-23,106
MS200095-0022-VISION,FA,MS200095-0022-VISION-ITA_SITE01-0006,15,LDIAM,Longest Diameter,TARGET LESION 1,TUMOR ASSESSMENT,,22.0,mm,22.0,22.0,mm,,,8.0,C8D1,TREATMENT,2024-08-04,148
MS200095-0022-VISION,FA,MS200095-0022-VISION-ITA_SITE01-0006,16,SAXIS,Short Axis,TARGET LESION 1,TUMOR ASSESSMENT,,11.3,mm,11.3,11.3,mm,,,8.0,C8D1,TREATMENT,2024-08-04,148
MS200095-0022-VISION,FA,MS200095-0022-VISION-ITA_SITE01-0006,17,LDIAM,Longest Diameter,TARGET LESION 1,TUMOR ASSESSMENT,,21.0,mm,21.0,21.0,mm,,,9.0,C12D1,TREATMENT,2024-10-27,232
MS200095-0022-VISION,FA,MS200095-0022-VISION-ITA_SITE01-0006,18,SAXIS,Short Axis,TARGET LESION 1,TUMOR ASSESSMENT,,10.7,mm,10.7,10.7,mm,,,9.0,C12D1,TREATMENT,2024-10-27,232
MS200095-0022-VISION,FA,MS200095-0022-VISION-ITA_SITE01-0006,19,LDIAM,Longest Diameter,TARGET LESION 1,TUMOR ASSESSMENT,,22.8,mm,22.8,22.8,mm,,,10.0,C18D1,TREATMENT,2025-03-02,358
MS200095-0022-VISION,FA,MS200095-0022-VISION-ITA_SITE01-0006,20,SAXIS,Short Axis,TARGET LESION 1,TUMOR ASSESSMENT,,9.6,mm,9.6,9.6,mm,,,10.0,C18D1,TREATMENT,2025-03-02,358
MS200095-0022-VISION,FA,MS200095-0022-VISION-ITA_SITE01-0006,21,LDIAM,Longest Diameter,TARGET LESION 1,TUMOR ASSESSMENT,,20.9,mm,20.9,20.9,mm,,,11.0,C24D1,TREATMENT,2025-07-06,484
MS200095-0022-VISION,FA,MS200095-0022-VISION-ITA_SITE01-0006,22,SAXIS,Short Axis,TARGET LESION 1,TUMOR ASSESSMENT,,10.7,mm,10.7,10.7,mm,,,11.0,C24D1,TREATMENT,2025-07-06,484
MS200095-0022-VISION,FA,MS200095-0022-VISION-ITA_SITE01-0006,23,LDIAM,Longest Diameter,TARGET LESION 1,TUMOR ASSESSMENT,,17.5,mm,17.5,17.5,mm,,,12.0,EOT,FOLLOW-UP,2025-07-27,505
MS200095-0022-VISION,FA,MS200095-0022-VISION-ITA_SITE01-0006,24,SAXIS,Short Axis,TARGET LESION 1,TUMOR ASSESSMENT,,8.6,mm,8.6,8.6,mm,,,12.0,EOT,FOLLOW-UP,2025-07-27,505
MS200095-0022-VISION,FA,MS200095-0022-VISION-ITA_SITE01-0011,1,LDIAM,Longest Diameter,TARGET LESION 1,TUMOR ASSESSMENT,,30.9,mm,30.9,30.9,mm,,,1.0,SCREENING,SCREENING,2024-01-20,-7
MS200095-0022-VISION,FA,MS200095-0022-VISION-ITA_SITE01-0011,2,SAXIS,Short Axis,TARGET LESION 1,TUMOR ASSESSMENT,,11.6,mm,11.6,11.6,mm,,,1.0,SCREENING,SCREENING,2024-01-20,-7
MS200095-0022-VISION,FA,MS200095-0022-VISION-ITA_SITE01-0011,3,LDIAM,Longest Diameter,TARGET LESION 2,TUMOR ASSESSMENT,,39.5,mm,39.5,39.5,mm,,,1.0,SCREENING,SCREENING,2024-01-20,-7
MS200095-0022-VISION,FA,MS200095-0022-VISION-ITA_SITE01-0011,4,SAXIS,Short Axis,TARGET LESION 2,TUMOR ASSESSMENT,,3.3,mm,3.3,3.3,mm,,,1.0,SCREENING,SCREENING,2024-01-20,-7
MS200095-0022-VISION,FA,MS200095-0022-VISION-ITA_SITE01-0011,5,LDIAM,Longest Diameter,TARGET LESION 1,TUMOR ASSESSMENT,,29.7,mm,29.7,29.7,mm,,Y,2.0,C1D1,TREATMENT,2024-01-27,1
MS200095-0022-VISION,FA,MS200095-0022-VISION-ITA_SITE01-0011,6,SAXIS,Short Axis,TARGET LESION 1,TUMOR ASSESSMENT,,10.8,mm,10.8,10.8,mm,,Y,2.0,C1D1,TREATMENT,2024-01-27,1
MS200095-0022-VISION,FA,MS200095-0022-VISION-ITA_SITE01-0011,7,LDIAM,Longest Diameter,TARGET LESION 2,TUMOR ASSESSMENT,,38.7,mm,38.7,38.7,mm,,,2.0,C1D1,TREATMENT,2024-01-27,1
MS200095-0022-VISION,FA,MS200095-0022-VISION-ITA_SITE01-0011,8,SAXIS,Short Axis,TARGET LESION 2,TUMOR ASSESSMENT,,3.3,mm,3.3,3.3,mm,,,2.0,C1D1,TREATMENT,2024-01-27,1
MS200095-0022-VISION,FA,MS200095-0022-VISION-ITA_SITE01-0011,9,LDIAM,Longest Diameter,TARGET LESION 1,TUMOR ASSESSMENT,,28.7,mm,28.7,28.7,mm,,,3.0,C1D15,TREATMENT,2024-02-10,15
MS200095-0022-VISION,FA,MS200095-0022-VISION-ITA_SITE01-0011,10,SAXIS,Short Axis,TARGET LESION 1,TUMOR ASSESSMENT,,10.6,mm,10.6,10.6,mm,,,3.0,C1D15,TREATMENT,2024-02-10,15
MS200095-0022-VISION,FA,MS200095-0022-VISION-ITA_SITE01-0011,11,LDIAM,Longest Diameter,TARGET LESION 2,TUMOR ASSESSMENT,,33.9,mm,33.9,33.9,mm,,,3.0,C1D15,TREATMENT,2024-02-10,15
MS200095-0022-VISION,FA,MS200095-0022-VISION-ITA_SITE01-0011,12,SAXIS,Short Axis,TARGET LESION 2,TUMOR ASSESSMENT,,3,mm,3,3.0,mm,,,3.0,C1D15,TREATMENT,2024-02-10,15
MS200095-0022-VISION,FA,MS200095-0022-VISION-ITA_SITE01-0011,13,LDIAM,Longest Diameter,TARGET LESION 1,TUMOR ASSESSMENT,,26.4,mm,26.4,26.4,mm,,,4.0,C2D1,TREATMENT,2024-02-17,22
MS200095-0022-VISION,FA,MS200095-0022-VISION-ITA_SITE01-0011,14,SAXIS,Short Axis,TARGET LESION 1,TUMOR ASSESSMENT,,10.3,mm,10.3,10.3,mm,,,4.0,C2D1,TREATMENT,2024-02-17,22
MS200095-0022-VISION,FA,MS200095-0022-VISION-ITA_SITE01-0011,15,LDIAM,Longest Diameter,TARGET LESION 2,TUMOR ASSESSMENT,,35.6,mm,35.6,35.6,mm,,,4.0,C2D1,TREATMENT,2024-02-17,22
MS200095-0022-VISION,FA,MS200095-0022-VISION-ITA_SITE01-0011,16,SAXIS,Short Axis,TARGET LESION 2,TUMOR ASSESSMENT,,3,mm,3,3.0,mm,,,4.0,C2D1,TREATMENT,2024-02-17,22
MS200095-0022-VISION,FA,MS200095-0022-VISION-ITA_SITE01-0011,17,LDIAM,Longest Diameter,TARGET LESION 1,TUMOR ASSESSMENT,,26.7,mm,26.7,26.7,mm,,,5.0,C3D1,TREATMENT,2024-03-09,43
MS200095-0022-VISION,FA,MS200095-0022-VISION-ITA_SITE01-0011,18,SAXIS,Short Axis,TARGET LESION 1,TUMOR ASSESSMENT,,9.2,mm,9.2,9.2,mm,,,5.0,C3D1,TREATMENT,2024-03-09,43
MS200095-0022-VISION,FA,MS200095-0022-VISION-ITA_SITE01-0011,19,LDIAM,Longest Diameter,TARGET LESION 2,TUMOR ASSESSMENT,,34.5,mm,34.5,34.5,mm,,,5.0,C3D1,TREATMENT,2024-03-09,43
MS200095-0022-VISION,FA,MS200095-0022-VISION-ITA_SITE01-0011,20,SAXIS,Short Axis,TARGET LESION 2,TUMOR ASSESSMENT,,3,mm,3,3.0,mm,,,5.0,C3D1,TREATMENT,2024-03-09,43
MS200095-0022-VISION,FA,MS200095-0022-VISION-ITA_SITE01-0011,21,LDIAM,Longest Diameter,TARGET LESION 1,TUMOR ASSESSMENT,,27.1,mm,27.1,27.1,mm,,,6.0,C4D1,TREATMENT,2024-03-30,64
MS200095-0022-VISION,FA,MS200095-0022-VISION-ITA_SITE01-0011,22,SAXIS,Short Axis,TARGET LESION 1,TUMOR ASSESSMENT,,10.4,mm,10.4,10.4,mm,,,6.0,C4D1,TREATMENT,2024-03-30,64
MS200095-0022-VISION,FA,MS200095-0022-VISION-ITA_SITE01-0011,23,LDIAM,Longest Diameter,TARGET LESION 2,TUMOR ASSESSMENT,,33.1,mm,33.1,33.1,mm,,,6.0,C4D1,TREATMENT,2024-03-30,64
MS200095-0022-VISION,FA,MS200095-0022-VISION-ITA_SITE01-0011,24,SAXIS,Short Axis,TARGET LESION 2,TUMOR ASSESSMENT,,3,mm,3,3.0,mm,,,6.0,C4D1,TREATMENT,2024-03-30,64
MS200095-0022-VISION,FA,MS200095-0022-VISION-ITA_SITE01-0011,25,LDIAM,Longest Diameter,TARGET LESION 1,TUMOR ASSESSMENT,,22.3,mm,22.3,22.3,mm,,,7.0,C6D1,TREATMENT,2024-05-11,106
MS200095-0022-VISION,FA,MS200095-0022-VISION-ITA_SITE01-0011,26,SAXIS,Short Axis,TARGET LESION 1,TUMOR ASSESSMENT,,8.8,mm,8.8,8.8,mm,,,7.0,C6D1,TREATMENT,2024-05-11,106
MS200095-0022-VISION,FA,MS200095-0022-VISION-ITA_SITE01-0011,27,LDIAM,Longest Diameter,TARGET LESION 2,TUMOR ASSESSMENT,,32.3,mm,32.3,32.3,mm,,,7.0,C6D1,TREATMENT,2024-05-11,106
MS200095-0022-VISION,FA,MS200095-0022-VISION-ITA_SITE01-0011,28,SAXIS,Short Axis,TARGET LESION 2,TUMOR ASSESSMENT,,3,mm,3,3.0,mm,,,7.0,C6D1,TREATMENT,2024-05-11,106
MS200095-0022-VISION,FA,MS200095-0022-VISION-ITA_SITE01-0011,29,LDIAM,Longest Diameter,TARGET LESION 1,TUMOR ASSESSMENT,,22.3,mm,22.3,22.3,mm,,,8.0,C8D1,TREATMENT,2024-06-22,148
MS200095-0022-VISION,FA,MS200095-0022-VISION-ITA_SITE01-0011,30,SAXIS,Short Axis,TARGET LESION 1,TUMOR ASSESSMENT,,8.9,mm,8.9,8.9,mm,,,8.0,C8D1,TREATMENT,2024-06-22,148
MS200095-0022-VISION,FA,MS200095-0022-VISION-ITA_SITE01-0011,31,LDIAM,Longest Diameter,TARGET LESION 2,TUMOR ASSESSMENT,,29.9,mm,29.9,29.9,mm,,,8.0,C8D1,TREATMENT,2024-06-22,148
MS200095-0022-VISION,FA,MS200095-0022-VISION-ITA_SITE01-0011,32,SAXIS,Short Axis,TARGET LESION 2,TUMOR ASSESSMENT,,3,mm,3,3.0,mm,,,8.0,C8D1,TREATMENT,2024-06-22,148
MS200095-0022-VISION,FA,MS200095-0022-VISION-ITA_SITE01-0011,33,LDIAM,Longest Diameter,TARGET LESION 1,TUMOR ASSESSMENT,,21.7,mm,21.7,21.7,mm,,,9.0,C12D1,TREATMENT,2024-09-14,232
MS200095-0022-VISION,FA,MS200095-0022-VISION-ITA_SITE01-0011,34,SAXIS,Short Axis,TARGET LESION 1,TUMOR ASSESSMENT,,7.7,mm,7.7,7.7,mm,,,9.0,C12D1,TREATMENT,2024-09-14,232
MS200095-0022-VISION,FA,MS200095-0022-VISION-ITA_SITE01-0011,35,LDIAM,Longest Diameter,TARGET LESION 2,TUMOR ASSESSMENT,,26.2,mm,26.2,26.2,mm,,,9.0,C12D1,TREATMENT,2024-09-14,232
MS200095-0022-VISION,FA,MS200095-0022-VISION-ITA_SITE01-0011,36,SAXIS,Short Axis,TARGET LESION 2,TUMOR ASSESSMENT,,3.4,mm,3.4,3.4,mm,,,9.0,C12D1,TREATMENT,2024-09-14,232
MS200095-0022-VISION,FA,MS200095-0022-VISION-ITA_SITE01-0011,37,LDIAM,Longest Diameter,TARGET LESION 1,TUMOR ASSESSMENT,,20.4,mm,20.4,20.4,mm,,,10.0,C18D1,TREATMENT,2025-01-18,358
MS200095-0022-VISION,FA,MS200095-0022-VISION-ITA_SITE01-0011,38,SAXIS,Short Axis,TARGET LESION 1,TUMOR ASSESSMENT,,6.9,mm,6.9,6.9,mm,,,10.0,C18D1,TREATMENT,2025-01-18,358
MS200095-0022-VISION,FA,MS200095-0022-VISION-ITA_SITE01-0011,39,LDIAM,Longest Diameter,TARGET LESION 2,TUMOR ASSESSMENT,,28.0,mm,28.0,28.0,mm,,,10.0,C18D1,TREATMENT,2025-01-18,358
MS200095-0022-VISION,FA,MS200095-0022-VISION-ITA_SITE01-0011,40,SAXIS,Short Axis,TARGET LESION 2,TUMOR ASSESSMENT,,3,mm,3,3.0,mm,,,10.0,C18D1,TREATMENT,2025-01-18,358
MS200095-0022-VISION,FA,MS200095-0022-VISION-ITA_SITE01-0011,41,LDIAM,Longest Diameter,TARGET LESION 1,TUMOR ASSESSMENT,,18.3,mm,18.3,18.3,mm,,,11.0,C24D1,TREATMENT,2025-05-24,484
MS200095-0022-VISION,FA,MS200095-0022-VISION-ITA_SITE01-0011,42,SAXIS,Short Axis,TARGET LESION 1,TUMOR ASSESSMENT,,8.0,mm,8.0,8.0,mm,,,11.0,C24D1,TREATMENT,2025-05-24,484
MS200095-0022-VISION,FA,MS200095-0022-VISION-ITA_SITE01-0011,43,LDIAM,Longest Diameter,TARGET LESION 2,TUMOR ASSESSMENT,,22.8,mm,22.8,22.8,mm,,,11.0,C24D1,TREATMENT,2025-05-24,484
MS200095-0022-VISION,FA,MS200095-0022-VISION-ITA_SITE01-0011,44,SAXIS,Short Axis,TARGET LESION 2,TUMOR ASSESSMENT,,3,mm,3,3.0,mm,,,11.0,C24D1,TREATMENT,2025-05-24,484
MS200095-0022-VISION,FA,MS200095-0022-VISION-ITA_SITE01-0011,45,LDIAM,Longest Diameter,TARGET LESION 1,TUMOR ASSESSMENT,,18.7,mm,18.7,18.7,mm,,,12.0,EOT,FOLLOW-UP,2025-06-14,505
MS200095-0022-VISION,FA,MS200095-0022-VISION-ITA_SITE01-0011,46,SAXIS,Short Axis,TARGET LESION 1,TUMOR ASSESSMENT,,6.9,mm,6.9,6.9,mm,,,12.0,EOT,FOLLOW-UP,2025-06-14,505
MS200095-0022-VISION,FA,MS200095-0022-VISION-ITA_SITE01-0011,47,LDIAM,Longest Diameter,TARGET LESION 2,TUMOR ASSESSMENT,,25.0,mm,25.0,25.0,mm,,,12.0,EOT,FOLLOW-UP,2025-06-14,505
MS200095-0022-VISION,FA,MS200095-0022-VISION-ITA_SITE01-0011,48,SAXIS,Short Axis,TARGET LESION 2,TUMOR ASSESSMENT,,3,mm,3,3.0,mm,,,12.0,EOT,FOLLOW-UP,2025-06-14,505
MS200095-0022-VISION,FA,MS200095-0022-VISION-JPN_SITE01-0016,1,LDIAM,Longest Diameter,TARGET LESION 1,TUMOR ASSESSMENT,,39.1,mm,39.1,39.1,mm,,,1.0,SCREENING,SCREENING,2024-03-13,-32
MS200095-0022-VISION,FA,MS200095-0022-VISION-JPN_SITE01-0016,2,SAXIS,Short Axis,TARGET LESION 1,TUMOR ASSESSMENT,,10.0,mm,10.0,10.0,mm,,,1.0,SCREENING,SCREENING,2024-03-13,-32
MS200095-0022-VISION,FA,MS200095-0022-VISION-JPN_SITE01-0016,3,LDIAM,Longest Diameter,TARGET LESION 2,TUMOR ASSESSMENT,,34.5,mm,34.5,34.5,mm,,,1.0,SCREENING,SCREENING,2024-03-13,-32
MS200095-0022-VISION,FA,MS200095-0022-VISION-JPN_SITE01-0016,4,SAXIS,Short Axis,TARGET LESION 2,TUMOR ASSESSMENT,,10.1,mm,10.1,10.1,mm,,,1.0,SCREENING,SCREENING,2024-03-13,-32
MS200095-0022-VISION,FA,MS200095-0022-VISION-JPN_SITE01-0016,5,LDIAM,Longest Diameter,TARGET LESION 3,TUMOR ASSESSMENT,,54.7,mm,54.7,54.7,mm,,,1.0,SCREENING,SCREENING,2024-03-13,-32
MS200095-0022-VISION,FA,MS200095-0022-VISION-JPN_SITE01-0016,6,SAXIS,Short Axis,TARGET LESION 3,TUMOR ASSESSMENT,,4.4,mm,4.4,4.4,mm,,,1.0,SCREENING,SCREENING,2024-03-13,-32
MS200095-0022-VISION,FA,MS200095-0022-VISION-JPN_SITE01-0016,7,LDIAM,Longest Diameter,TARGET LESION 1,TUMOR ASSESSMENT,,40.1,mm,40.1,40.1,mm,,Y,2.0,C1D1,TREATMENT,2024-04-14,1
MS200095-0022-VISION,FA,MS200095-0022-VISION-JPN_SITE01-0016,8,SAXIS,Short Axis,TARGET LESION 1,TUMOR ASSESSMENT,,9.3,mm,9.3,9.3,mm,,Y,2.0,C1D1,TREATMENT,2024-04-14,1
MS200095-0022-VISION,FA,MS200095-0022-VISION-JPN_SITE01-0016,9,LDIAM,Longest Diameter,TARGET LESION 2,TUMOR ASSESSMENT,,35.0,mm,35.0,35.0,mm,,,2.0,C1D1,TREATMENT,2024-04-14,1
MS200095-0022-VISION,FA,MS200095-0022-VISION-JPN_SITE01-0016,10,SAXIS,Short Axis,TARGET LESION 2,TUMOR ASSESSMENT,,10.0,mm,10.0,10.0,mm,,,2.0,C1D1,TREATMENT,2024-04-14,1
MS200095-0022-VISION,FA,MS200095-0022-VISION-JPN_SITE01-0016,11,LDIAM,Longest Diameter,TARGET LESION 3,TUMOR ASSESSMENT,,53.6,mm,53.6,53.6,mm,,,2.0,C1D1,TREATMENT,2024-04-14,1
MS200095-0022-VISION,FA,MS200095-0022-VISION-JPN_SITE01-0016,12,SAXIS,Short Axis,TARGET LESION 3,TUMOR ASSESSMENT,,4.9,mm,4.9,4.9,mm,,,2.0,C1D1,TREATMENT,2024-04-14,1
MS200095-0022-VISION,FA,MS200095-0022-VISION-JPN_SITE01-0016,13,LDIAM,Longest Diameter,TARGET LESION 1,TUMOR ASSESSMENT,,38.2,mm,38.2,38.2,mm,,,3.0,C1D15,TREATMENT,2024-04-28,15
MS200095-0022-VISION,FA,MS200095-0022-VISION-JPN_SITE01-0016,14,SAXIS,Short Axis,TARGET LESION 1,TUMOR ASSESSMENT,,10.4,mm,10.4,10.4,mm,,,3.0,C1D15,TREATMENT,2024-04-28,15
MS200095-0022-VISION,FA,MS200095-0022-VISION-JPN_SITE01-0016,15,LDIAM,Longest Diameter,TARGET LESION 2,TUMOR ASSESSMENT,,29.3,mm,29.3,29.3,mm,,,3.0,C1D15,TREATMENT,2024-04-28,15
MS200095-0022-VISION,FA,MS200095-0022-VISION-JPN_SITE01-0016,16,SAXIS,Short Axis,TARGET LESION 2,TUMOR ASSESSMENT,,9.8,mm,9.8,9.8,mm,,,3.0,C1D15,TREATMENT,2024-04-28,15
MS200095-0022-VISION,FA,MS200095-0022-VISION-JPN_SITE01-0016,17,LDIAM,Longest Diameter,TARGET LESION 3,TUMOR ASSESSMENT,,54.9,mm,54.9,54.9,mm,,,3.0,C1D15,TREATMENT,2024-04-28,15
MS200095-0022-VISION,FA,MS200095-0022-VISION-JPN_SITE01-0016,18,SAXIS,Short Axis,TARGET LESION 3,TUMOR ASSESSMENT,,4.3,mm,4.3,4.3,mm,,,3.0,C1D15,TREATMENT,2024-04-28,15
MS200095-0022-VISION,FA,MS200095-0022-VISION-JPN_SITE01-0016,19,LDIAM,Longest Diameter,TARGET LESION 1,TUMOR ASSESSMENT,,36.6,mm,36.6,36.6,mm,,,4.0,C2D1,TREATMENT,2024-05-05,22
MS200095-0022-VISION,FA,MS200095-0022-VISION-JPN_SITE01-0016,20,SAXIS,Short Axis,TARGET LESION 1,TUMOR ASSESSMENT,,10.0,mm,10.0,10.0,mm,,,4.0,C2D1,TREATMENT,2024-05-05,22
MS200095-0022-VISION,FA,MS200095-0022-VISION-JPN_SITE01-0016,21,LDIAM,Longest Diameter,TARGET LESION 2,TUMOR ASSESSMENT,,33.3,mm,33.3,33.3,mm,,,4.0,C2D1,TREATMENT,2024-05-05,22
MS200095-0022-VISION,FA,MS200095-0022-VISION-JPN_SITE01-0016,22,SAXIS,Short Axis,TARGET LESION 2,TUMOR ASSESSMENT,,9.7,mm,9.7,9.7,mm,,,4.0,C2D1,TREATMENT,2024-05-05,22
MS200095-0022-VISION,FA,MS200095-0022-VISION-JPN_SITE01-0016,23,LDIAM,Longest Diameter,TARGET LESION 3,TUMOR ASSESSMENT,,54.9,mm,54.9,54.9,mm,,,4.0,C2D1,TREATMENT,2024-05-05,22
MS200095-0022-VISION,FA,MS200095-0022-VISION-JPN_SITE01-0016,24,SAXIS,Short Axis,TARGET LESION 3,TUMOR ASSESSMENT,,5.4,mm,5.4,5.4,mm,,,4.0,C2D1,TREATMENT,2024-05-05,22
MS200095-0022-VISION,FA,MS200095-0022-VISION-JPN_SITE01-0016,25,LDIAM,Longest Diameter,TARGET LESION 1,TUMOR ASSESSMENT,,39.9,mm,39.9,39.9,mm,,,5.0,C3D1,TREATMENT,2024-05-26,43
MS200095-0022-VISION,FA,MS200095-0022-VISION-JPN_SITE01-0016,26,SAXIS,Short Axis,TARGET LESION 1,TUMOR ASSESSMENT,,9.9,mm,9.9,9.9,mm,,,5.0,C3D1,TREATMENT,2024-05-26,43
MS200095-0022-VISION,FA,MS200095-0022-VISION-JPN_SITE01-0016,27,LDIAM,Longest Diameter,TARGET LESION 2,TUMOR ASSESSMENT,,32.2,mm,32.2,32.2,mm,,,5.0,C3D1,TREATMENT,2024-05-26,43
MS200095-0022-VISION,FA,MS200095-0022-VISION-JPN_SITE01-0016,28,SAXIS,Short Axis,TARGET LESION 2,TUMOR ASSESSMENT,,9.9,mm,9.9,9.9,mm,,,5.0,C3D1,TREATMENT,2024-05-26,43
MS200095-0022-VISION,FA,MS200095-0022-VISION-JPN_SITE01-0016,29,LDIAM,Longest Diameter,TARGET LESION 3,TUMOR ASSESSMENT,,51.4,mm,51.4,51.4,mm,,,5.0,C3D1,TREATMENT,2024-05-26,43
MS200095-0022-VISION,FA,MS200095-0022-VISION-JPN_SITE01-0016,30,SAXIS,Short Axis,TARGET LESION 3,TUMOR ASSESSMENT,,4.2,mm,4.2,4.2,mm,,,5.0,C3D1,TREATMENT,2024-05-26,43
MS200095-0022-VISION,FA,MS200095-0022-VISION-JPN_SITE01-0016,31,LDIAM,Longest Diameter,TARGET LESION 1,TUMOR ASSESSMENT,,37.8,mm,37.8,37.8,mm,,,6.0,C4D1,TREATMENT,2024-06-16,64
MS200095-0022-VISION,FA,MS200095-0022-VISION-JPN_SITE01-0016,32,SAXIS,Short Axis,TARGET LESION 1,TUMOR ASSESSMENT,,8.3,mm,8.3,8.3,mm,,,6.0,C4D1,TREATMENT,2024-06-16,64
MS200095-0022-VISION,FA,MS200095-0022-VISION-JPN_SITE01-0016,33,LDIAM,Longest Diameter,TARGET LESION 2,TUMOR ASSESSMENT,,32.6,mm,32.6,32.6,mm,,,6.0,C4D1,TREATMENT,2024-06-16,64
MS200095-0022-VISION,FA,MS200095-0022-VISION-JPN_SITE01-0016,34,SAXIS,Short Axis,TARGET LESION 2,TUMOR ASSESSMENT,,9.3,mm,9.3,9.3,mm,,,6.0,C4D1,TREATMENT,2024-06-16,64
MS200095-0022-VISION,FA,MS200095-0022-VISION-JPN_SITE01-0016,35,LDIAM,Longest Diameter,TARGET LESION 3,TUMOR ASSESSMENT,,52.9,mm,52.9,52.9,mm,,,6.0,C4D1,TREATMENT,2024-06-16,64
MS200095-0022-VISION,FA,MS200095-0022-VISION-JPN_SITE01-0016,36,SAXIS,Short Axis,TARGET LESION 3,TUMOR ASSESSMENT,,4.3,mm,4.3,4.3,mm,,,6.0,C4D1,TREATMENT,2024-06-16,64
MS200095-0022-VISION,FA,MS200095-0022-VISION-JPN_SITE01-0016,37,LDIAM,Longest Diameter,TARGET LESION 1,TUMOR ASSESSMENT,,35.2,mm,35.2,35.2,mm,,,7.0,C6D1,TREATMENT,2024-07-28,106
MS200095-0022-VISION,FA,MS200095-0022-VISION-JPN_SITE01-0016,38,SAXIS,Short Axis,TARGET LESION 1,TUMOR ASSESSMENT,,9.4,mm,9.4,9.4,mm,,,7.0,C6D1,TREATMENT,2024-07-28,106
MS200095-0022-VISION,FA,MS200095-0022-VISION-JPN_SITE01-0016,39,LDIAM,Longest Diameter,TARGET LESION 2,TUMOR ASSESSMENT,,34.1,mm,34.1,34.1,mm,,,7.0,C6D1,TREATMENT,2024-07-28,106
MS200095-0022-VISION,FA,MS200095-0022-VISION-JPN_SITE01-0016,40,SAXIS,Short Axis,TARGET LESION 2,TUMOR ASSESSMENT,,10.7,mm,10.7,10.7,mm,,,7.0,C6D1,TREATMENT,2024-07-28,106
MS200095-0022-VISION,FA,MS200095-0022-VISION-JPN_SITE01-0016,41,LDIAM,Longest Diameter,TARGET LESION 3,TUMOR ASSESSMENT,,54.9,mm,54.9,54.9,mm,,,7.0,C6D1,TREATMENT,2024-07-28,106
MS200095-0022-VISION,FA,MS200095-0022-VISION-JPN_SITE01-0016,42,SAXIS,Short Axis,TARGET LESION 3,TUMOR ASSESSMENT,,4.2,mm,4.2,4.2,mm,,,7.0,C6D1,TREATMENT,2024-07-28,106
MS200095-0022-VISION,FA,MS200095-0022-VISION-JPN_SITE01-0016,43,LDIAM,Longest Diameter,TARGET LESION 1,TUMOR ASSESSMENT,,38.4,mm,38.4,38.4,mm,,,8.0,C8D1,TREATMENT,2024-09-08,148
MS200095-0022-VISION,FA,MS200095-0022-VISION-JPN_SITE01-0016,44,SAXIS,Short Axis,TARGET LESION 1,TUMOR ASSESSMENT,,9.4,mm,9.4,9.4,mm,,,8.0,C8D1,TREATMENT,2024-09-08,148
MS200095-0022-VISION,FA,MS200095-0022-VISION-JPN_SITE01-0016,45,LDIAM,Longest Diameter,TARGET LESION 2,TUMOR ASSESSMENT,,31.7,mm,31.7,31.7,mm,,,8.0,C8D1,TREATMENT,2024-09-08,148
MS200095-0022-VISION,FA,MS200095-0022-VISION-JPN_SITE01-0016,46,SAXIS,Short Axis,TARGET LESION 2,TUMOR ASSESSMENT,,9.2,mm,9.2,9.2,mm,,,8.0,C8D1,TREATMENT,2024-09-08,148
MS200095-0022-VISION,FA,MS200095-0022-VISION-JPN_SITE01-0016,47,LDIAM,Longest Diameter,TARGET LESION 3,TUMOR ASSESSMENT,,53.3,mm,53.3,53.3,mm,,,8.0,C8D1,TREATMENT,2024-09-08,148
MS200095-0022-VISION,FA,MS200095-0022-VISION-JPN_SITE01-0016,48,SAXIS,Short Axis,TARGET LESION 3,TUMOR ASSESSMENT,,5.6,mm,5.6,5.6,mm,,,8.0,C8D1,TREATMENT,2024-09-08,148
MS200095-0022-VISION,FA,MS200095-0022-VISION-JPN_SITE01-0016,49,LDIAM,Longest Diameter,TARGET LESION 1,TUMOR ASSESSMENT,,36.3,mm,36.3,36.3,mm,,,9.0,C12D1,TREATMENT,2024-12-01,232
MS200095-0022-VISION,FA,MS200095-0022-VISION-JPN_SITE01-0016,50,SAXIS,Short Axis,TARGET LESION 1,TUMOR ASSESSMENT,,8.5,mm,8.5,8.5,mm,,,9.0,C12D1,TREATMENT,2024-12-01,232
MS200095-0022-VISION,FA,MS200095-0022-VISION-JPN_SITE01-0016,51,LDIAM,Longest Diameter,TARGET LESION 2,TUMOR ASSESSMENT,,31.3,mm,31.3,31.3,mm,,,9.0,C12D1,TREATMENT,2024-12-01,232
MS200095-0022-VISION,FA,MS200095-0022-VISION-JPN_SITE01-0016,52,SAXIS,Short Axis,TARGET LESION 2,TUMOR ASSESSMENT,,9.3,mm,9.3,9.3,mm,,,9.0,C12D1,TREATMENT,2024-12-01,232
MS200095-0022-VISION,FA,MS200095-0022-VISION-JPN_SITE01-0016,53,LDIAM,Longest Diameter,TARGET LESION 3,TUMOR ASSESSMENT,,51.7,mm,51.7,51.7,mm,,,9.0,C12D1,TREATMENT,2024-12-01,232
MS200095-0022-VISION,FA,MS200095-0022-VISION-JPN_SITE01-0016,54,SAXIS,Short Axis,TARGET LESION 3,TUMOR ASSESSMENT,,4.5,mm,4.5,4.5,mm,,,9.0,C12D1,TREATMENT,2024-12-01,232
MS200095-0022-VISION,FA,MS200095-0022-VISION-JPN_SITE02-0005,1,LDIAM,Longest Diameter,TARGET LESION 1,TUMOR ASSESSMENT,,40.4,mm,40.4,40.4,mm,,,1.0,SCREENING,SCREENING,2024-02-29,-21
MS200095-0022-VISION,FA,MS200095-0022-VISION-JPN_SITE02-0005,2,SAXIS,Short Axis,TARGET LESION 1,TUMOR ASSESSMENT,,14.1,mm,14.1,14.1,mm,,,1.0,SCREENING,SCREENING,2024-02-29,-21
MS200095-0022-VISION,FA,MS200095-0022-VISION-JPN_SITE02-0005,3,LDIAM,Longest Diameter,TARGET LESION 1,TUMOR ASSESSMENT,,41.8,mm,41.8,41.8,mm,,Y,2.0,C1D1,TREATMENT,2024-03-21,1
MS200095-0022-VISION,FA,MS200095-0022-VISION-JPN_SITE02-0005,4,SAXIS,Short Axis,TARGET LESION 1,TUMOR ASSESSMENT,,14.0,mm,14.0,14.0,mm,,Y,2.0,C1D1,TREATMENT,2024-03-21,1
MS200095-0022-VISION,FA,MS200095-0022-VISION-JPN_SITE02-0005,5,LDIAM,Longest Diameter,TARGET LESION 1,TUMOR ASSESSMENT,,41.7,mm,41.7,41.7,mm,,,3.0,C1D15,TREATMENT,2024-04-04,15
MS200095-0022-VISION,FA,MS200095-0022-VISION-JPN_SITE02-0005,6,SAXIS,Short Axis,TARGET LESION 1,TUMOR ASSESSMENT,,14.8,mm,14.8,14.8,mm,,,3.0,C1D15,TREATMENT,2024-04-04,15
MS200095-0022-VISION,FA,MS200095-0022-VISION-JPN_SITE02-0005,7,LDIAM,Longest Diameter,TARGET LESION 1,TUMOR ASSESSMENT,,45.4,mm,45.4,45.4,mm,,,4.0,C2D1,TREATMENT,2024-04-11,22
MS200095-0022-VISION,FA,MS200095-0022-VISION-JPN_SITE02-0005,8,SAXIS,Short Axis,TARGET LESION 1,TUMOR ASSESSMENT,,15.2,mm,15.2,15.2,mm,,,4.0,C2D1,TREATMENT,2024-04-11,22
MS200095-0022-VISION,FA,MS200095-0022-VISION-JPN_SITE02-0005,9,LDIAM,Longest Diameter,TARGET LESION 1,TUMOR ASSESSMENT,,47.5,mm,47.5,47.5,mm,,,5.0,C3D1,TREATMENT,2024-05-02,43
MS200095-0022-VISION,FA,MS200095-0022-VISION-JPN_SITE02-0005,10,SAXIS,Short Axis,TARGET LESION 1,TUMOR ASSESSMENT,,16.1,mm,16.1,16.1,mm,,,5.0,C3D1,TREATMENT,2024-05-02,43
MS200095-0022-VISION,FA,MS200095-0022-VISION-JPN_SITE02-0005,11,LDIAM,Longest Diameter,TARGET LESION 1,TUMOR ASSESSMENT,,47.5,mm,47.5,47.5,mm,,,6.0,C4D1,TREATMENT,2024-05-23,64
MS200095-0022-VISION,FA,MS200095-0022-VISION-JPN_SITE02-0005,12,SAXIS,Short Axis,TARGET LESION 1,TUMOR ASSESSMENT,,16.8,mm,16.8,16.8,mm,,,6.0,C4D1,TREATMENT,2024-05-23,64
MS200095-0022-VISION,FA,MS200095-0022-VISION-JPN_SITE02-0005,13,LDIAM,Longest Diameter,TARGET LESION 1,TUMOR ASSESSMENT,,46.9,mm,46.9,46.9,mm,,,7.0,C6D1,TREATMENT,2024-07-04,106
MS200095-0022-VISION,FA,MS200095-0022-VISION-JPN_SITE02-0005,14,SAXIS,Short Axis,TARGET LESION 1,TUMOR ASSESSMENT,,17.6,mm,17.6,17.6,mm,,,7.0,C6D1,TREATMENT,2024-07-04,106
MS200095-0022-VISION,FA,MS200095-0022-VISION-JPN_SITE02-0005,15,LDIAM,Longest Diameter,TARGET LESION 1,TUMOR ASSESSMENT,,49.9,mm,49.9,49.9,mm,,,8.0,C8D1,TREATMENT,2024-08-15,148
MS200095-0022-VISION,FA,MS200095-0022-VISION-JPN_SITE02-0005,16,SAXIS,Short Axis,TARGET LESION 1,TUMOR ASSESSMENT,,17.2,mm,17.2,17.2,mm,,,8.0,C8D1,TREATMENT,2024-08-15,148
MS200095-0022-VISION,FA,MS200095-0022-VISION-JPN_SITE02-0010,1,LDIAM,Longest Diameter,TARGET LESION 1,TUMOR ASSESSMENT,,36.3,mm,36.3,36.3,mm,,,1.0,SCREENING,SCREENING,2024-02-05,-31
MS200095-0022-VISION,FA,MS200095-0022-VISION-JPN_SITE02-0010,2,SAXIS,Short Axis,TARGET LESION 1,TUMOR ASSESSMENT,,8.1,mm,8.1,8.1,mm,,,1.0,SCREENING,SCREENING,2024-02-05,-31
MS200095-0022-VISION,FA,MS200095-0022-VISION-JPN_SITE02-0010,3,LDIAM,Longest Diameter,TARGET LESION 2,TUMOR ASSESSMENT,,45.5,mm,45.5,45.5,mm,,,1.0,SCREENING,SCREENING,2024-02-05,-31
MS200095-0022-VISION,FA,MS200095-0022-VISION-JPN_SITE02-0010,4,SAXIS,Short Axis,TARGET LESION 2,TUMOR ASSESSMENT,,10.7,mm,10.7,10.7,mm,,,1.0,SCREENING,SCREENING,2024-02-05,-31
MS200095-0022-VISION,FA,MS200095-0022-VISION-JPN_SITE02-0010,5,LDIAM,Longest Diameter,TARGET LESION 1,TUMOR ASSESSMENT,,37.0,mm,37.0,37.0,mm,,Y,2.0,C1D1,TREATMENT,2024-03-07,1
MS200095-0022-VISION,FA,MS200095-0022-VISION-JPN_SITE02-0010,6,SAXIS,Short Axis,TARGET LESION 1,TUMOR ASSESSMENT,,7.8,mm,7.8,7.8,mm,,Y,2.0,C1D1,TREATMENT,2024-03-07,1
MS200095-0022-VISION,FA,MS200095-0022-VISION-JPN_SITE02-0010,7,LDIAM,Longest Diameter,TARGET LESION 2,TUMOR ASSESSMENT,,42.2,mm,42.2,42.2,mm,,,2.0,C1D1,TREATMENT,2024-03-07,1
MS200095-0022-VISION,FA,MS200095-0022-VISION-JPN_SITE02-0010,8,SAXIS,Short Axis,TARGET LESION 2,TUMOR ASSESSMENT,,10.6,mm,10.6,10.6,mm,,,2.0,C1D1,TREATMENT,2024-03-07,1
MS200095-0022-VISION,FA,MS200095-0022-VISION-JPN_SITE02-0010,9,LDIAM,Longest Diameter,TARGET LESION 1,TUMOR ASSESSMENT,,36.1,mm,36.1,36.1,mm,,,3.0,C1D15,TREATMENT,2024-03-21,15
MS200095-0022-VISION,FA,MS200095-0022-VISION-JPN_SITE02-0010,10,SAXIS,Short Axis,TARGET LESION 1,TUMOR ASSESSMENT,,8.8,mm,8.8,8.8,mm,,,3.0,C1D15,TREATMENT,2024-03-21,15
MS200095-0022-VISION,FA,MS200095-0022-VISION-JPN_SITE02-0010,11,LDIAM,Longest Diameter,TARGET LESION 2,TUMOR ASSESSMENT,,43.8,mm,43.8,43.8,mm,,,3.0,C1D15,TREATMENT,2024-03-21,15
MS200095-0022-VISION,FA,MS200095-0022-VISION-JPN_SITE02-0010,12,SAXIS,Short Axis,TARGET LESION 2,TUMOR ASSESSMENT,,10.9,mm,10.9,10.9,mm,,,3.0,C1D15,TREATMENT,2024-03-21,15
MS200095-0022-VISION,FA,MS200095-0022-VISION-JPN_SITE02-0010,13,LDIAM,Longest Diameter,TARGET LESION 1,TUMOR ASSESSMENT,,33.9,mm,33.9,33.9,mm,,,4.0,C2D1,TREATMENT,2024-03-28,22
MS200095-0022-VISION,FA,MS200095-0022-VISION-JPN_SITE02-0010,14,SAXIS,Short Axis,TARGET LESION 1,TUMOR ASSESSMENT,,7.1,mm,7.1,7.1,mm,,,4.0,C2D1,TREATMENT,2024-03-28,22
MS200095-0022-VISION,FA,MS200095-0022-VISION-JPN_SITE02-0010,15,LDIAM,Longest Diameter,TARGET LESION 2,TUMOR ASSESSMENT,,41.8,mm,41.8,41.8,mm,,,4.0,C2D1,TREATMENT,2024-03-28,22
MS200095-0022-VISION,FA,MS200095-0022-VISION-JPN_SITE02-0010,16,SAXIS,Short Axis,TARGET LESION 2,TUMOR ASSESSMENT,,9.4,mm,9.4,9.4,mm,,,4.0,C2D1,TREATMENT,2024-03-28,22
MS200095-0022-VISION,FA,MS200095-0022-VISION-JPN_SITE02-0010,17,LDIAM,Longest Diameter,TARGET LESION 1,TUMOR ASSESSMENT,,32.5,mm,32.5,32.5,mm,,,5.0,C3D1,TREATMENT,2024-04-18,43
MS200095-0022-VISION,FA,MS200095-0022-VISION-JPN_SITE02-0010,18,SAXIS,Short Axis,TARGET LESION 1,TUMOR ASSESSMENT,,7.9,mm,7.9,7.9,mm,,,5.0,C3D1,TREATMENT,2024-04-18,43
MS200095-0022-VISION,FA,MS200095-0022-VISION-JPN_SITE02-0010,19,LDIAM,Longest Diameter,TARGET LESION 2,TUMOR ASSESSMENT,,42.4,mm,42.4,42.4,mm,,,5.0,C3D1,TREATMENT,2024-04-18,43
MS200095-0022-VISION,FA,MS200095-0022-VISION-JPN_SITE02-0010,20,SAXIS,Short Axis,TARGET LESION 2,TUMOR ASSESSMENT,,9.3,mm,9.3,9.3,mm,,,5.0,C3D1,TREATMENT,2024-04-18,43
MS200095-0022-VISION,FA,MS200095-0022-VISION-JPN_SITE02-0010,21,LDIAM,Longest Diameter,TARGET LESION 1,TUMOR ASSESSMENT,,36.3,mm,36.3,36.3,mm,,,6.0,C4D1,TREATMENT,2024-05-09,64
MS200095-0022-VISION,FA,MS200095-0022-VISION-JPN_SITE02-0010,22,SAXIS,Short Axis,TARGET LESION 1,TUMOR ASSESSMENT,,7.6,mm,7.6,7.6,mm,,,6.0,C4D1,TREATMENT,2024-05-09,64
MS200095-0022-VISION,FA,MS200095-0022-VISION-JPN_SITE02-0010,23,LDIAM,Longest Diameter,TARGET LESION 2,TUMOR ASSESSMENT,,44.5,mm,44.5,44.5,mm,,,6.0,C4D1,TREATMENT,2024-05-09,64
MS200095-0022-VISION,FA,MS200095-0022-VISION-JPN_SITE02-0010,24,SAXIS,Short Axis,TARGET LESION 2,TUMOR ASSESSMENT,,9.7,mm,9.7,9.7,mm,,,6.0,C4D1,TREATMENT,2024-05-09,64
MS200095-0022-VISION,FA,MS200095-0022-VISION-JPN_SITE02-0012,1,LDIAM,Longest Diameter,TARGET LESION 1,TUMOR ASSESSMENT,,20.4,mm,20.4,20.4,mm,,,1.0,SCREENING,SCREENING,2024-01-19,-21
MS200095-0022-VISION,FA,MS200095-0022-VISION-JPN_SITE02-0012,2,SAXIS,Short Axis,TARGET LESION 1,TUMOR ASSESSMENT,,18.6,mm,18.6,18.6,mm,,,1.0,SCREENING,SCREENING,2024-01-19,-21
MS200095-0022-VISION,FA,MS200095-0022-VISION-JPN_SITE02-0012,3,LDIAM,Longest Diameter,TARGET LESION 1,TUMOR ASSESSMENT,,19.8,mm,19.8,19.8,mm,,Y,2.0,C1D1,TREATMENT,2024-02-09,1
MS200095-0022-VISION,FA,MS200095-0022-VISION-JPN_SITE02-0012,4,SAXIS,Short Axis,TARGET LESION 1,TUMOR ASSESSMENT,,18.7,mm,18.7,18.7,mm,,Y,2.0,C1D1,TREATMENT,2024-02-09,1
MS200095-0022-VISION,FA,MS200095-0022-VISION-JPN_SITE02-0012,5,LDIAM,Longest Diameter,TARGET LESION 1,TUMOR ASSESSMENT,,22.9,mm,22.9,22.9,mm,,,3.0,C1D15,TREATMENT,2024-02-23,15
MS200095-0022-VISION,FA,MS200095-0022-VISION-JPN_SITE02-0012,6,SAXIS,Short Axis,TARGET LESION 1,TUMOR ASSESSMENT,,18.8,mm,18.8,18.8,mm,,,3.0,C1D15,TREATMENT,2024-02-23,15
MS200095-0022-VISION,FA,MS200095-0022-VISION-JPN_SITE02-0012,7,LDIAM,Longest Diameter,TARGET LESION 1,TUMOR ASSESSMENT,,22.3,mm,22.3,22.3,mm,,,4.0,C2D1,TREATMENT,2024-03-01,22
MS200095-0022-VISION,FA,MS200095-0022-VISION-JPN_SITE02-0012,8,SAXIS,Short Axis,TARGET LESION 1,TUMOR ASSESSMENT,,19.6,mm,19.6,19.6,mm,,,4.0,C2D1,TREATMENT,2024-03-01,22
MS200095-0022-VISION,FA,MS200095-0022-VISION-JPN_SITE02-0012,9,LDIAM,Longest Diameter,TARGET LESION 1,TUMOR ASSESSMENT,,21.0,mm,21.0,21.0,mm,,,5.0,C3D1,TREATMENT,2024-03-22,43
MS200095-0022-VISION,FA,MS200095-0022-VISION-JPN_SITE02-0012,10,SAXIS,Short Axis,TARGET LESION 1,TUMOR ASSESSMENT,,19.7,mm,19.7,19.7,mm,,,5.0,C3D1,TREATMENT,2024-03-22,43
MS200095-0022-VISION,FA,MS200095-0022-VISION-JPN_SITE02-0012,11,LDIAM,Longest Diameter,TARGET LESION 1,TUMOR ASSESSMENT,,20.6,mm,20.6,20.6,mm,,,6.0,C4D1,TREATMENT,2024-04-12,64
MS200095-0022-VISION,FA,MS200095-0022-VISION-JPN_SITE02-0012,12,SAXIS,Short Axis,TARGET LESION 1,TUMOR ASSESSMENT,,19.7,mm,19.7,19.7,mm,,,6.0,C4D1,TREATMENT,2024-04-12,64
MS200095-0022-VISION,FA,MS200095-0022-VISION-JPN_SITE02-0012,13,LDIAM,Longest Diameter,TARGET LESION 1,TUMOR ASSESSMENT,,23.8,mm,23.8,23.8,mm,,,7.0,C6D1,TREATMENT,2024-05-24,106
MS200095-0022-VISION,FA,MS200095-0022-VISION-JPN_SITE02-0012,14,SAXIS,Short Axis,TARGET LESION 1,TUMOR ASSESSMENT,,20.5,mm,20.5,20.5,mm,,,7.0,C6D1,TREATMENT,2024-05-24,106
MS200095-0022-VISION,FA,MS200095-0022-VISION-JPN_SITE02-0012,15,LDIAM,Longest Diameter,TARGET LESION 1,TUMOR ASSESSMENT,,21.0,mm,21.0,21.0,mm,,,8.0,C8D1,TREATMENT,2024-07-05,148
MS200095-0022-VISION,FA,MS200095-0022-VISION-JPN_SITE02-0012,16,SAXIS,Short Axis,TARGET LESION 1,TUMOR ASSESSMENT,,20.5,mm,20.5,20.5,mm,,,8.0,C8D1,TREATMENT,2024-07-05,148
MS200095-0022-VISION,FA,MS200095-0022-VISION-JPN_SITE02-0012,17,LDIAM,Longest Diameter,TARGET LESION 1,TUMOR ASSESSMENT,,22.9,mm,22.9,22.9,mm,,,9.0,C12D1,TREATMENT,2024-09-27,232
MS200095-0022-VISION,FA,MS200095-0022-VISION-JPN_SITE02-0012,18,SAXIS,Short Axis,TARGET LESION 1,TUMOR ASSESSMENT,,21.6,mm,21.6,21.6,mm,,,9.0,C12D1,TREATMENT,2024-09-27,232
MS200095-0022-VISION,FA,MS200095-0022-VISION-JPN_SITE02-0012,19,LDIAM,Longest Diameter,TARGET LESION 1,TUMOR ASSESSMENT,,22.6,mm,22.6,22.6,mm,,,10.0,C18D1,TREATMENT,2025-01-31,358
MS200095-0022-VISION,FA,MS200095-0022-VISION-JPN_SITE02-0012,20,SAXIS,Short Axis,TARGET LESION 1,TUMOR ASSESSMENT,,21.7,mm,21.7,21.7,mm,,,10.0,C18D1,TREATMENT,2025-01-31,358
MS200095-0022-VISION,FA,MS200095-0022-VISION-JPN_SITE02-0012,21,LDIAM,Longest Diameter,TARGET LESION 1,TUMOR ASSESSMENT,,23.5,mm,23.5,23.5,mm,,,11.0,C24D1,TREATMENT,2025-06-06,484
MS200095-0022-VISION,FA,MS200095-0022-VISION-JPN_SITE02-0012,22,SAXIS,Short Axis,TARGET LESION 1,TUMOR ASSESSMENT,,21.8,mm,21.8,21.8,mm,,,11.0,C24D1,TREATMENT,2025-06-06,484
MS200095-0022-VISION,FA,MS200095-0022-VISION-JPN_SITE02-0012,23,LDIAM,Longest Diameter,TARGET LESION 1,TUMOR ASSESSMENT,,22.4,mm,22.4,22.4,mm,,,12.0,EOT,FOLLOW-UP,2025-06-27,505
MS200095-0022-VISION,FA,MS200095-0022-VISION-JPN_SITE02-0012,24,SAXIS,Short Axis,TARGET LESION 1,TUMOR ASSESSMENT,,23.2,mm,23.2,23.2,mm,,,12.0,EOT,FOLLOW-UP,2025-06-27,505
MS200095-0022-VISION,FA,MS200095-0022-VISION-JPN_SITE02-0017,1,LDIAM,Longest Diameter,TARGET LESION 1,TUMOR ASSESSMENT,,37.3,mm,37.3,37.3,mm,,,1.0,SCREENING,SCREENING,2024-03-07,-19
MS200095-0022-VISION,FA,MS200095-0022-VISION-JPN_SITE02-0017,2,SAXIS,Short Axis,TARGET LESION 1,TUMOR ASSESSMENT,,12.5,mm,12.5,12.5,mm,,,1.0,SCREENING,SCREENING,2024-03-07,-19
MS200095-0022-VISION,FA,MS200095-0022-VISION-JPN_SITE02-0017,3,LDIAM,Longest Diameter,TARGET LESION 2,TUMOR ASSESSMENT,,49.1,mm,49.1,49.1,mm,,,1.0,SCREENING,SCREENING,2024-03-07,-19
MS200095-0022-VISION,FA,MS200095-0022-VISION-JPN_SITE02-0017,4,SAXIS,Short Axis,TARGET LESION 2,TUMOR ASSESSMENT,,11.8,mm,11.8,11.8,mm,,,1.0,SCREENING,SCREENING,2024-03-07,-19
MS200095-0022-VISION,FA,MS200095-0022-VISION-JPN_SITE02-0017,5,LDIAM,Longest Diameter,TARGET LESION 3,TUMOR ASSESSMENT,,24.9,mm,24.9,24.9,mm,,,1.0,SCREENING,SCREENING,2024-03-07,-19
MS200095-0022-VISION,FA,MS200095-0022-VISION-JPN_SITE02-0017,6,SAXIS,Short Axis,TARGET LESION 3,TUMOR ASSESSMENT,,7.3,mm,7.3,7.3,mm,,,1.0,SCREENING,SCREENING,2024-03-07,-19
MS200095-0022-VISION,FA,MS200095-0022-VISION-JPN_SITE02-0017,7,LDIAM,Longest Diameter,TARGET LESION 4,TUMOR ASSESSMENT,,39.9,mm,39.9,39.9,mm,,,1.0,SCREENING,SCREENING,2024-03-07,-19
MS200095-0022-VISION,FA,MS200095-0022-VISION-JPN_SITE02-0017,8,SAXIS,Short Axis,TARGET LESION 4,TUMOR ASSESSMENT,,5.8,mm,5.8,5.8,mm,,,1.0,SCREENING,SCREENING,2024-03-07,-19
MS200095-0022-VISION,FA,MS200095-0022-VISION-JPN_SITE02-0017,9,LDIAM,Longest Diameter,TARGET LESION 5,TUMOR ASSESSMENT,,45.6,mm,45.6,45.6,mm,,,1.0,SCREENING,SCREENING,2024-03-07,-19
MS200095-0022-VISION,FA,MS200095-0022-VISION-JPN_SITE02-0017,10,SAXIS,Short Axis,TARGET LESION 5,TUMOR ASSESSMENT,,11.8,mm,11.8,11.8,mm,,,1.0,SCREENING,SCREENING,2024-03-07,-19
MS200095-0022-VISION,FA,MS200095-0022-VISION-JPN_SITE02-0017,11,LDIAM,Longest Diameter,TARGET LESION 1,TUMOR ASSESSMENT,,37.6,mm,37.6,37.6,mm,,Y,2.0,C1D1,TREATMENT,2024-03-26,1
MS200095-0022-VISION,FA,MS200095-0022-VISION-JPN_SITE02-0017,12,SAXIS,Short Axis,TARGET LESION 1,TUMOR ASSESSMENT,,12.7,mm,12.7,12.7,mm,,Y,2.0,C1D1,TREATMENT,2024-03-26,1
MS200095-0022-VISION,FA,MS200095-0022-VISION-JPN_SITE02-0017,13,LDIAM,Longest Diameter,TARGET LESION 2,TUMOR ASSESSMENT,,50.7,mm,50.7,50.7,mm,,,2.0,C1D1,TREATMENT,2024-03-26,1
MS200095-0022-VISION,FA,MS200095-0022-VISION-JPN_SITE02-0017,14,SAXIS,Short Axis,TARGET LESION 2,TUMOR ASSESSMENT,,11.1,mm,11.1,11.1,mm,,,2.0,C1D1,TREATMENT,2024-03-26,1
MS200095-0022-VISION,FA,MS200095-0022-VISION-JPN_SITE02-0017,15,LDIAM,Longest Diameter,TARGET LESION 3,TUMOR ASSESSMENT,,27.0,mm,27.0,27.0,mm,,,2.0,C1D1,TREATMENT,2024-03-26,1
MS200095-0022-VISION,FA,MS200095-0022-VISION-JPN_SITE02-0017,16,SAXIS,Short Axis,TARGET LESION 3,TUMOR ASSESSMENT,,7.7,mm,7.7,7.7,mm,,,2.0,C1D1,TREATMENT,2024-03-26,1
MS200095-0022-VISION,FA,MS200095-0022-VISION-JPN_SITE02-0017,17,LDIAM,Longest Diameter,TARGET LESION 4,TUMOR ASSESSMENT,,37.6,mm,37.6,37.6,mm,,,2.0,C1D1,TREATMENT,2024-03-26,1
MS200095-0022-VISION,FA,MS200095-0022-VISION-JPN_SITE02-0017,18,SAXIS,Short Axis,TARGET LESION 4,TUMOR ASSESSMENT,,4.8,mm,4.8,4.8,mm,,,2.0,C1D1,TREATMENT,2024-03-26,1
MS200095-0022-VISION,FA,MS200095-0022-VISION-JPN_SITE02-0017,19,LDIAM,Longest Diameter,TARGET LESION 5,TUMOR ASSESSMENT,,43.3,mm,43.3,43.3,mm,,,2.0,C1D1,TREATMENT,2024-03-26,1
MS200095-0022-VISION,FA,MS200095-0022-VISION-JPN_SITE02-0017,20,SAXIS,Short Axis,TARGET LESION 5,TUMOR ASSESSMENT,,11.6,mm,11.6,11.6,mm,,,2.0,C1D1,TREATMENT,2024-03-26,1
MS200095-0022-VISION,FA,MS200095-0022-VISION-JPN_SITE02-0017,21,LDIAM,Longest Diameter,TARGET LESION 1,TUMOR ASSESSMENT,,35.0,mm,35.0,35.0,mm,,,3.0,C1D15,TREATMENT,2024-04-09,15
MS200095-0022-VISION,FA,MS200095-0022-VISION-JPN_SITE02-0017,22,SAXIS,Short Axis,TARGET LESION 1,TUMOR ASSESSMENT,,11.5,mm,11.5,11.5,mm,,,3.0,C1D15,TREATMENT,2024-04-09,15
MS200095-0022-VISION,FA,MS200095-0022-VISION-JPN_SITE02-0017,23,LDIAM,Longest Diameter,TARGET LESION 2,TUMOR ASSESSMENT,,45.2,mm,45.2,45.2,mm,,,3.0,C1D15,TREATMENT,2024-04-09,15
MS200095-0022-VISION,FA,MS200095-0022-VISION-JPN_SITE02-0017,24,SAXIS,Short Axis,TARGET LESION 2,TUMOR ASSESSMENT,,10.9,mm,10.9,10.9,mm,,,3.0,C1D15,TREATMENT,2024-04-09,15
MS200095-0022-VISION,FA,MS200095-0022-VISION-JPN_SITE02-0017,25,LDIAM,Longest Diameter,TARGET LESION 3,TUMOR ASSESSMENT,,22.9,mm,22.9,22.9,mm,,,3.0,C1D15,TREATMENT,2024-04-09,15
MS200095-0022-VISION,FA,MS200095-0022-VISION-JPN_SITE02-0017,26,SAXIS,Short Axis,TARGET LESION 3,TUMOR ASSESSMENT,,6.6,mm,6.6,6.6,mm,,,3.0,C1D15,TREATMENT,2024-04-09,15
MS200095-0022-VISION,FA,MS200095-0022-VISION-JPN_SITE02-0017,27,LDIAM,Longest Diameter,TARGET LESION 4,TUMOR ASSESSMENT,,34.5,mm,34.5,34.5,mm,,,3.0,C1D15,TREATMENT,2024-04-09,15
MS200095-0022-VISION,FA,MS200095-0022-VISION-JPN_SITE02-0017,28,SAXIS,Short Axis,TARGET LESION 4,TUMOR ASSESSMENT,,5.0,mm,5.0,5.0,mm,,,3.0,C1D15,TREATMENT,2024-04-09,15
MS200095-0022-VISION,FA,MS200095-0022-VISION-JPN_SITE02-0017,29,LDIAM,Longest Diameter,TARGET LESION 5,TUMOR ASSESSMENT,,41.4,mm,41.4,41.4,mm,,,3.0,C1D15,TREATMENT,2024-04-09,15
MS200095-0022-VISION,FA,MS200095-0022-VISION-JPN_SITE02-0017,30,SAXIS,Short Axis,TARGET LESION 5,TUMOR ASSESSMENT,,10.3,mm,10.3,10.3,mm,,,3.0,C1D15,TREATMENT,2024-04-09,15
MS200095-0022-VISION,FA,MS200095-0022-VISION-JPN_SITE02-0017,31,LDIAM,Longest Diameter,TARGET LESION 1,TUMOR ASSESSMENT,,31.9,mm,31.9,31.9,mm,,,4.0,C2D1,TREATMENT,2024-04-16,22
MS200095-0022-VISION,FA,MS200095-0022-VISION-JPN_SITE02-0017,32,SAXIS,Short Axis,TARGET LESION 1,TUMOR ASSESSMENT,,11.1,mm,11.1,11.1,mm,,,4.0,C2D1,TREATMENT,2024-04-16,22
MS200095-0022-VISION,FA,MS200095-0022-VISION-JPN_SITE02-0017,33,LDIAM,Longest Diameter,TARGET LESION 2,TUMOR ASSESSMENT,,40.6,mm,40.6,40.6,mm,,,4.0,C2D1,TREATMENT,2024-04-16,22
MS200095-0022-VISION,FA,MS200095-0022-VISION-JPN_SITE02-0017,34,SAXIS,Short Axis,TARGET LESION 2,TUMOR ASSESSMENT,,10.5,mm,10.5,10.5,mm,,,4.0,C2D1,TREATMENT,2024-04-16,22
MS200095-0022-VISION,FA,MS200095-0022-VISION-JPN_SITE02-0017,35,LDIAM,Longest Diameter,TARGET LESION 3,TUMOR ASSESSMENT,,21.2,mm,21.2,21.2,mm,,,4.0,C2D1,TREATMENT,2024-04-16,22
MS200095-0022-VISION,FA,MS200095-0022-VISION-JPN_SITE02-0017,36,SAXIS,Short Axis,TARGET LESION 3,TUMOR ASSESSMENT,,5.8,mm,5.8,5.8,mm,,,4.0,C2D1,TREATMENT,2024-04-16,22
MS200095-0022-VISION,FA,MS200095-0022-VISION-JPN_SITE02-0017,37,LDIAM,Longest Diameter,TARGET LESION 4,TUMOR ASSESSMENT,,35.9,mm,35.9,35.9,mm,,,4.0,C2D1,TREATMENT,2024-04-16,22
MS200095-0022-VISION,FA,MS200095-0022-VISION-JPN_SITE02-0017,38,SAXIS,Short Axis,TARGET LESION 4,TUMOR ASSESSMENT,,5.0,mm,5.0,5.0,mm,,,4.0,C2D1,TREATMENT,2024-04-16,22
MS200095-0022-VISION,FA,MS200095-0022-VISION-JPN_SITE02-0017,39,LDIAM,Longest Diameter,TARGET LESION 5,TUMOR ASSESSMENT,,40.4,mm,40.4,40.4,mm,,,4.0,C2D1,TREATMENT,2024-04-16,22
MS200095-0022-VISION,FA,MS200095-0022-VISION-JPN_SITE02-0017,40,SAXIS,Short Axis,TARGET LESION 5,TUMOR ASSESSMENT,,10.2,mm,10.2,10.2,mm,,,4.0,C2D1,TREATMENT,2024-04-16,22
MS200095-0022-VISION,FA,MS200095-0022-VISION-JPN_SITE02-0017,41,LDIAM,Longest Diameter,TARGET LESION 1,TUMOR ASSESSMENT,,28.8,mm,28.8,28.8,mm,,,5.0,C3D1,TREATMENT,2024-05-07,43
MS200095-0022-VISION,FA,MS200095-0022-VISION-JPN_SITE02-0017,42,SAXIS,Short Axis,TARGET LESION 1,TUMOR ASSESSMENT,,9.8,mm,9.8,9.8,mm,,,5.0,C3D1,TREATMENT,2024-05-07,43
MS200095-0022-VISION,FA,MS200095-0022-VISION-JPN_SITE02-0017,43,LDIAM,Longest Diameter,TARGET LESION 2,TUMOR ASSESSMENT,,42.2,mm,42.2,42.2,mm,,,5.0,C3D1,TREATMENT,2024-05-07,43
MS200095-0022-VISION,FA,MS200095-0022-VISION-JPN_SITE02-0017,44,SAXIS,Short Axis,TARGET LESION 2,TUMOR ASSESSMENT,,11.0,mm,11.0,11.0,mm,,,5.0,C3D1,TREATMENT,2024-05-07,43
MS200095-0022-VISION,FA,MS200095-0022-VISION-JPN_SITE02-0017,45,LDIAM,Longest Diameter,TARGET LESION 3,TUMOR ASSESSMENT,,19.8,mm,19.8,19.8,mm,,,5.0,C3D1,TREATMENT,2024-05-07,43
MS200095-0022-VISION,FA,MS200095-0022-VISION-JPN_SITE02-0017,46,SAXIS,Short Axis,TARGET LESION 3,TUMOR ASSESSMENT,,6.0,mm,6.0,6.0,mm,,,5.0,C3D1,TREATMENT,2024-05-07,43
MS200095-0022-VISION,FA,MS200095-0022-VISION-JPN_SITE02-0017,47,LDIAM,Longest Diameter,TARGET LESION 4,TUMOR ASSESSMENT,,33.2,mm,33.2,33.2,mm,,,5.0,C3D1,TREATMENT,2024-05-07,43
MS200095-0022-VISION,FA,MS200095-0022-VISION-JPN_SITE02-0017,48,SAXIS,Short Axis,TARGET LESION 4,TUMOR ASSESSMENT,,4.9,mm,4.9,4.9,mm,,,5.0,C3D1,TREATMENT,2024-05-07,43
MS200095-0022-VISION,FA,MS200095-0022-VISION-JPN_SITE02-0017,49,LDIAM,Longest Diameter,TARGET LESION 5,TUMOR ASSESSMENT,,37.9,mm,37.9,37.9,mm,,,5.0,C3D1,TREATMENT,2024-05-07,43
MS200095-0022-VISION,FA,MS200095-0022-VISION-JPN_SITE02-0017,50,SAXIS,Short Axis,TARGET LESION 5,TUMOR ASSESSMENT,,10.0,mm,10.0,10.0,mm,,,5.0,C3D1,TREATMENT,2024-05-07,43
MS200095-0022-VISION,FA,MS200095-0022-VISION-JPN_SITE02-0017,51,LDIAM,Longest Diameter,TARGET LESION 1,TUMOR ASSESSMENT,,30.0,mm,30.0,30.0,mm,,,6.0,C4D1,TREATMENT,2024-05-28,64
MS200095-0022-VISION,FA,MS200095-0022-VISION-JPN_SITE02-0017,52,SAXIS,Short Axis,TARGET LESION 1,TUMOR ASSESSMENT,,10.3,mm,10.3,10.3,mm,,,6.0,C4D1,TREATMENT,2024-05-28,64
MS200095-0022-VISION,FA,MS200095-0022-VISION-JPN_SITE02-0017,53,LDIAM,Longest Diameter,TARGET LESION 2,TUMOR ASSESSMENT,,40.4,mm,40.4,40.4,mm,,,6.0,C4D1,TREATMENT,2024-05-28,64
MS200095-0022-VISION,FA,MS200095-0022-VISION-JPN_SITE02-0017,54,SAXIS,Short Axis,TARGET LESION 2,TUMOR ASSESSMENT,,10.2,mm,10.2,10.2,mm,,,6.0,C4D1,TREATMENT,2024-05-28,64
MS200095-0022-VISION,FA,MS200095-0022-VISION-JPN_SITE02-0017,55,LDIAM,Longest Diameter,TARGET LESION 3,TUMOR ASSESSMENT,,20.3,mm,20.3,20.3,mm,,,6.0,C4D1,TREATMENT,2024-05-28,64
MS200095-0022-VISION,FA,MS200095-0022-VISION-JPN_SITE02-0017,56,SAXIS,Short Axis,TARGET LESION 3,TUMOR ASSESSMENT,,6.0,mm,6.0,6.0,mm,,,6.0,C4D1,TREATMENT,2024-05-28,64
MS200095-0022-VISION,FA,MS200095-0022-VISION-JPN_SITE02-0017,57,LDIAM,Longest Diameter,TARGET LESION 4,TUMOR ASSESSMENT,,31.2,mm,31.2,31.2,mm,,,6.0,C4D1,TREATMENT,2024-05-28,64
MS200095-0022-VISION,FA,MS200095-0022-VISION-JPN_SITE02-0017,58,SAXIS,Short Axis,TARGET LESION 4,TUMOR ASSESSMENT,,4.5,mm,4.5,4.5,mm,,,6.0,C4D1,TREATMENT,2024-05-28,64
MS200095-0022-VISION,FA,MS200095-0022-VISION-JPN_SITE02-0017,59,LDIAM,Longest Diameter,TARGET LESION 5,TUMOR ASSESSMENT,,38.0,mm,38.0,38.0,mm,,,6.0,C4D1,TREATMENT,2024-05-28,64
MS200095-0022-VISION,FA,MS200095-0022-VISION-JPN_SITE02-0017,60,SAXIS,Short Axis,TARGET LESION 5,TUMOR ASSESSMENT,,9.9,mm,9.9,9.9,mm,,,6.0,C4D1,TREATMENT,2024-05-28,64
MS200095-0022-VISION,FA,MS200095-0022-VISION-JPN_SITE02-0017,61,LDIAM,Longest Diameter,TARGET LESION 1,TUMOR ASSESSMENT,,28.6,mm,28.6,28.6,mm,,,7.0,C6D1,TREATMENT,2024-07-09,106
MS200095-0022-VISION,FA,MS200095-0022-VISION-JPN_SITE02-0017,62,SAXIS,Short Axis,TARGET LESION 1,TUMOR ASSESSMENT,,9.0,mm,9.0,9.0,mm,,,7.0,C6D1,TREATMENT,2024-07-09,106
MS200095-0022-VISION,FA,MS200095-0022-VISION-JPN_SITE02-0017,63,LDIAM,Longest Diameter,TARGET LESION 2,TUMOR ASSESSMENT,,38.6,mm,38.6,38.6,mm,,,7.0,C6D1,TREATMENT,2024-07-09,106
MS200095-0022-VISION,FA,MS200095-0022-VISION-JPN_SITE02-0017,64,SAXIS,Short Axis,TARGET LESION 2,TUMOR ASSESSMENT,,9.3,mm,9.3,9.3,mm,,,7.0,C6D1,TREATMENT,2024-07-09,106
MS200095-0022-VISION,FA,MS200095-0022-VISION-JPN_SITE02-0017,65,LDIAM,Longest Diameter,TARGET LESION 3,TUMOR ASSESSMENT,,18.7,mm,18.7,18.7,mm,,,7.0,C6D1,TREATMENT,2024-07-09,106
MS200095-0022-VISION,FA,MS200095-0022-VISION-JPN_SITE02-0017,66,SAXIS,Short Axis,TARGET LESION 3,TUMOR ASSESSMENT,,5.9,mm,5.9,5.9,mm,,,7.0,C6D1,TREATMENT,2024-07-09,106
MS200095-0022-VISION,FA,MS200095-0022-VISION-JPN_SITE02-0017,67,LDIAM,Longest Diameter,TARGET LESION 4,TUMOR ASSESSMENT,,31.1,mm,31.1,31.1,mm,,,7.0,C6D1,TREATMENT,2024-07-09,106
MS200095-0022-VISION,FA,MS200095-0022-VISION-JPN_SITE02-0017,68,SAXIS,Short Axis,TARGET LESION 4,TUMOR ASSESSMENT,,4.1,mm,4.1,4.1,mm,,,7.0,C6D1,TREATMENT,2024-07-09,106
MS200095-0022-VISION,FA,MS200095-0022-VISION-JPN_SITE02-0017,69,LDIAM,Longest Diameter,TARGET LESION 5,TUMOR ASSESSMENT,,34.4,mm,34.4,34.4,mm,,,7.0,C6D1,TREATMENT,2024-07-09,106
MS200095-0022-VISION,FA,MS200095-0022-VISION-JPN_SITE02-0017,70,SAXIS,Short Axis,TARGET LESION 5,TUMOR ASSESSMENT,,9.9,mm,9.9,9.9,mm,,,7.0,C6D1,TREATMENT,2024-07-09,106
MS200095-0022-VISION,FA,MS200095-0022-VISION-JPN_SITE02-0017,71,LDIAM,Longest Diameter,TARGET LESION 1,TUMOR ASSESSMENT,,27.5,mm,27.5,27.5,mm,,,8.0,C8D1,TREATMENT,2024-08-20,148
MS200095-0022-VISION,FA,MS200095-0022-VISION-JPN_SITE02-0017,72,SAXIS,Short Axis,TARGET LESION 1,TUMOR ASSESSMENT,,9.2,mm,9.2,9.2,mm,,,8.0,C8D1,TREATMENT,2024-08-20,148
MS200095-0022-VISION,FA,MS200095-0022-VISION-JPN_SITE02-0017,73,LDIAM,Longest Diameter,TARGET LESION 2,TUMOR ASSESSMENT,,38.0,mm,38.0,38.0,mm,,,8.0,C8D1,TREATMENT,2024-08-20,148
MS200095-0022-VISION,FA,MS200095-0022-VISION-JPN_SITE02-0017,74,SAXIS,Short Axis,TARGET LESION 2,TUMOR ASSESSMENT,,8.9,mm,8.9,8.9,mm,,,8.0,C8D1,TREATMENT,2024-08-20,148
MS200095-0022-VISION,FA,MS200095-0022-VISION-JPN_SITE02-0017,75,LDIAM,Longest Diameter,TARGET LESION 3,TUMOR ASSESSMENT,,19.7,mm,19.7,19.7,mm,,,8.0,C8D1,TREATMENT,2024-08-20,148
MS200095-0022-VISION,FA,MS200095-0022-VISION-JPN_SITE02-0017,76,SAXIS,Short Axis,TARGET LESION 3,TUMOR ASSESSMENT,,4.9,mm,4.9,4.9,mm,,,8.0,C8D1,TREATMENT,2024-08-20,148
MS200095-0022-VISION,FA,MS200095-0022-VISION-JPN_SITE02-0017,77,LDIAM,Longest Diameter,TARGET LESION 4,TUMOR ASSESSMENT,,29.6,mm,29.6,29.6,mm,,,8.0,C8D1,TREATMENT,2024-08-20,148
MS200095-0022-VISION,FA,MS200095-0022-VISION-JPN_SITE02-0017,78,SAXIS,Short Axis,TARGET LESION 4,TUMOR ASSESSMENT,,4.9,mm,4.9,4.9,mm,,,8.0,C8D1,TREATMENT,2024-08-20,148
MS200095-0022-VISION,FA,MS200095-0022-VISION-JPN_SITE02-0017,79,LDIAM,Longest Diameter,TARGET LESION 5,TUMOR ASSESSMENT,,30.9,mm,30.9,30.9,mm,,,8.0,C8D1,TREATMENT,2024-08-20,148
MS200095-0022-VISION,FA,MS200095-0022-VISION-JPN_SITE02-0017,80,SAXIS,Short Axis,TARGET LESION 5,TUMOR ASSESSMENT,,9.2,mm,9.2,9.2,mm,,,8.0,C8D1,TREATMENT,2024-08-20,148
MS200095-0022-VISION,FA,MS200095-0022-VISION-JPN_SITE02-0017,81,LDIAM,Longest Diameter,TARGET LESION 1,TUMOR ASSESSMENT,,26.4,mm,26.4,26.4,mm,,,9.0,C12D1,TREATMENT,2024-11-12,232
MS200095-0022-VISION,FA,MS200095-0022-VISION-JPN_SITE02-0017,82,SAXIS,Short Axis,TARGET LESION 1,TUMOR ASSESSMENT,,8.2,mm,8.2,8.2,mm,,,9.0,C12D1,TREATMENT,2024-11-12,232
MS200095-0022-VISION,FA,MS200095-0022-VISION-JPN_SITE02-0017,83,LDIAM,Longest Diameter,TARGET LESION 2,TUMOR ASSESSMENT,,33.1,mm,33.1,33.1,mm,,,9.0,C12D1,TREATMENT,2024-11-12,232
MS200095-0022-VISION,FA,MS200095-0022-VISION-JPN_SITE02-0017,84,SAXIS,Short Axis,TARGET LESION 2,TUMOR ASSESSMENT,,7.8,mm,7.8,7.8,mm,,,9.0,C12D1,TREATMENT,2024-11-12,232
MS200095-0022-VISION,FA,MS200095-0022-VISION-JPN_SITE02-0017,85,LDIAM,Longest Diameter,TARGET LESION 3,TUMOR ASSESSMENT,,17.5,mm,17.5,17.5,mm,,,9.0,C12D1,TREATMENT,2024-11-12,232
MS200095-0022-VISION,FA,MS200095-0022-VISION-JPN_SITE02-0017,86,SAXIS,Short Axis,TARGET LESION 3,TUMOR ASSESSMENT,,6.3,mm,6.3,6.3,mm,,,9.0,C12D1,TREATMENT,2024-11-12,232
MS200095-0022-VISION,FA,MS200095-0022-VISION-JPN_SITE02-0017,87,LDIAM,Longest Diameter,TARGET LESION 4,TUMOR ASSESSMENT,,27.6,mm,27.6,27.6,mm,,,9.0,C12D1,TREATMENT,2024-11-12,232
MS200095-0022-VISION,FA,MS200095-0022-VISION-JPN_SITE02-0017,88,SAXIS,Short Axis,TARGET LESION 4,TUMOR ASSESSMENT,,3.7,mm,3.7,3.7,mm,,,9.0,C12D1,TREATMENT,2024-11-12,232
MS200095-0022-VISION,FA,MS200095-0022-VISION-JPN_SITE02-0017,89,LDIAM,Longest Diameter,TARGET LESION 5,TUMOR ASSESSMENT,,30.1,mm,30.1,30.1,mm,,,9.0,C12D1,TREATMENT,2024-11-12,232
MS200095-0022-VISION,FA,MS200095-0022-VISION-JPN_SITE02-0017,90,SAXIS,Short Axis,TARGET LESION 5,TUMOR ASSESSMENT,,8.4,mm,8.4,8.4,mm,,,9.0,C12D1,TREATMENT,2024-11-12,232
MS200095-0022-VISION,FA,MS200095-0022-VISION-JPN_SITE02-0017,91,LDIAM,Longest Diameter,TARGET LESION 1,TUMOR ASSESSMENT,,27.8,mm,27.8,27.8,mm,,,10.0,C18D1,TREATMENT,2025-03-18,358
MS200095-0022-VISION,FA,MS200095-0022-VISION-JPN_SITE02-0017,92,SAXIS,Short Axis,TARGET LESION 1,TUMOR ASSESSMENT,,8.7,mm,8.7,8.7,mm,,,10.0,C18D1,TREATMENT,2025-03-18,358
MS200095-0022-VISION,FA,MS200095-0022-VISION-JPN_SITE02-0017,93,LDIAM,Longest Diameter,TARGET LESION 2,TUMOR ASSESSMENT,,32.6,mm,32.6,32.6,mm,,,10.0,C18D1,TREATMENT,2025-03-18,358
MS200095-0022-VISION,FA,MS200095-0022-VISION-JPN_SITE02-0017,94,SAXIS,Short Axis,TARGET LESION 2,TUMOR ASSESSMENT,,8.0,mm,8.0,8.0,mm,,,10.0,C18D1,TREATMENT,2025-03-18,358
MS200095-0022-VISION,FA,MS200095-0022-VISION-JPN_SITE02-0017,95,LDIAM,Longest Diameter,TARGET LESION 3,TUMOR ASSESSMENT,,17.9,mm,17.9,17.9,mm,,,10.0,C18D1,TREATMENT,2025-03-18,358
MS200095-0022-VISION,FA,MS200095-0022-VISION-JPN_SITE02-0017,96,SAXIS,Short Axis,TARGET LESION 3,TUMOR ASSESSMENT,,4.5,mm,4.5,4.5,mm,,,10.0,C18D1,TREATMENT,2025-03-18,358
MS200095-0022-VISION,FA,MS200095-0022-VISION-JPN_SITE02-0017,97,LDIAM,Longest Diameter,TARGET LESION 4,TUMOR ASSESSMENT,,27.8,mm,27.8,27.8,mm,,,10.0,C18D1,TREATMENT,2025-03-18,358
MS200095-0022-VISION,FA,MS200095-0022-VISION-JPN_SITE02-0017,98,SAXIS,Short Axis,TARGET LESION 4,TUMOR ASSESSMENT,,3.9,mm,3.9,3.9,mm,,,10.0,C18D1,TREATMENT,2025-03-18,358
MS200095-0022-VISION,FA,MS200095-0022-VISION-JPN_SITE02-0017,99,LDIAM,Longest Diameter,TARGET LESION 5,TUMOR ASSESSMENT,,29.2,mm,29.2,29.2,mm,,,10.0,C18D1,TREATMENT,2025-03-18,358
MS200095-0022-VISION,FA,MS200095-0022-VISION-JPN_SITE02-0017,100,SAXIS,Short Axis,TARGET LESION 5,TUMOR ASSESSMENT,,7.2,mm,7.2,7.2,mm,,,10.0,C18D1,TREATMENT,2025-03-18,358
MS200095-0022-VISION,FA,MS200095-0022-VISION-JPN_SITE02-0017,101,LDIAM,Longest Diameter,TARGET LESION 1,TUMOR ASSESSMENT,,22.0,mm,22.0,22.0,mm,,,11.0,C24D1,TREATMENT,2025-07-22,484
MS200095-0022-VISION,FA,MS200095-0022-VISION-JPN_SITE02-0017,102,SAXIS,Short Axis,TARGET LESION 1,TUMOR ASSESSMENT,,7.7,mm,7.7,7.7,mm,,,11.0,C24D1,TREATMENT,2025-07-22,484
MS200095-0022-VISION,FA,MS200095-0022-VISION-JPN_SITE02-0017,103,LDIAM,Longest Diameter,TARGET LESION 2,TUMOR ASSESSMENT,,29.9,mm,29.9,29.9,mm,,,11.0,C24D1,TREATMENT,2025-07-22,484
MS200095-0022-VISION,FA,MS200095-0022-VISION-JPN_SITE02-0017,104,SAXIS,Short Axis,TARGET LESION 2,TUMOR ASSESSMENT,,7.8,mm,7.8,7.8,mm,,,11.0,C24D1,TREATMENT,2025-07-22,484
MS200095-0022-VISION,FA,MS200095-0022-VISION-JPN_SITE02-0017,105,LDIAM,Longest Diameter,TARGET LESION 3,TUMOR ASSESSMENT,,15.5,mm,15.5,15.5,mm,,,11.0,C24D1,TREATMENT,2025-07-22,484
MS200095-0022-VISION,FA,MS200095-0022-VISION-JPN_SITE02-0017,106,SAXIS,Short Axis,TARGET LESION 3,TUMOR ASSESSMENT,,5.0,mm,5.0,5.0,mm,,,11.0,C24D1,TREATMENT,2025-07-22,484
MS200095-0022-VISION,FA,MS200095-0022-VISION-JPN_SITE02-0017,107,LDIAM,Longest Diameter,TARGET LESION 4,TUMOR ASSESSMENT,,22.9,mm,22.9,22.9,mm,,,11.0,C24D1,TREATMENT,2025-07-22,484
MS200095-0022-VISION,FA,MS200095-0022-VISION-JPN_SITE02-0017,108,SAXIS,Short Axis,TARGET LESION 4,TUMOR ASSESSMENT,,3.6,mm,3.6,3.6,mm,,,11.0,C24D1,TREATMENT,2025-07-22,484
MS200095-0022-VISION,FA,MS200095-0022-VISION-JPN_SITE02-0017,109,LDIAM,Longest Diameter,TARGET LESION 5,TUMOR ASSESSMENT,,29.8,mm,29.8,29.8,mm,,,11.0,C24D1,TREATMENT,2025-07-22,484
MS200095-0022-VISION,FA,MS200095-0022-VISION-JPN_SITE02-0017,110,SAXIS,Short Axis,TARGET LESION 5,TUMOR ASSESSMENT,,7.1,mm,7.1,7.1,mm,,,11.0,C24D1,TREATMENT,2025-07-22,484
MS200095-0022-VISION,FA,MS200095-0022-VISION-JPN_SITE02-0017,111,LDIAM,Longest Diameter,TARGET LESION 1,TUMOR ASSESSMENT,,20.4,mm,20.4,20.4,mm,,,12.0,EOT,FOLLOW-UP,2025-08-12,505
MS200095-0022-VISION,FA,MS200095-0022-VISION-JPN_SITE02-0017,112,SAXIS,Short Axis,TARGET LESION 1,TUMOR ASSESSMENT,,7.5,mm,7.5,7.5,mm,,,12.0,EOT,FOLLOW-UP,2025-08-12,505
MS200095-0022-VISION,FA,MS200095-0022-VISION-JPN_SITE02-0017,113,LDIAM,Longest Diameter,TARGET LESION 2,TUMOR ASSESSMENT,,31.1,mm,31.1,31.1,mm,,,12.0,EOT,FOLLOW-UP,2025-08-12,505
MS200095-0022-VISION,FA,MS200095-0022-VISION-JPN_SITE02-0017,114,SAXIS,Short Axis,TARGET LESION 2,TUMOR ASSESSMENT,,7.5,mm,7.5,7.5,mm,,,12.0,EOT,FOLLOW-UP,2025-08-12,505
MS200095-0022-VISION,FA,MS200095-0022-VISION-JPN_SITE02-0017,115,LDIAM,Longest Diameter,TARGET LESION 3,TUMOR ASSESSMENT,,11.7,mm,11.7,11.7,mm,,,12.0,EOT,FOLLOW-UP,2025-08-12,505
MS200095-0022-VISION,FA,MS200095-0022-VISION-JPN_SITE02-0017,116,SAXIS,Short Axis,TARGET LESION 3,TUMOR ASSESSMENT,,3.7,mm,3.7,3.7,mm,,,12.0,EOT,FOLLOW-UP,2025-08-12,505
MS200095-0022-VISION,FA,MS200095-0022-VISION-JPN_SITE02-0017,117,LDIAM,Longest Diameter,TARGET LESION 4,TUMOR ASSESSMENT,,21.7,mm,21.7,21.7,mm,,,12.0,EOT,FOLLOW-UP,2025-08-12,505
MS200095-0022-VISION,FA,MS200095-0022-VISION-JPN_SITE02-0017,118,SAXIS,Short Axis,TARGET LESION 4,TUMOR ASSESSMENT,,4.1,mm,4.1,4.1,mm,,,12.0,EOT,FOLLOW-UP,2025-08-12,505
MS200095-0022-VISION,FA,MS200095-0022-VISION-JPN_SITE02-0017,119,LDIAM,Longest Diameter,TARGET LESION 5,TUMOR ASSESSMENT,,29.1,mm,29.1,29.1,mm,,,12.0,EOT,FOLLOW-UP,2025-08-12,505
MS200095-0022-VISION,FA,MS200095-0022-VISION-JPN_SITE02-0017,120,SAXIS,Short Axis,TARGET LESION 5,TUMOR ASSESSMENT,,7.1,mm,7.1,7.1,mm,,,12.0,EOT,FOLLOW-UP,2025-08-12,505
MS200095-0022-VISION,FA,MS200095-0022-VISION-JPN_SITE02-0019,1,LDIAM,Longest Diameter,TARGET LESION 1,TUMOR ASSESSMENT,,21.4,mm,21.4,21.4,mm,,,1.0,SCREENING,SCREENING,2024-02-15,-9
MS200095-0022-VISION,FA,MS200095-0022-VISION-JPN_SITE02-0019,2,SAXIS,Short Axis,TARGET LESION 1,TUMOR ASSESSMENT,,9.8,mm,9.8,9.8,mm,,,1.0,SCREENING,SCREENING,2024-02-15,-9
MS200095-0022-VISION,FA,MS200095-0022-VISION-JPN_SITE02-0019,3,LDIAM,Longest Diameter,TARGET LESION 2,TUMOR ASSESSMENT,,31.6,mm,31.6,31.6,mm,,,1.0,SCREENING,SCREENING,2024-02-15,-9
MS200095-0022-VISION,FA,MS200095-0022-VISION-JPN_SITE02-0019,4,SAXIS,Short Axis,TARGET LESION 2,TUMOR ASSESSMENT,,14.7,mm,14.7,14.7,mm,,,1.0,SCREENING,SCREENING,2024-02-15,-9
MS200095-0022-VISION,FA,MS200095-0022-VISION-JPN_SITE02-0019,5,LDIAM,Longest Diameter,TARGET LESION 3,TUMOR ASSESSMENT,,15.7,mm,15.7,15.7,mm,,,1.0,SCREENING,SCREENING,2024-02-15,-9
MS200095-0022-VISION,FA,MS200095-0022-VISION-JPN_SITE02-0019,6,SAXIS,Short Axis,TARGET LESION 3,TUMOR ASSESSMENT,,15.1,mm,15.1,15.1,mm,,,1.0,SCREENING,SCREENING,2024-02-15,-9
MS200095-0022-VISION,FA,MS200095-0022-VISION-JPN_SITE02-0019,7,LDIAM,Longest Diameter,TARGET LESION 4,TUMOR ASSESSMENT,,27.9,mm,27.9,27.9,mm,,,1.0,SCREENING,SCREENING,2024-02-15,-9
MS200095-0022-VISION,FA,MS200095-0022-VISION-JPN_SITE02-0019,8,SAXIS,Short Axis,TARGET LESION 4,TUMOR ASSESSMENT,,21.8,mm,21.8,21.8,mm,,,1.0,SCREENING,SCREENING,2024-02-15,-9
MS200095-0022-VISION,FA,MS200095-0022-VISION-JPN_SITE02-0019,9,LDIAM,Longest Diameter,TARGET LESION 5,TUMOR ASSESSMENT,,28.8,mm,28.8,28.8,mm,,,1.0,SCREENING,SCREENING,2024-02-15,-9
MS200095-0022-VISION,FA,MS200095-0022-VISION-JPN_SITE02-0019,10,SAXIS,Short Axis,TARGET LESION 5,TUMOR ASSESSMENT,,9.7,mm,9.7,9.7,mm,,,1.0,SCREENING,SCREENING,2024-02-15,-9
MS200095-0022-VISION,FA,MS200095-0022-VISION-JPN_SITE02-0019,11,LDIAM,Longest Diameter,TARGET LESION 1,TUMOR ASSESSMENT,,19.4,mm,19.4,19.4,mm,,Y,2.0,C1D1,TREATMENT,2024-02-24,1
MS200095-0022-VISION,FA,MS200095-0022-VISION-JPN_SITE02-0019,12,SAXIS,Short Axis,TARGET LESION 1,TUMOR ASSESSMENT,,10.2,mm,10.2,10.2,mm,,Y,2.0,C1D1,TREATMENT,2024-02-24,1
MS200095-0022-VISION,FA,MS200095-0022-VISION-JPN_SITE02-0019,13,LDIAM,Longest Diameter,TARGET LESION 2,TUMOR ASSESSMENT,,30.7,mm,30.7,30.7,mm,,,2.0,C1D1,TREATMENT,2024-02-24,1
MS200095-0022-VISION,FA,MS200095-0022-VISION-JPN_SITE02-0019,14,SAXIS,Short Axis,TARGET LESION 2,TUMOR ASSESSMENT,,14.8,mm,14.8,14.8,mm,,,2.0,C1D1,TREATMENT,2024-02-24,1
MS200095-0022-VISION,FA,MS200095-0022-VISION-JPN_SITE02-0019,15,LDIAM,Longest Diameter,TARGET LESION 3,TUMOR ASSESSMENT,,15.6,mm,15.6,15.6,mm,,,2.0,C1D1,TREATMENT,2024-02-24,1
MS200095-0022-VISION,FA,MS200095-0022-VISION-JPN_SITE02-0019,16,SAXIS,Short Axis,TARGET LESION 3,TUMOR ASSESSMENT,,16.6,mm,16.6,16.6,mm,,,2.0,C1D1,TREATMENT,2024-02-24,1
MS200095-0022-VISION,FA,MS200095-0022-VISION-JPN_SITE02-0019,17,LDIAM,Longest Diameter,TARGET LESION 4,TUMOR ASSESSMENT,,26.3,mm,26.3,26.3,mm,,,2.0,C1D1,TREATMENT,2024-02-24,1
MS200095-0022-VISION,FA,MS200095-0022-VISION-JPN_SITE02-0019,18,SAXIS,Short Axis,TARGET LESION 4,TUMOR ASSESSMENT,,22.4,mm,22.4,22.4,mm,,,2.0,C1D1,TREATMENT,2024-02-24,1
MS200095-0022-VISION,FA,MS200095-0022-VISION-JPN_SITE02-0019,19,LDIAM,Longest Diameter,TARGET LESION 5,TUMOR ASSESSMENT,,29.7,mm,29.7,29.7,mm,,,2.0,C1D1,TREATMENT,2024-02-24,1
MS200095-0022-VISION,FA,MS200095-0022-VISION-JPN_SITE02-0019,20,SAXIS,Short Axis,TARGET LESION 5,TUMOR ASSESSMENT,,9.3,mm,9.3,9.3,mm,,,2.0,C1D1,TREATMENT,2024-02-24,1
MS200095-0022-VISION,FA,MS200095-0022-VISION-JPN_SITE02-0019,21,LDIAM,Longest Diameter,TARGET LESION 1,TUMOR ASSESSMENT,,22.1,mm,22.1,22.1,mm,,,3.0,C1D15,TREATMENT,2024-03-09,15
MS200095-0022-VISION,FA,MS200095-0022-VISION-JPN_SITE02-0019,22,SAXIS,Short Axis,TARGET LESION 1,TUMOR ASSESSMENT,,10.6,mm,10.6,10.6,mm,,,3.0,C1D15,TREATMENT,2024-03-09,15
MS200095-0022-VISION,FA,MS200095-0022-VISION-JPN_SITE02-0019,23,LDIAM,Longest Diameter,TARGET LESION 2,TUMOR ASSESSMENT,,31.1,mm,31.1,31.1,mm,,,3.0,C1D15,TREATMENT,2024-03-09,15
MS200095-0022-VISION,FA,MS200095-0022-VISION-JPN_SITE02-0019,24,SAXIS,Short Axis,TARGET LESION 2,TUMOR ASSESSMENT,,15.5,mm,15.5,15.5,mm,,,3.0,C1D15,TREATMENT,2024-03-09,15
MS200095-0022-VISION,FA,MS200095-0022-VISION-JPN_SITE02-0019,25,LDIAM,Longest Diameter,TARGET LESION 3,TUMOR ASSESSMENT,,16.4,mm,16.4,16.4,mm,,,3.0,C1D15,TREATMENT,2024-03-09,15
MS200095-0022-VISION,FA,MS200095-0022-VISION-JPN_SITE02-0019,26,SAXIS,Short Axis,TARGET LESION 3,TUMOR ASSESSMENT,,16.2,mm,16.2,16.2,mm,,,3.0,C1D15,TREATMENT,2024-03-09,15
MS200095-0022-VISION,FA,MS200095-0022-VISION-JPN_SITE02-0019,27,LDIAM,Longest Diameter,TARGET LESION 4,TUMOR ASSESSMENT,,28.9,mm,28.9,28.9,mm,,,3.0,C1D15,TREATMENT,2024-03-09,15
MS200095-0022-VISION,FA,MS200095-0022-VISION-JPN_SITE02-0019,28,SAXIS,Short Axis,TARGET LESION 4,TUMOR ASSESSMENT,,22.6,mm,22.6,22.6,mm,,,3.0,C1D15,TREATMENT,2024-03-09,15
MS200095-0022-VISION,FA,MS200095-0022-VISION-JPN_SITE02-0019,29,LDIAM,Longest Diameter,TARGET LESION 5,TUMOR ASSESSMENT,,28.4,mm,28.4,28.4,mm,,,3.0,C1D15,TREATMENT,2024-03-09,15
MS200095-0022-VISION,FA,MS200095-0022-VISION-JPN_SITE02-0019,30,SAXIS,Short Axis,TARGET LESION 5,TUMOR ASSESSMENT,,10.0,mm,10.0,10.0,mm,,,3.0,C1D15,TREATMENT,2024-03-09,15
MS200095-0022-VISION,FA,MS200095-0022-VISION-JPN_SITE02-0019,31,LDIAM,Longest Diameter,TARGET LESION 1,TUMOR ASSESSMENT,,19.9,mm,19.9,19.9,mm,,,4.0,C2D1,TREATMENT,2024-03-16,22
MS200095-0022-VISION,FA,MS200095-0022-VISION-JPN_SITE02-0019,32,SAXIS,Short Axis,TARGET LESION 1,TUMOR ASSESSMENT,,9.9,mm,9.9,9.9,mm,,,4.0,C2D1,TREATMENT,2024-03-16,22
MS200095-0022-VISION,FA,MS200095-0022-VISION-JPN_SITE02-0019,33,LDIAM,Longest Diameter,TARGET LESION 2,TUMOR ASSESSMENT,,33.8,mm,33.8,33.8,mm,,,4.0,C2D1,TREATMENT,2024-03-16,22
MS200095-0022-VISION,FA,MS200095-0022-VISION-JPN_SITE02-0019,34,SAXIS,Short Axis,TARGET LESION 2,TUMOR ASSESSMENT,,15.5,mm,15.5,15.5,mm,,,4.0,C2D1,TREATMENT,2024-03-16,22
MS200095-0022-VISION,FA,MS200095-0022-VISION-JPN_SITE02-0019,35,LDIAM,Longest Diameter,TARGET LESION 3,TUMOR ASSESSMENT,,15.2,mm,15.2,15.2,mm,,,4.0,C2D1,TREATMENT,2024-03-16,22
MS200095-0022-VISION,FA,MS200095-0022-VISION-JPN_SITE02-0019,36,SAXIS,Short Axis,TARGET LESION 3,TUMOR ASSESSMENT,,16.2,mm,16.2,16.2,mm,,,4.0,C2D1,TREATMENT,2024-03-16,22
MS200095-0022-VISION,FA,MS200095-0022-VISION-JPN_SITE02-0019,37,LDIAM,Longest Diameter,TARGET LESION 4,TUMOR ASSESSMENT,,32.9,mm,32.9,32.9,mm,,,4.0,C2D1,TREATMENT,2024-03-16,22
MS200095-0022-VISION,FA,MS200095-0022-VISION-JPN_SITE02-0019,38,SAXIS,Short Axis,TARGET LESION 4,TUMOR ASSESSMENT,,23.3,mm,23.3,23.3,mm,,,4.0,C2D1,TREATMENT,2024-03-16,22
MS200095-0022-VISION,FA,MS200095-0022-VISION-JPN_SITE02-0019,39,LDIAM,Longest Diameter,TARGET LESION 5,TUMOR ASSESSMENT,,31.2,mm,31.2,31.2,mm,,,4.0,C2D1,TREATMENT,2024-03-16,22
MS200095-0022-VISION,FA,MS200095-0022-VISION-JPN_SITE02-0019,40,SAXIS,Short Axis,TARGET LESION 5,TUMOR ASSESSMENT,,11.1,mm,11.1,11.1,mm,,,4.0,C2D1,TREATMENT,2024-03-16,22
MS200095-0022-VISION,FA,MS200095-0022-VISION-JPN_SITE02-0019,41,LDIAM,Longest Diameter,TARGET LESION 1,TUMOR ASSESSMENT,,21.1,mm,21.1,21.1,mm,,,5.0,C3D1,TREATMENT,2024-04-06,43
MS200095-0022-VISION,FA,MS200095-0022-VISION-JPN_SITE02-0019,42,SAXIS,Short Axis,TARGET LESION 1,TUMOR ASSESSMENT,,10.6,mm,10.6,10.6,mm,,,5.0,C3D1,TREATMENT,2024-04-06,43
MS200095-0022-VISION,FA,MS200095-0022-VISION-JPN_SITE02-0019,43,LDIAM,Longest Diameter,TARGET LESION 2,TUMOR ASSESSMENT,,32.1,mm,32.1,32.1,mm,,,5.0,C3D1,TREATMENT,2024-04-06,43
MS200095-0022-VISION,FA,MS200095-0022-VISION-JPN_SITE02-0019,44,SAXIS,Short Axis,TARGET LESION 2,TUMOR ASSESSMENT,,15.3,mm,15.3,15.3,mm,,,5.0,C3D1,TREATMENT,2024-04-06,43
MS200095-0022-VISION,FA,MS200095-0022-VISION-JPN_SITE02-0019,45,LDIAM,Longest Diameter,TARGET LESION 3,TUMOR ASSESSMENT,,17.5,mm,17.5,17.5,mm,,,5.0,C3D1,TREATMENT,2024-04-06,43
MS200095-0022-VISION,FA,MS200095-0022-VISION-JPN_SITE02-0019,46,SAXIS,Short Axis,TARGET LESION 3,TUMOR ASSESSMENT,,16.9,mm,16.9,16.9,mm,,,5.0,C3D1,TREATMENT,2024-04-06,43
MS200095-0022-VISION,FA,MS200095-0022-VISION-JPN_SITE02-0019,47,LDIAM,Longest Diameter,TARGET LESION 4,TUMOR ASSESSMENT,,29.2,mm,29.2,29.2,mm,,,5.0,C3D1,TREATMENT,2024-04-06,43
MS200095-0022-VISION,FA,MS200095-0022-VISION-JPN_SITE02-0019,48,SAXIS,Short Axis,TARGET LESION 4,TUMOR ASSESSMENT,,23.5,mm,23.5,23.5,mm,,,5.0,C3D1,TREATMENT,2024-04-06,43
MS200095-0022-VISION,FA,MS200095-0022-VISION-JPN_SITE02-0019,49,LDIAM,Longest Diameter,TARGET LESION 5,TUMOR ASSESSMENT,,33.6,mm,33.6,33.6,mm,,,5.0,C3D1,TREATMENT,2024-04-06,43
MS200095-0022-VISION,FA,MS200095-0022-VISION-JPN_SITE02-0019,50,SAXIS,Short Axis,TARGET LESION 5,TUMOR ASSESSMENT,,10.6,mm,10.6,10.6,mm,,,5.0,C3D1,TREATMENT,2024-04-06,43
MS200095-0022-VISION,FA,MS200095-0022-VISION-JPN_SITE02-0019,51,LDIAM,Longest Diameter,TARGET LESION 1,TUMOR ASSESSMENT,,23.9,mm,23.9,23.9,mm,,,6.0,C4D1,TREATMENT,2024-04-27,64
MS200095-0022-VISION,FA,MS200095-0022-VISION-JPN_SITE02-0019,52,SAXIS,Short Axis,TARGET LESION 1,TUMOR ASSESSMENT,,10.7,mm,10.7,10.7,mm,,,6.0,C4D1,TREATMENT,2024-04-27,64
MS200095-0022-VISION,FA,MS200095-0022-VISION-JPN_SITE02-0019,53,LDIAM,Longest Diameter,TARGET LESION 2,TUMOR ASSESSMENT,,34.0,mm,34.0,34.0,mm,,,6.0,C4D1,TREATMENT,2024-04-27,64
MS200095-0022-VISION,FA,MS200095-0022-VISION-JPN_SITE02-0019,54,SAXIS,Short Axis,TARGET LESION 2,TUMOR ASSESSMENT,,15.8,mm,15.8,15.8,mm,,,6.0,C4D1,TREATMENT,2024-04-27,64
MS200095-0022-VISION,FA,MS200095-0022-VISION-JPN_SITE02-0019,55,LDIAM,Longest Diameter,TARGET LESION 3,TUMOR ASSESSMENT,,17.1,mm,17.1,17.1,mm,,,6.0,C4D1,TREATMENT,2024-04-27,64
MS200095-0022-VISION,FA,MS200095-0022-VISION-JPN_SITE02-0019,56,SAXIS,Short Axis,TARGET LESION 3,TUMOR ASSESSMENT,,17.1,mm,17.1,17.1,mm,,,6.0,C4D1,TREATMENT,2024-04-27,64
MS200095-0022-VISION,FA,MS200095-0022-VISION-JPN_SITE02-0019,57,LDIAM,Longest Diameter,TARGET LESION 4,TUMOR ASSESSMENT,,28.6,mm,28.6,28.6,mm,,,6.0,C4D1,TREATMENT,2024-04-27,64
MS200095-0022-VISION,FA,MS200095-0022-VISION-JPN_SITE02-0019,58,SAXIS,Short Axis,TARGET LESION 4,TUMOR ASSESSMENT,,22.4,mm,22.4,22.4,mm,,,6.0,C4D1,TREATMENT,2024-04-27,64
MS200095-0022-VISION,FA,MS200095-0022-VISION-JPN_SITE02-0019,59,LDIAM,Longest Diameter,TARGET LESION 5,TUMOR ASSESSMENT,,30.6,mm,30.6,30.6,mm,,,6.0,C4D1,TREATMENT,2024-04-27,64
MS200095-0022-VISION,FA,MS200095-0022-VISION-JPN_SITE02-0019,60,SAXIS,Short Axis,TARGET LESION 5,TUMOR ASSESSMENT,,10.2,mm,10.2,10.2,mm,,,6.0,C4D1,TREATMENT,2024-04-27,64
MS200095-0022-VISION,FA,MS200095-0022-VISION-JPN_SITE02-0019,61,LDIAM,Longest Diameter,TARGET LESION 1,TUMOR ASSESSMENT,,25.7,mm,25.7,25.7,mm,,,7.0,C6D1,TREATMENT,2024-06-08,106
MS200095-0022-VISION,FA,MS200095-0022-VISION-JPN_SITE02-0019,62,SAXIS,Short Axis,TARGET LESION 1,TUMOR ASSESSMENT,,11.1,mm,11.1,11.1,mm,,,7.0,C6D1,TREATMENT,2024-06-08,106
MS200095-0022-VISION,FA,MS200095-0022-VISION-JPN_SITE02-0019,63,LDIAM,Longest Diameter,TARGET LESION 2,TUMOR ASSESSMENT,,36.4,mm,36.4,36.4,mm,,,7.0,C6D1,TREATMENT,2024-06-08,106
MS200095-0022-VISION,FA,MS200095-0022-VISION-JPN_SITE02-0019,64,SAXIS,Short Axis,TARGET LESION 2,TUMOR ASSESSMENT,,16.8,mm,16.8,16.8,mm,,,7.0,C6D1,TREATMENT,2024-06-08,106
MS200095-0022-VISION,FA,MS200095-0022-VISION-JPN_SITE02-0019,65,LDIAM,Longest Diameter,TARGET LESION 3,TUMOR ASSESSMENT,,15.7,mm,15.7,15.7,mm,,,7.0,C6D1,TREATMENT,2024-06-08,106
MS200095-0022-VISION,FA,MS200095-0022-VISION-JPN_SITE02-0019,66,SAXIS,Short Axis,TARGET LESION 3,TUMOR ASSESSMENT,,16.3,mm,16.3,16.3,mm,,,7.0,C6D1,TREATMENT,2024-06-08,106
MS200095-0022-VISION,FA,MS200095-0022-VISION-JPN_SITE02-0019,67,LDIAM,Longest Diameter,TARGET LESION 4,TUMOR ASSESSMENT,,29.6,mm,29.6,29.6,mm,,,7.0,C6D1,TREATMENT,2024-06-08,106
MS200095-0022-VISION,FA,MS200095-0022-VISION-JPN_SITE02-0019,68,SAXIS,Short Axis,TARGET LESION 4,TUMOR ASSESSMENT,,24.4,mm,24.4,24.4,mm,,,7.0,C6D1,TREATMENT,2024-06-08,106
MS200095-0022-VISION,FA,MS200095-0022-VISION-JPN_SITE02-0019,69,LDIAM,Longest Diameter,TARGET LESION 5,TUMOR ASSESSMENT,,34.0,mm,34.0,34.0,mm,,,7.0,C6D1,TREATMENT,2024-06-08,106
MS200095-0022-VISION,FA,MS200095-0022-VISION-JPN_SITE02-0019,70,SAXIS,Short Axis,TARGET LESION 5,TUMOR ASSESSMENT,,10.8,mm,10.8,10.8,mm,,,7.0,C6D1,TREATMENT,2024-06-08,106
MS200095-0022-VISION,FA,MS200095-0022-VISION-JPN_SITE02-0019,71,LDIAM,Longest Diameter,TARGET LESION 1,TUMOR ASSESSMENT,,23.7,mm,23.7,23.7,mm,,,8.0,C8D1,TREATMENT,2024-07-20,148
MS200095-0022-VISION,FA,MS200095-0022-VISION-JPN_SITE02-0019,72,SAXIS,Short Axis,TARGET LESION 1,TUMOR ASSESSMENT,,10.6,mm,10.6,10.6,mm,,,8.0,C8D1,TREATMENT,2024-07-20,148
MS200095-0022-VISION,FA,MS200095-0022-VISION-JPN_SITE02-0019,73,LDIAM,Longest Diameter,TARGET LESION 2,TUMOR ASSESSMENT,,34.9,mm,34.9,34.9,mm,,,8.0,C8D1,TREATMENT,2024-07-20,148
MS200095-0022-VISION,FA,MS200095-0022-VISION-JPN_SITE02-0019,74,SAXIS,Short Axis,TARGET LESION 2,TUMOR ASSESSMENT,,16.2,mm,16.2,16.2,mm,,,8.0,C8D1,TREATMENT,2024-07-20,148
MS200095-0022-VISION,FA,MS200095-0022-VISION-JPN_SITE02-0019,75,LDIAM,Longest Diameter,TARGET LESION 3,TUMOR ASSESSMENT,,19.8,mm,19.8,19.8,mm,,,8.0,C8D1,TREATMENT,2024-07-20,148
MS200095-0022-VISION,FA,MS200095-0022-VISION-JPN_SITE02-0019,76,SAXIS,Short Axis,TARGET LESION 3,TUMOR ASSESSMENT,,17.4,mm,17.4,17.4,mm,,,8.0,C8D1,TREATMENT,2024-07-20,148
MS200095-0022-VISION,FA,MS200095-0022-VISION-JPN_SITE02-0019,77,LDIAM,Longest Diameter,TARGET LESION 4,TUMOR ASSESSMENT,,33.6,mm,33.6,33.6,mm,,,8.0,C8D1,TREATMENT,2024-07-20,148
MS200095-0022-VISION,FA,MS200095-0022-VISION-JPN_SITE02-0019,78,SAXIS,Short Axis,TARGET LESION 4,TUMOR ASSESSMENT,,25.0,mm,25.0,25.0,mm,,,8.0,C8D1,TREATMENT,2024-07-20,148
MS200095-0022-VISION,FA,MS200095-0022-VISION-JPN_SITE02-0019,79,LDIAM,Longest Diameter,TARGET LESION 5,TUMOR ASSESSMENT,,30.9,mm,30.9,30.9,mm,,,8.0,C8D1,TREATMENT,2024-07-20,148
MS200095-0022-VISION,FA,MS200095-0022-VISION-JPN_SITE02-0019,80,SAXIS,Short Axis,TARGET LESION 5,TUMOR ASSESSMENT,,10.3,mm,10.3,10.3,mm,,,8.0,C8D1,TREATMENT,2024-07-20,148
MS200095-0022-VISION,FA,MS200095-0022-VISION-JPN_SITE02-0019,81,LDIAM,Longest Diameter,TARGET LESION 1,TUMOR ASSESSMENT,,27.1,mm,27.1,27.1,mm,,,9.0,C12D1,TREATMENT,2024-10-12,232
MS200095-0022-VISION,FA,MS200095-0022-VISION-JPN_SITE02-0019,82,SAXIS,Short Axis,TARGET LESION 1,TUMOR ASSESSMENT,,11.0,mm,11.0,11.0,mm,,,9.0,C12D1,TREATMENT,2024-10-12,232
MS200095-0022-VISION,FA,MS200095-0022-VISION-JPN_SITE02-0019,83,LDIAM,Longest Diameter,TARGET LESION 2,TUMOR ASSESSMENT,,37.7,mm,37.7,37.7,mm,,,9.0,C12D1,TREATMENT,2024-10-12,232
MS200095-0022-VISION,FA,MS200095-0022-VISION-JPN_SITE02-0019,84,SAXIS,Short Axis,TARGET LESION 2,TUMOR ASSESSMENT,,17.0,mm,17.0,17.0,mm,,,9.0,C12D1,TREATMENT,2024-10-12,232
MS200095-0022-VISION,FA,MS200095-0022-VISION-JPN_SITE02-0019,85,LDIAM,Longest Diameter,TARGET LESION 3,TUMOR ASSESSMENT,,19.3,mm,19.3,19.3,mm,,,9.0,C12D1,TREATMENT,2024-10-12,232
MS200095-0022-VISION,FA,MS200095-0022-VISION-JPN_SITE02-0019,86,SAXIS,Short Axis,TARGET LESION 3,TUMOR ASSESSMENT,,17.1,mm,17.1,17.1,mm,,,9.0,C12D1,TREATMENT,2024-10-12,232
MS200095-0022-VISION,FA,MS200095-0022-VISION-JPN_SITE02-0019,87,LDIAM,Longest Diameter,TARGET LESION 4,TUMOR ASSESSMENT,,34.4,mm,34.4,34.4,mm,,,9.0,C12D1,TREATMENT,2024-10-12,232
MS200095-0022-VISION,FA,MS200095-0022-VISION-JPN_SITE02-0019,88,SAXIS,Short Axis,TARGET LESION 4,TUMOR ASSESSMENT,,25.4,mm,25.4,25.4,mm,,,9.0,C12D1,TREATMENT,2024-10-12,232
MS200095-0022-VISION,FA,MS200095-0022-VISION-JPN_SITE02-0019,89,LDIAM,Longest Diameter,TARGET LESION 5,TUMOR ASSESSMENT,,32.9,mm,32.9,32.9,mm,,,9.0,C12D1,TREATMENT,2024-10-12,232
MS200095-0022-VISION,FA,MS200095-0022-VISION-JPN_SITE02-0019,90,SAXIS,Short Axis,TARGET LESION 5,TUMOR ASSESSMENT,,12.0,mm,12.0,12.0,mm,,,9.0,C12D1,TREATMENT,2024-10-12,232
MS200095-0022-VISION,FA,MS200095-0022-VISION-JPN_SITE02-0019,91,LDIAM,Longest Diameter,TARGET LESION 1,TUMOR ASSESSMENT,,25.7,mm,25.7,25.7,mm,,,10.0,C18D1,TREATMENT,2025-02-15,358
MS200095-0022-VISION,FA,MS200095-0022-VISION-JPN_SITE02-0019,92,SAXIS,Short Axis,TARGET LESION 1,TUMOR ASSESSMENT,,11.9,mm,11.9,11.9,mm,,,10.0,C18D1,TREATMENT,2025-02-15,358
MS200095-0022-VISION,FA,MS200095-0022-VISION-JPN_SITE02-0019,93,LDIAM,Longest Diameter,TARGET LESION 2,TUMOR ASSESSMENT,,36.2,mm,36.2,36.2,mm,,,10.0,C18D1,TREATMENT,2025-02-15,358
MS200095-0022-VISION,FA,MS200095-0022-VISION-JPN_SITE02-0019,94,SAXIS,Short Axis,TARGET LESION 2,TUMOR ASSESSMENT,,17.8,mm,17.8,17.8,mm,,,10.0,C18D1,TREATMENT,2025-02-15,358
MS200095-0022-VISION,FA,MS200095-0022-VISION-JPN_SITE02-0019,95,LDIAM,Longest Diameter,TARGET LESION 3,TUMOR ASSESSMENT,,18.1,mm,18.1,18.1,mm,,,10.0,C18D1,TREATMENT,2025-02-15,358
MS200095-0022-VISION,FA,MS200095-0022-VISION-JPN_SITE02-0019,96,SAXIS,Short Axis,TARGET LESION 3,TUMOR ASSESSMENT,,17.5,mm,17.5,17.5,mm,,,10.0,C18D1,TREATMENT,2025-02-15,358
MS200095-0022-VISION,FA,MS200095-0022-VISION-JPN_SITE02-0019,97,LDIAM,Longest Diameter,TARGET LESION 4,TUMOR ASSESSMENT,,33.0,mm,33.0,33.0,mm,,,10.0,C18D1,TREATMENT,2025-02-15,358
MS200095-0022-VISION,FA,MS200095-0022-VISION-JPN_SITE02-0019,98,SAXIS,Short Axis,TARGET LESION 4,TUMOR ASSESSMENT,,25.2,mm,25.2,25.2,mm,,,10.0,C18D1,TREATMENT,2025-02-15,358
MS200095-0022-VISION,FA,MS200095-0022-VISION-JPN_SITE02-0019,99,LDIAM,Longest Diameter,TARGET LESION 5,TUMOR ASSESSMENT,,33.1,mm,33.1,33.1,mm,,,10.0,C18D1,TREATMENT,2025-02-15,358
MS200095-0022-VISION,FA,MS200095-0022-VISION-JPN_SITE02-0019,100,SAXIS,Short Axis,TARGET LESION 5,TUMOR ASSESSMENT,,10.6,mm,10.6,10.6,mm,,,10.0,C18D1,TREATMENT,2025-02-15,358
MS200095-0022-VISION,FA,MS200095-0022-VISION-JPN_SITE02-0019,101,LDIAM,Longest Diameter,TARGET LESION 1,TUMOR ASSESSMENT,,24.6,mm,24.6,24.6,mm,,,11.0,C24D1,TREATMENT,2025-06-21,484
MS200095-0022-VISION,FA,MS200095-0022-VISION-JPN_SITE02-0019,102,SAXIS,Short Axis,TARGET LESION 1,TUMOR ASSESSMENT,,11.8,mm,11.8,11.8,mm,,,11.0,C24D1,TREATMENT,2025-06-21,484
MS200095-0022-VISION,FA,MS200095-0022-VISION-JPN_SITE02-0019,103,LDIAM,Longest Diameter,TARGET LESION 2,TUMOR ASSESSMENT,,36.6,mm,36.6,36.6,mm,,,11.0,C24D1,TREATMENT,2025-06-21,484
MS200095-0022-VISION,FA,MS200095-0022-VISION-JPN_SITE02-0019,104,SAXIS,Short Axis,TARGET LESION 2,TUMOR ASSESSMENT,,17.7,mm,17.7,17.7,mm,,,11.0,C24D1,TREATMENT,2025-06-21,484
MS200095-0022-VISION,FA,MS200095-0022-VISION-JPN_SITE02-0019,105,LDIAM,Longest Diameter,TARGET LESION 3,TUMOR ASSESSMENT,,20.4,mm,20.4,20.4,mm,,,11.0,C24D1,TREATMENT,2025-06-21,484
MS200095-0022-VISION,FA,MS200095-0022-VISION-JPN_SITE02-0019,106,SAXIS,Short Axis,TARGET LESION 3,TUMOR ASSESSMENT,,16.6,mm,16.6,16.6,mm,,,11.0,C24D1,TREATMENT,2025-06-21,484
MS200095-0022-VISION,FA,MS200095-0022-VISION-JPN_SITE02-0019,107,LDIAM,Longest Diameter,TARGET LESION 4,TUMOR ASSESSMENT,,33.3,mm,33.3,33.3,mm,,,11.0,C24D1,TREATMENT,2025-06-21,484
MS200095-0022-VISION,FA,MS200095-0022-VISION-JPN_SITE02-0019,108,SAXIS,Short Axis,TARGET LESION 4,TUMOR ASSESSMENT,,24.7,mm,24.7,24.7,mm,,,11.0,C24D1,TREATMENT,2025-06-21,484
MS200095-0022-VISION,FA,MS200095-0022-VISION-JPN_SITE02-0019,109,LDIAM,Longest Diameter,TARGET LESION 5,TUMOR ASSESSMENT,,32.5,mm,32.5,32.5,mm,,,11.0,C24D1,TREATMENT,2025-06-21,484
MS200095-0022-VISION,FA,MS200095-0022-VISION-JPN_SITE02-0019,110,SAXIS,Short Axis,TARGET LESION 5,TUMOR ASSESSMENT,,11.4,mm,11.4,11.4,mm,,,11.0,C24D1,TREATMENT,2025-06-21,484
MS200095-0022-VISION,FA,MS200095-0022-VISION-JPN_SITE02-0019,111,LDIAM,Longest Diameter,TARGET LESION 1,TUMOR ASSESSMENT,,26.9,mm,26.9,26.9,mm,,,12.0,EOT,FOLLOW-UP,2025-07-12,505
MS200095-0022-VISION,FA,MS200095-0022-VISION-JPN_SITE02-0019,112,SAXIS,Short Axis,TARGET LESION 1,TUMOR ASSESSMENT,,11.2,mm,11.2,11.2,mm,,,12.0,EOT,FOLLOW-UP,2025-07-12,505
MS200095-0022-VISION,FA,MS200095-0022-VISION-JPN_SITE02-0019,113,LDIAM,Longest Diameter,TARGET LESION 2,TUMOR ASSESSMENT,,40.1,mm,40.1,40.1,mm,,,12.0,EOT,FOLLOW-UP,2025-07-12,505
MS200095-0022-VISION,FA,MS200095-0022-VISION-JPN_SITE02-0019,114,SAXIS,Short Axis,TARGET LESION 2,TUMOR ASSESSMENT,,18.5,mm,18.5,18.5,mm,,,12.0,EOT,FOLLOW-UP,2025-07-12,505
MS200095-0022-VISION,FA,MS200095-0022-VISION-JPN_SITE02-0019,115,LDIAM,Longest Diameter,TARGET LESION 3,TUMOR ASSESSMENT,,20.0,mm,20.0,20.0,mm,,,12.0,EOT,FOLLOW-UP,2025-07-12,505
MS200095-0022-VISION,FA,MS200095-0022-VISION-JPN_SITE02-0019,116,SAXIS,Short Axis,TARGET LESION 3,TUMOR ASSESSMENT,,18.2,mm,18.2,18.2,mm,,,12.0,EOT,FOLLOW-UP,2025-07-12,505
MS200095-0022-VISION,FA,MS200095-0022-VISION-JPN_SITE02-0019,117,LDIAM,Longest Diameter,TARGET LESION 4,TUMOR ASSESSMENT,,31.1,mm,31.1,31.1,mm,,,12.0,EOT,FOLLOW-UP,2025-07-12,505
MS200095-0022-VISION,FA,MS200095-0022-VISION-JPN_SITE02-0019,118,SAXIS,Short Axis,TARGET LESION 4,TUMOR ASSESSMENT,,26.5,mm,26.5,26.5,mm,,,12.0,EOT,FOLLOW-UP,2025-07-12,505
MS200095-0022-VISION,FA,MS200095-0022-VISION-JPN_SITE02-0019,119,LDIAM,Longest Diameter,TARGET LESION 5,TUMOR ASSESSMENT,,36.9,mm,36.9,36.9,mm,,,12.0,EOT,FOLLOW-UP,2025-07-12,505
MS200095-0022-VISION,FA,MS200095-0022-VISION-JPN_SITE02-0019,120,SAXIS,Short Axis,TARGET LESION 5,TUMOR ASSESSMENT,,12.6,mm,12.6,12.6,mm,,,12.0,EOT,FOLLOW-UP,2025-07-12,505
MS200095-0022-VISION,FA,MS200095-0022-VISION-USA_SITE01-0007,1,LDIAM,Longest Diameter,TARGET LESION 1,TUMOR ASSESSMENT,,26.7,mm,26.7,26.7,mm,,,1.0,SCREENING,SCREENING,2024-04-06,-14
MS200095-0022-VISION,FA,MS200095-0022-VISION-USA_SITE01-0007,2,SAXIS,Short Axis,TARGET LESION 1,TUMOR ASSESSMENT,,6.9,mm,6.9,6.9,mm,,,1.0,SCREENING,SCREENING,2024-04-06,-14
MS200095-0022-VISION,FA,MS200095-0022-VISION-USA_SITE01-0007,3,LDIAM,Longest Diameter,TARGET LESION 2,TUMOR ASSESSMENT,,30.6,mm,30.6,30.6,mm,,,1.0,SCREENING,SCREENING,2024-04-06,-14
MS200095-0022-VISION,FA,MS200095-0022-VISION-USA_SITE01-0007,4,SAXIS,Short Axis,TARGET LESION 2,TUMOR ASSESSMENT,,9.2,mm,9.2,9.2,mm,,,1.0,SCREENING,SCREENING,2024-04-06,-14
MS200095-0022-VISION,FA,MS200095-0022-VISION-USA_SITE01-0007,5,LDIAM,Longest Diameter,TARGET LESION 3,TUMOR ASSESSMENT,,32.3,mm,32.3,32.3,mm,,,1.0,SCREENING,SCREENING,2024-04-06,-14
MS200095-0022-VISION,FA,MS200095-0022-VISION-USA_SITE01-0007,6,SAXIS,Short Axis,TARGET LESION 3,TUMOR ASSESSMENT,,17.8,mm,17.8,17.8,mm,,,1.0,SCREENING,SCREENING,2024-04-06,-14
MS200095-0022-VISION,FA,MS200095-0022-VISION-USA_SITE01-0007,7,LDIAM,Longest Diameter,TARGET LESION 4,TUMOR ASSESSMENT,,30.3,mm,30.3,30.3,mm,,,1.0,SCREENING,SCREENING,2024-04-06,-14
MS200095-0022-VISION,FA,MS200095-0022-VISION-USA_SITE01-0007,8,SAXIS,Short Axis,TARGET LESION 4,TUMOR ASSESSMENT,,9.3,mm,9.3,9.3,mm,,,1.0,SCREENING,SCREENING,2024-04-06,-14
MS200095-0022-VISION,FA,MS200095-0022-VISION-USA_SITE01-0007,9,LDIAM,Longest Diameter,TARGET LESION 5,TUMOR ASSESSMENT,,16.6,mm,16.6,16.6,mm,,,1.0,SCREENING,SCREENING,2024-04-06,-14
MS200095-0022-VISION,FA,MS200095-0022-VISION-USA_SITE01-0007,10,SAXIS,Short Axis,TARGET LESION 5,TUMOR ASSESSMENT,,11.3,mm,11.3,11.3,mm,,,1.0,SCREENING,SCREENING,2024-04-06,-14
MS200095-0022-VISION,FA,MS200095-0022-VISION-USA_SITE01-0007,11,LDIAM,Longest Diameter,TARGET LESION 1,TUMOR ASSESSMENT,,26.4,mm,26.4,26.4,mm,,Y,2.0,C1D1,TREATMENT,2024-04-20,1
MS200095-0022-VISION,FA,MS200095-0022-VISION-USA_SITE01-0007,12,SAXIS,Short Axis,TARGET LESION 1,TUMOR ASSESSMENT,,6.4,mm,6.4,6.4,mm,,Y,2.0,C1D1,TREATMENT,2024-04-20,1
MS200095-0022-VISION,FA,MS200095-0022-VISION-USA_SITE01-0007,13,LDIAM,Longest Diameter,TARGET LESION 2,TUMOR ASSESSMENT,,29.3,mm,29.3,29.3,mm,,,2.0,C1D1,TREATMENT,2024-04-20,1
MS200095-0022-VISION,FA,MS200095-0022-VISION-USA_SITE01-0007,14,SAXIS,Short Axis,TARGET LESION 2,TUMOR ASSESSMENT,,8.7,mm,8.7,8.7,mm,,,2.0,C1D1,TREATMENT,2024-04-20,1
MS200095-0022-VISION,FA,MS200095-0022-VISION-USA_SITE01-0007,15,LDIAM,Longest Diameter,TARGET LESION 3,TUMOR ASSESSMENT,,30.6,mm,30.6,30.6,mm,,,2.0,C1D1,TREATMENT,2024-04-20,1
MS200095-0022-VISION,FA,MS200095-0022-VISION-USA_SITE01-0007,16,SAXIS,Short Axis,TARGET LESION 3,TUMOR ASSESSMENT,,17.0,mm,17.0,17.0,mm,,,2.0,C1D1,TREATMENT,2024-04-20,1
MS200095-0022-VISION,FA,MS200095-0022-VISION-USA_SITE01-0007,17,LDIAM,Longest Diameter,TARGET LESION 4,TUMOR ASSESSMENT,,29.5,mm,29.5,29.5,mm,,,2.0,C1D1,TREATMENT,2024-04-20,1
MS200095-0022-VISION,FA,MS200095-0022-VISION-USA_SITE01-0007,18,SAXIS,Short Axis,TARGET LESION 4,TUMOR ASSESSMENT,,8.3,mm,8.3,8.3,mm,,,2.0,C1D1,TREATMENT,2024-04-20,1
MS200095-0022-VISION,FA,MS200095-0022-VISION-USA_SITE01-0007,19,LDIAM,Longest Diameter,TARGET LESION 5,TUMOR ASSESSMENT,,15.6,mm,15.6,15.6,mm,,,2.0,C1D1,TREATMENT,2024-04-20,1
MS200095-0022-VISION,FA,MS200095-0022-VISION-USA_SITE01-0007,20,SAXIS,Short Axis,TARGET LESION 5,TUMOR ASSESSMENT,,11.0,mm,11.0,11.0,mm,,,2.0,C1D1,TREATMENT,2024-04-20,1
MS200095-0022-VISION,FA,MS200095-0022-VISION-USA_SITE01-0007,21,LDIAM,Longest Diameter,TARGET LESION 1,TUMOR ASSESSMENT,,25.9,mm,25.9,25.9,mm,,,3.0,C1D15,TREATMENT,2024-05-04,15
MS200095-0022-VISION,FA,MS200095-0022-VISION-USA_SITE01-0007,22,SAXIS,Short Axis,TARGET LESION 1,TUMOR ASSESSMENT,,6.5,mm,6.5,6.5,mm,,,3.0,C1D15,TREATMENT,2024-05-04,15
MS200095-0022-VISION,FA,MS200095-0022-VISION-USA_SITE01-0007,23,LDIAM,Longest Diameter,TARGET LESION 2,TUMOR ASSESSMENT,,27.5,mm,27.5,27.5,mm,,,3.0,C1D15,TREATMENT,2024-05-04,15
MS200095-0022-VISION,FA,MS200095-0022-VISION-USA_SITE01-0007,24,SAXIS,Short Axis,TARGET LESION 2,TUMOR ASSESSMENT,,8.2,mm,8.2,8.2,mm,,,3.0,C1D15,TREATMENT,2024-05-04,15
MS200095-0022-VISION,FA,MS200095-0022-VISION-USA_SITE01-0007,25,LDIAM,Longest Diameter,TARGET LESION 3,TUMOR ASSESSMENT,,29.8,mm,29.8,29.8,mm,,,3.0,C1D15,TREATMENT,2024-05-04,15
MS200095-0022-VISION,FA,MS200095-0022-VISION-USA_SITE01-0007,26,SAXIS,Short Axis,TARGET LESION 3,TUMOR ASSESSMENT,,16.1,mm,16.1,16.1,mm,,,3.0,C1D15,TREATMENT,2024-05-04,15
MS200095-0022-VISION,FA,MS200095-0022-VISION-USA_SITE01-0007,27,LDIAM,Longest Diameter,TARGET LESION 4,TUMOR ASSESSMENT,,26.3,mm,26.3,26.3,mm,,,3.0,C1D15,TREATMENT,2024-05-04,15
MS200095-0022-VISION,FA,MS200095-0022-VISION-USA_SITE01-0007,28,SAXIS,Short Axis,TARGET LESION 4,TUMOR ASSESSMENT,,8.5,mm,8.5,8.5,mm,,,3.0,C1D15,TREATMENT,2024-05-04,15
MS200095-0022-VISION,FA,MS200095-0022-VISION-USA_SITE01-0007,29,LDIAM,Longest Diameter,TARGET LESION 5,TUMOR ASSESSMENT,,12.4,mm,12.4,12.4,mm,,,3.0,C1D15,TREATMENT,2024-05-04,15
MS200095-0022-VISION,FA,MS200095-0022-VISION-USA_SITE01-0007,30,SAXIS,Short Axis,TARGET LESION 5,TUMOR ASSESSMENT,,10.9,mm,10.9,10.9,mm,,,3.0,C1D15,TREATMENT,2024-05-04,15
MS200095-0022-VISION,FA,MS200095-0022-VISION-USA_SITE01-0007,31,LDIAM,Longest Diameter,TARGET LESION 1,TUMOR ASSESSMENT,,22.5,mm,22.5,22.5,mm,,,4.0,C2D1,TREATMENT,2024-05-11,22
MS200095-0022-VISION,FA,MS200095-0022-VISION-USA_SITE01-0007,32,SAXIS,Short Axis,TARGET LESION 1,TUMOR ASSESSMENT,,6.0,mm,6.0,6.0,mm,,,4.0,C2D1,TREATMENT,2024-05-11,22
MS200095-0022-VISION,FA,MS200095-0022-VISION-USA_SITE01-0007,33,LDIAM,Longest Diameter,TARGET LESION 2,TUMOR ASSESSMENT,,27.3,mm,27.3,27.3,mm,,,4.0,C2D1,TREATMENT,2024-05-11,22
MS200095-0022-VISION,FA,MS200095-0022-VISION-USA_SITE01-0007,34,SAXIS,Short Axis,TARGET LESION 2,TUMOR ASSESSMENT,,8.0,mm,8.0,8.0,mm,,,4.0,C2D1,TREATMENT,2024-05-11,22
MS200095-0022-VISION,FA,MS200095-0022-VISION-USA_SITE01-0007,35,LDIAM,Longest Diameter,TARGET LESION 3,TUMOR ASSESSMENT,,27.7,mm,27.7,27.7,mm,,,4.0,C2D1,TREATMENT,2024-05-11,22
MS200095-0022-VISION,FA,MS200095-0022-VISION-USA_SITE01-0007,36,SAXIS,Short Axis,TARGET LESION 3,TUMOR ASSESSMENT,,14.3,mm,14.3,14.3,mm,,,4.0,C2D1,TREATMENT,2024-05-11,22
MS200095-0022-VISION,FA,MS200095-0022-VISION-USA_SITE01-0007,37,LDIAM,Longest Diameter,TARGET LESION 4,TUMOR ASSESSMENT,,24.0,mm,24.0,24.0,mm,,,4.0,C2D1,TREATMENT,2024-05-11,22
MS200095-0022-VISION,FA,MS200095-0022-VISION-USA_SITE01-0007,38,SAXIS,Short Axis,TARGET LESION 4,TUMOR ASSESSMENT,,7.7,mm,7.7,7.7,mm,,,4.0,C2D1,TREATMENT,2024-05-11,22
MS200095-0022-VISION,FA,MS200095-0022-VISION-USA_SITE01-0007,39,LDIAM,Longest Diameter,TARGET LESION 5,TUMOR ASSESSMENT,,16.1,mm,16.1,16.1,mm,,,4.0,C2D1,TREATMENT,2024-05-11,22
MS200095-0022-VISION,FA,MS200095-0022-VISION-USA_SITE01-0007,40,SAXIS,Short Axis,TARGET LESION 5,TUMOR ASSESSMENT,,9.8,mm,9.8,9.8,mm,,,4.0,C2D1,TREATMENT,2024-05-11,22
MS200095-0022-VISION,FA,MS200095-0022-VISION-USA_SITE01-0007,41,LDIAM,Longest Diameter,TARGET LESION 1,TUMOR ASSESSMENT,,19.8,mm,19.8,19.8,mm,,,5.0,C3D1,TREATMENT,2024-06-01,43
MS200095-0022-VISION,FA,MS200095-0022-VISION-USA_SITE01-0007,42,SAXIS,Short Axis,TARGET LESION 1,TUMOR ASSESSMENT,,5.4,mm,5.4,5.4,mm,,,5.0,C3D1,TREATMENT,2024-06-01,43
MS200095-0022-VISION,FA,MS200095-0022-VISION-USA_SITE01-0007,43,LDIAM,Longest Diameter,TARGET LESION 2,TUMOR ASSESSMENT,,26.9,mm,26.9,26.9,mm,,,5.0,C3D1,TREATMENT,2024-06-01,43
MS200095-0022-VISION,FA,MS200095-0022-VISION-USA_SITE01-0007,44,SAXIS,Short Axis,TARGET LESION 2,TUMOR ASSESSMENT,,7.9,mm,7.9,7.9,mm,,,5.0,C3D1,TREATMENT,2024-06-01,43
MS200095-0022-VISION,FA,MS200095-0022-VISION-USA_SITE01-0007,45,LDIAM,Longest Diameter,TARGET LESION 3,TUMOR ASSESSMENT,,27.2,mm,27.2,27.2,mm,,,5.0,C3D1,TREATMENT,2024-06-01,43
MS200095-0022-VISION,FA,MS200095-0022-VISION-USA_SITE01-0007,46,SAXIS,Short Axis,TARGET LESION 3,TUMOR ASSESSMENT,,14.4,mm,14.4,14.4,mm,,,5.0,C3D1,TREATMENT,2024-06-01,43
MS200095-0022-VISION,FA,MS200095-0022-VISION-USA_SITE01-0007,47,LDIAM,Longest Diameter,TARGET LESION 4,TUMOR ASSESSMENT,,23.8,mm,23.8,23.8,mm,,,5.0,C3D1,TREATMENT,2024-06-01,43
MS200095-0022-VISION,FA,MS200095-0022-VISION-USA_SITE01-0007,48,SAXIS,Short Axis,TARGET LESION 4,TUMOR ASSESSMENT,,6.2,mm,6.2,6.2,mm,,,5.0,C3D1,TREATMENT,2024-06-01,43
MS200095-0022-VISION,FA,MS200095-0022-VISION-USA_SITE01-0007,49,LDIAM,Longest Diameter,TARGET LESION 5,TUMOR ASSESSMENT,,12.1,mm,12.1,12.1,mm,,,5.0,C3D1,TREATMENT,2024-06-01,43
MS200095-0022-VISION,FA,MS200095-0022-VISION-USA_SITE01-0007,50,SAXIS,Short Axis,TARGET LESION 5,TUMOR ASSESSMENT,,9.7,mm,9.7,9.7,mm,,,5.0,C3D1,TREATMENT,2024-06-01,43
MS200095-0022-VISION,FA,MS200095-0022-VISION-USA_SITE01-0007,51,LDIAM,Longest Diameter,TARGET LESION 1,TUMOR ASSESSMENT,,20.4,mm,20.4,20.4,mm,,,6.0,C4D1,TREATMENT,2024-06-22,64
MS200095-0022-VISION,FA,MS200095-0022-VISION-USA_SITE01-0007,52,SAXIS,Short Axis,TARGET LESION 1,TUMOR ASSESSMENT,,5.5,mm,5.5,5.5,mm,,,6.0,C4D1,TREATMENT,2024-06-22,64
MS200095-0022-VISION,FA,MS200095-0022-VISION-USA_SITE01-0007,53,LDIAM,Longest Diameter,TARGET LESION 2,TUMOR ASSESSMENT,,25.5,mm,25.5,25.5,mm,,,6.0,C4D1,TREATMENT,2024-06-22,64
MS200095-0022-VISION,FA,MS200095-0022-VISION-USA_SITE01-0007,54,SAXIS,Short Axis,TARGET LESION 2,TUMOR ASSESSMENT,,6.8,mm,6.8,6.8,mm,,,6.0,C4D1,TREATMENT,2024-06-22,64
MS200095-0022-VISION,FA,MS200095-0022-VISION-USA_SITE01-0007,55,LDIAM,Longest Diameter,TARGET LESION 3,TUMOR ASSESSMENT,,25.0,mm,25.0,25.0,mm,,,6.0,C4D1,TREATMENT,2024-06-22,64
MS200095-0022-VISION,FA,MS200095-0022-VISION-USA_SITE01-0007,56,SAXIS,Short Axis,TARGET LESION 3,TUMOR ASSESSMENT,,13.2,mm,13.2,13.2,mm,,,6.0,C4D1,TREATMENT,2024-06-22,64
MS200095-0022-VISION,FA,MS200095-0022-VISION-USA_SITE01-0007,57,LDIAM,Longest Diameter,TARGET LESION 4,TUMOR ASSESSMENT,,23.2,mm,23.2,23.2,mm,,,6.0,C4D1,TREATMENT,2024-06-22,64
MS200095-0022-VISION,FA,MS200095-0022-VISION-USA_SITE01-0007,58,SAXIS,Short Axis,TARGET LESION 4,TUMOR ASSESSMENT,,7.7,mm,7.7,7.7,mm,,,6.0,C4D1,TREATMENT,2024-06-22,64
MS200095-0022-VISION,FA,MS200095-0022-VISION-USA_SITE01-0007,59,LDIAM,Longest Diameter,TARGET LESION 5,TUMOR ASSESSMENT,,11.6,mm,11.6,11.6,mm,,,6.0,C4D1,TREATMENT,2024-06-22,64
MS200095-0022-VISION,FA,MS200095-0022-VISION-USA_SITE01-0007,60,SAXIS,Short Axis,TARGET LESION 5,TUMOR ASSESSMENT,,8.3,mm,8.3,8.3,mm,,,6.0,C4D1,TREATMENT,2024-06-22,64
MS200095-0022-VISION,FA,MS200095-0022-VISION-USA_SITE01-0007,61,LDIAM,Longest Diameter,TARGET LESION 1,TUMOR ASSESSMENT,,16.5,mm,16.5,16.5,mm,,,7.0,C6D1,TREATMENT,2024-08-03,106
MS200095-0022-VISION,FA,MS200095-0022-VISION-USA_SITE01-0007,62,SAXIS,Short Axis,TARGET LESION 1,TUMOR ASSESSMENT,,4.5,mm,4.5,4.5,mm,,,7.0,C6D1,TREATMENT,2024-08-03,106
MS200095-0022-VISION,FA,MS200095-0022-VISION-USA_SITE01-0007,63,LDIAM,Longest Diameter,TARGET LESION 2,TUMOR ASSESSMENT,,22.4,mm,22.4,22.4,mm,,,7.0,C6D1,TREATMENT,2024-08-03,106
MS200095-0022-VISION,FA,MS200095-0022-VISION-USA_SITE01-0007,64,SAXIS,Short Axis,TARGET LESION 2,TUMOR ASSESSMENT,,6.6,mm,6.6,6.6,mm,,,7.0,C6D1,TREATMENT,2024-08-03,106
MS200095-0022-VISION,FA,MS200095-0022-VISION-USA_SITE01-0007,65,LDIAM,Longest Diameter,TARGET LESION 3,TUMOR ASSESSMENT,,24.8,mm,24.8,24.8,mm,,,7.0,C6D1,TREATMENT,2024-08-03,106
MS200095-0022-VISION,FA,MS200095-0022-VISION-USA_SITE01-0007,66,SAXIS,Short Axis,TARGET LESION 3,TUMOR ASSESSMENT,,12.0,mm,12.0,12.0,mm,,,7.0,C6D1,TREATMENT,2024-08-03,106
MS200095-0022-VISION,FA,MS200095-0022-VISION-USA_SITE01-0007,67,LDIAM,Longest Diameter,TARGET LESION 4,TUMOR ASSESSMENT,,19.8,mm,19.8,19.8,mm,,,7.0,C6D1,TREATMENT,2024-08-03,106
MS200095-0022-VISION,FA,MS200095-0022-VISION-USA_SITE01-0007,68,SAXIS,Short Axis,TARGET LESION 4,TUMOR ASSESSMENT,,7.1,mm,7.1,7.1,mm,,,7.0,C6D1,TREATMENT,2024-08-03,106
MS200095-0022-VISION,FA,MS200095-0022-VISION-USA_SITE01-0007,69,LDIAM,Longest Diameter,TARGET LESION 5,TUMOR ASSESSMENT,,11.8,mm,11.8,11.8,mm,,,7.0,C6D1,TREATMENT,2024-08-03,106
MS200095-0022-VISION,FA,MS200095-0022-VISION-USA_SITE01-0007,70,SAXIS,Short Axis,TARGET LESION 5,TUMOR ASSESSMENT,,7.7,mm,7.7,7.7,mm,,,7.0,C6D1,TREATMENT,2024-08-03,106
MS200095-0022-VISION,FA,MS200095-0022-VISION-USA_SITE01-0007,71,LDIAM,Longest Diameter,TARGET LESION 1,TUMOR ASSESSMENT,,18.3,mm,18.3,18.3,mm,,,8.0,C8D1,TREATMENT,2024-09-14,148
MS200095-0022-VISION,FA,MS200095-0022-VISION-USA_SITE01-0007,72,SAXIS,Short Axis,TARGET LESION 1,TUMOR ASSESSMENT,,5.0,mm,5.0,5.0,mm,,,8.0,C8D1,TREATMENT,2024-09-14,148
MS200095-0022-VISION,FA,MS200095-0022-VISION-USA_SITE01-0007,73,LDIAM,Longest Diameter,TARGET LESION 2,TUMOR ASSESSMENT,,16.3,mm,16.3,16.3,mm,,,8.0,C8D1,TREATMENT,2024-09-14,148
MS200095-0022-VISION,FA,MS200095-0022-VISION-USA_SITE01-0007,74,SAXIS,Short Axis,TARGET LESION 2,TUMOR ASSESSMENT,,6.0,mm,6.0,6.0,mm,,,8.0,C8D1,TREATMENT,2024-09-14,148
MS200095-0022-VISION,FA,MS200095-0022-VISION-USA_SITE01-0007,75,LDIAM,Longest Diameter,TARGET LESION 3,TUMOR ASSESSMENT,,19.7,mm,19.7,19.7,mm,,,8.0,C8D1,TREATMENT,2024-09-14,148
MS200095-0022-VISION,FA,MS200095-0022-VISION-USA_SITE01-0007,76,SAXIS,Short Axis,TARGET LESION 3,TUMOR ASSESSMENT,,11.7,mm,11.7,11.7,mm,,,8.0,C8D1,TREATMENT,2024-09-14,148
MS200095-0022-VISION,FA,MS200095-0022-VISION-USA_SITE01-0007,77,LDIAM,Longest Diameter,TARGET LESION 4,TUMOR ASSESSMENT,,19.0,mm,19.0,19.0,mm,,,8.0,C8D1,TREATMENT,2024-09-14,148
MS200095-0022-VISION,FA,MS200095-0022-VISION-USA_SITE01-0007,78,SAXIS,Short Axis,TARGET LESION 4,TUMOR ASSESSMENT,,5.8,mm,5.8,5.8,mm,,,8.0,C8D1,TREATMENT,2024-09-14,148
MS200095-0022-VISION,FA,MS200095-0022-VISION-USA_SITE01-0007,79,LDIAM,Longest Diameter,TARGET LESION 5,TUMOR ASSESSMENT,,10.8,mm,10.8,10.8,mm,,,8.0,C8D1,TREATMENT,2024-09-14,148
MS200095-0022-VISION,FA,MS200095-0022-VISION-USA_SITE01-0007,80,SAXIS,Short Axis,TARGET LESION 5,TUMOR ASSESSMENT,,6.8,mm,6.8,6.8,mm,,,8.0,C8D1,TREATMENT,2024-09-14,148
MS200095-0022-VISION,FA,MS200095-0022-VISION-USA_SITE01-0007,81,LDIAM,Longest Diameter,TARGET LESION 1,TUMOR ASSESSMENT,,18.6,mm,18.6,18.6,mm,,,9.0,C12D1,TREATMENT,2024-12-07,232
MS200095-0022-VISION,FA,MS200095-0022-VISION-USA_SITE01-0007,82,SAXIS,Short Axis,TARGET LESION 1,TUMOR ASSESSMENT,,4.7,mm,4.7,4.7,mm,,,9.0,C12D1,TREATMENT,2024-12-07,232
MS200095-0022-VISION,FA,MS200095-0022-VISION-USA_SITE01-0007,83,LDIAM,Longest Diameter,TARGET LESION 2,TUMOR ASSESSMENT,,15.8,mm,15.8,15.8,mm,,,9.0,C12D1,TREATMENT,2024-12-07,232
MS200095-0022-VISION,FA,MS200095-0022-VISION-USA_SITE01-0007,84,SAXIS,Short Axis,TARGET LESION 2,TUMOR ASSESSMENT,,5.2,mm,5.2,5.2,mm,,,9.0,C12D1,TREATMENT,2024-12-07,232
MS200095-0022-VISION,FA,MS200095-0022-VISION-USA_SITE01-0007,85,LDIAM,Longest Diameter,TARGET LESION 3,TUMOR ASSESSMENT,,18.6,mm,18.6,18.6,mm,,,9.0,C12D1,TREATMENT,2024-12-07,232
MS200095-0022-VISION,FA,MS200095-0022-VISION-USA_SITE01-0007,86,SAXIS,Short Axis,TARGET LESION 3,TUMOR ASSESSMENT,,11.0,mm,11.0,11.0,mm,,,9.0,C12D1,TREATMENT,2024-12-07,232
MS200095-0022-VISION,FA,MS200095-0022-VISION-USA_SITE01-0007,87,LDIAM,Longest Diameter,TARGET LESION 4,TUMOR ASSESSMENT,,17.5,mm,17.5,17.5,mm,,,9.0,C12D1,TREATMENT,2024-12-07,232
MS200095-0022-VISION,FA,MS200095-0022-VISION-USA_SITE01-0007,88,SAXIS,Short Axis,TARGET LESION 4,TUMOR ASSESSMENT,,5.4,mm,5.4,5.4,mm,,,9.0,C12D1,TREATMENT,2024-12-07,232
MS200095-0022-VISION,FA,MS200095-0022-VISION-USA_SITE01-0007,89,LDIAM,Longest Diameter,TARGET LESION 5,TUMOR ASSESSMENT,,9.0,mm,9.0,9.0,mm,,,9.0,C12D1,TREATMENT,2024-12-07,232
MS200095-0022-VISION,FA,MS200095-0022-VISION-USA_SITE01-0007,90,SAXIS,Short Axis,TARGET LESION 5,TUMOR ASSESSMENT,,6.6,mm,6.6,6.6,mm,,,9.0,C12D1,TREATMENT,2024-12-07,232
MS200095-0022-VISION,FA,MS200095-0022-VISION-USA_SITE01-0018,1,LDIAM,Longest Diameter,TARGET LESION 1,TUMOR ASSESSMENT,,47.5,mm,47.5,47.5,mm,,,1.0,SCREENING,SCREENING,2024-03-01,-12
MS200095-0022-VISION,FA,MS200095-0022-VISION-USA_SITE01-0018,2,SAXIS,Short Axis,TARGET LESION 1,TUMOR ASSESSMENT,,10.0,mm,10.0,10.0,mm,,,1.0,SCREENING,SCREENING,2024-03-01,-12
MS200095-0022-VISION,FA,MS200095-0022-VISION-USA_SITE01-0018,3,LDIAM,Longest Diameter,TARGET LESION 2,TUMOR ASSESSMENT,,22.2,mm,22.2,22.2,mm,,,1.0,SCREENING,SCREENING,2024-03-01,-12
MS200095-0022-VISION,FA,MS200095-0022-VISION-USA_SITE01-0018,4,SAXIS,Short Axis,TARGET LESION 2,TUMOR ASSESSMENT,,4.2,mm,4.2,4.2,mm,,,1.0,SCREENING,SCREENING,2024-03-01,-12
MS200095-0022-VISION,FA,MS200095-0022-VISION-USA_SITE01-0018,5,LDIAM,Longest Diameter,TARGET LESION 3,TUMOR ASSESSMENT,,47.3,mm,47.3,47.3,mm,,,1.0,SCREENING,SCREENING,2024-03-01,-12
MS200095-0022-VISION,FA,MS200095-0022-VISION-USA_SITE01-0018,6,SAXIS,Short Axis,TARGET LESION 3,TUMOR ASSESSMENT,,9.9,mm,9.9,9.9,mm,,,1.0,SCREENING,SCREENING,2024-03-01,-12
MS200095-0022-VISION,FA,MS200095-0022-VISION-USA_SITE01-0018,7,LDIAM,Longest Diameter,TARGET LESION 4,TUMOR ASSESSMENT,,11.1,mm,11.1,11.1,mm,,,1.0,SCREENING,SCREENING,2024-03-01,-12
MS200095-0022-VISION,FA,MS200095-0022-VISION-USA_SITE01-0018,8,SAXIS,Short Axis,TARGET LESION 4,TUMOR ASSESSMENT,,8.8,mm,8.8,8.8,mm,,,1.0,SCREENING,SCREENING,2024-03-01,-12
MS200095-0022-VISION,FA,MS200095-0022-VISION-USA_SITE01-0018,9,LDIAM,Longest Diameter,TARGET LESION 1,TUMOR ASSESSMENT,,45.4,mm,45.4,45.4,mm,,Y,2.0,C1D1,TREATMENT,2024-03-13,1
MS200095-0022-VISION,FA,MS200095-0022-VISION-USA_SITE01-0018,10,SAXIS,Short Axis,TARGET LESION 1,TUMOR ASSESSMENT,,9.9,mm,9.9,9.9,mm,,Y,2.0,C1D1,TREATMENT,2024-03-13,1
MS200095-0022-VISION,FA,MS200095-0022-VISION-USA_SITE01-0018,11,LDIAM,Longest Diameter,TARGET LESION 2,TUMOR ASSESSMENT,,22.2,mm,22.2,22.2,mm,,,2.0,C1D1,TREATMENT,2024-03-13,1
MS200095-0022-VISION,FA,MS200095-0022-VISION-USA_SITE01-0018,12,SAXIS,Short Axis,TARGET LESION 2,TUMOR ASSESSMENT,,3.2,mm,3.2,3.2,mm,,,2.0,C1D1,TREATMENT,2024-03-13,1
MS200095-0022-VISION,FA,MS200095-0022-VISION-USA_SITE01-0018,13,LDIAM,Longest Diameter,TARGET LESION 3,TUMOR ASSESSMENT,,47.4,mm,47.4,47.4,mm,,,2.0,C1D1,TREATMENT,2024-03-13,1
MS200095-0022-VISION,FA,MS200095-0022-VISION-USA_SITE01-0018,14,SAXIS,Short Axis,TARGET LESION 3,TUMOR ASSESSMENT,,10.5,mm,10.5,10.5,mm,,,2.0,C1D1,TREATMENT,2024-03-13,1
MS200095-0022-VISION,FA,MS200095-0022-VISION-USA_SITE01-0018,15,LDIAM,Longest Diameter,TARGET LESION 4,TUMOR ASSESSMENT,,10.7,mm,10.7,10.7,mm,,,2.0,C1D1,TREATMENT,2024-03-13,1
MS200095-0022-VISION,FA,MS200095-0022-VISION-USA_SITE01-0018,16,SAXIS,Short Axis,TARGET LESION 4,TUMOR ASSESSMENT,,9.5,mm,9.5,9.5,mm,,,2.0,C1D1,TREATMENT,2024-03-13,1
MS200095-0022-VISION,FA,MS200095-0022-VISION-USA_SITE01-0018,17,LDIAM,Longest Diameter,TARGET LESION 1,TUMOR ASSESSMENT,,47.0,mm,47.0,47.0,mm,,,3.0,C1D15,TREATMENT,2024-03-27,15
MS200095-0022-VISION,FA,MS200095-0022-VISION-USA_SITE01-0018,18,SAXIS,Short Axis,TARGET LESION 1,TUMOR ASSESSMENT,,10.2,mm,10.2,10.2,mm,,,3.0,C1D15,TREATMENT,2024-03-27,15
MS200095-0022-VISION,FA,MS200095-0022-VISION-USA_SITE01-0018,19,LDIAM,Longest Diameter,TARGET LESION 2,TUMOR ASSESSMENT,,20.6,mm,20.6,20.6,mm,,,3.0,C1D15,TREATMENT,2024-03-27,15
MS200095-0022-VISION,FA,MS200095-0022-VISION-USA_SITE01-0018,20,SAXIS,Short Axis,TARGET LESION 2,TUMOR ASSESSMENT,,4.4,mm,4.4,4.4,mm,,,3.0,C1D15,TREATMENT,2024-03-27,15
MS200095-0022-VISION,FA,MS200095-0022-VISION-USA_SITE01-0018,21,LDIAM,Longest Diameter,TARGET LESION 3,TUMOR ASSESSMENT,,46.1,mm,46.1,46.1,mm,,,3.0,C1D15,TREATMENT,2024-03-27,15
MS200095-0022-VISION,FA,MS200095-0022-VISION-USA_SITE01-0018,22,SAXIS,Short Axis,TARGET LESION 3,TUMOR ASSESSMENT,,9.6,mm,9.6,9.6,mm,,,3.0,C1D15,TREATMENT,2024-03-27,15
MS200095-0022-VISION,FA,MS200095-0022-VISION-USA_SITE01-0018,23,LDIAM,Longest Diameter,TARGET LESION 4,TUMOR ASSESSMENT,,12.1,mm,12.1,12.1,mm,,,3.0,C1D15,TREATMENT,2024-03-27,15
MS200095-0022-VISION,FA,MS200095-0022-VISION-USA_SITE01-0018,24,SAXIS,Short Axis,TARGET LESION 4,TUMOR ASSESSMENT,,8.5,mm,8.5,8.5,mm,,,3.0,C1D15,TREATMENT,2024-03-27,15
MS200095-0022-VISION,FA,MS200095-0022-VISION-USA_SITE01-0018,25,LDIAM,Longest Diameter,TARGET LESION 1,TUMOR ASSESSMENT,,46.3,mm,46.3,46.3,mm,,,4.0,C2D1,TREATMENT,2024-04-03,22
MS200095-0022-VISION,FA,MS200095-0022-VISION-USA_SITE01-0018,26,SAXIS,Short Axis,TARGET LESION 1,TUMOR ASSESSMENT,,9.4,mm,9.4,9.4,mm,,,4.0,C2D1,TREATMENT,2024-04-03,22
MS200095-0022-VISION,FA,MS200095-0022-VISION-USA_SITE01-0018,27,LDIAM,Longest Diameter,TARGET LESION 2,TUMOR ASSESSMENT,,23.0,mm,23.0,23.0,mm,,,4.0,C2D1,TREATMENT,2024-04-03,22
MS200095-0022-VISION,FA,MS200095-0022-VISION-USA_SITE01-0018,28,SAXIS,Short Axis,TARGET LESION 2,TUMOR ASSESSMENT,,4.3,mm,4.3,4.3,mm,,,4.0,C2D1,TREATMENT,2024-04-03,22
MS200095-0022-VISION,FA,MS200095-0022-VISION-USA_SITE01-0018,29,LDIAM,Longest Diameter,TARGET LESION 3,TUMOR ASSESSMENT,,46.6,mm,46.6,46.6,mm,,,4.0,C2D1,TREATMENT,2024-04-03,22
MS200095-0022-VISION,FA,MS200095-0022-VISION-USA_SITE01-0018,30,SAXIS,Short Axis,TARGET LESION 3,TUMOR ASSESSMENT,,9.6,mm,9.6,9.6,mm,,,4.0,C2D1,TREATMENT,2024-04-03,22
MS200095-0022-VISION,FA,MS200095-0022-VISION-USA_SITE01-0018,31,LDIAM,Longest Diameter,TARGET LESION 4,TUMOR ASSESSMENT,,11.4,mm,11.4,11.4,mm,,,4.0,C2D1,TREATMENT,2024-04-03,22
MS200095-0022-VISION,FA,MS200095-0022-VISION-USA_SITE01-0018,32,SAXIS,Short Axis,TARGET LESION 4,TUMOR ASSESSMENT,,9.3,mm,9.3,9.3,mm,,,4.0,C2D1,TREATMENT,2024-04-03,22
MS200095-0022-VISION,FA,MS200095-0022-VISION-USA_SITE01-0018,33,LDIAM,Longest Diameter,TARGET LESION 1,TUMOR ASSESSMENT,,46.1,mm,46.1,46.1,mm,,,5.0,C3D1,TREATMENT,2024-04-24,43
MS200095-0022-VISION,FA,MS200095-0022-VISION-USA_SITE01-0018,34,SAXIS,Short Axis,TARGET LESION 1,TUMOR ASSESSMENT,,9.4,mm,9.4,9.4,mm,,,5.0,C3D1,TREATMENT,2024-04-24,43
MS200095-0022-VISION,FA,MS200095-0022-VISION-USA_SITE01-0018,35,LDIAM,Longest Diameter,TARGET LESION 2,TUMOR ASSESSMENT,,21.1,mm,21.1,21.1,mm,,,5.0,C3D1,TREATMENT,2024-04-24,43
MS200095-0022-VISION,FA,MS200095-0022-VISION-USA_SITE01-0018,36,SAXIS,Short Axis,TARGET LESION 2,TUMOR ASSESSMENT,,5.2,mm,5.2,5.2,mm,,,5.0,C3D1,TREATMENT,2024-04-24,43
MS200095-0022-VISION,FA,MS200095-0022-VISION-USA_SITE01-0018,37,LDIAM,Longest Diameter,TARGET LESION 3,TUMOR ASSESSMENT,,43.8,mm,43.8,43.8,mm,,,5.0,C3D1,TREATMENT,2024-04-24,43
MS200095-0022-VISION,FA,MS200095-0022-VISION-USA_SITE01-0018,38,SAXIS,Short Axis,TARGET LESION 3,TUMOR ASSESSMENT,,9.5,mm,9.5,9.5,mm,,,5.0,C3D1,TREATMENT,2024-04-24,43
MS200095-0022-VISION,FA,MS200095-0022-VISION-USA_SITE01-0018,39,LDIAM,Longest Diameter,TARGET LESION 4,TUMOR ASSESSMENT,,11.2,mm,11.2,11.2,mm,,,5.0,C3D1,TREATMENT,2024-04-24,43
MS200095-0022-VISION,FA,MS200095-0022-VISION-USA_SITE01-0018,40,SAXIS,Short Axis,TARGET LESION 4,TUMOR ASSESSMENT,,9.5,mm,9.5,9.5,mm,,,5.0,C3D1,TREATMENT,2024-04-24,43
MS200095-0022-VISION,FA,MS200095-0022-VISION-USA_SITE01-0018,41,LDIAM,Longest Diameter,TARGET LESION 1,TUMOR ASSESSMENT,,45.3,mm,45.3,45.3,mm,,,6.0,C4D1,TREATMENT,2024-05-15,64
MS200095-0022-VISION,FA,MS200095-0022-VISION-USA_SITE01-0018,42,SAXIS,Short Axis,TARGET LESION 1,TUMOR ASSESSMENT,,10.7,mm,10.7,10.7,mm,,,6.0,C4D1,TREATMENT,2024-05-15,64
MS200095-0022-VISION,FA,MS200095-0022-VISION-USA_SITE01-0018,43,LDIAM,Longest Diameter,TARGET LESION 2,TUMOR ASSESSMENT,,22.4,mm,22.4,22.4,mm,,,6.0,C4D1,TREATMENT,2024-05-15,64
MS200095-0022-VISION,FA,MS200095-0022-VISION-USA_SITE01-0018,44,SAXIS,Short Axis,TARGET LESION 2,TUMOR ASSESSMENT,,3.7,mm,3.7,3.7,mm,,,6.0,C4D1,TREATMENT,2024-05-15,64
MS200095-0022-VISION,FA,MS200095-0022-VISION-USA_SITE01-0018,45,LDIAM,Longest Diameter,TARGET LESION 3,TUMOR ASSESSMENT,,46.6,mm,46.6,46.6,mm,,,6.0,C4D1,TREATMENT,2024-05-15,64
MS200095-0022-VISION,FA,MS200095-0022-VISION-USA_SITE01-0018,46,SAXIS,Short Axis,TARGET LESION 3,TUMOR ASSESSMENT,,9.4,mm,9.4,9.4,mm,,,6.0,C4D1,TREATMENT,2024-05-15,64
MS200095-0022-VISION,FA,MS200095-0022-VISION-USA_SITE01-0018,47,LDIAM,Longest Diameter,TARGET LESION 4,TUMOR ASSESSMENT,,9.3,mm,9.3,9.3,mm,,,6.0,C4D1,TREATMENT,2024-05-15,64
MS200095-0022-VISION,FA,MS200095-0022-VISION-USA_SITE01-0018,48,SAXIS,Short Axis,TARGET LESION 4,TUMOR ASSESSMENT,,7.9,mm,7.9,7.9,mm,,,6.0,C4D1,TREATMENT,2024-05-15,64
MS200095-0022-VISION,FA,MS200095-0022-VISION-USA_SITE01-0018,49,LDIAM,Longest Diameter,TARGET LESION 1,TUMOR ASSESSMENT,,47.2,mm,47.2,47.2,mm,,,7.0,C6D1,TREATMENT,2024-06-26,106
MS200095-0022-VISION,FA,MS200095-0022-VISION-USA_SITE01-0018,50,SAXIS,Short Axis,TARGET LESION 1,TUMOR ASSESSMENT,,9.5,mm,9.5,9.5,mm,,,7.0,C6D1,TREATMENT,2024-06-26,106
MS200095-0022-VISION,FA,MS200095-0022-VISION-USA_SITE01-0018,51,LDIAM,Longest Diameter,TARGET LESION 2,TUMOR ASSESSMENT,,23.2,mm,23.2,23.2,mm,,,7.0,C6D1,TREATMENT,2024-06-26,106
MS200095-0022-VISION,FA,MS200095-0022-VISION-USA_SITE01-0018,52,SAXIS,Short Axis,TARGET LESION 2,TUMOR ASSESSMENT,,4.1,mm,4.1,4.1,mm,,,7.0,C6D1,TREATMENT,2024-06-26,106
MS200095-0022-VISION,FA,MS200095-0022-VISION-USA_SITE01-0018,53,LDIAM,Longest Diameter,TARGET LESION 3,TUMOR ASSESSMENT,,46.0,mm,46.0,46.0,mm,,,7.0,C6D1,TREATMENT,2024-06-26,106
MS200095-0022-VISION,FA,MS200095-0022-VISION-USA_SITE01-0018,54,SAXIS,Short Axis,TARGET LESION 3,TUMOR ASSESSMENT,,10.0,mm,10.0,10.0,mm,,,7.0,C6D1,TREATMENT,2024-06-26,106
MS200095-0022-VISION,FA,MS200095-0022-VISION-USA_SITE01-0018,55,LDIAM,Longest Diameter,TARGET LESION 4,TUMOR ASSESSMENT,,11.8,mm,11.8,11.8,mm,,,7.0,C6D1,TREATMENT,2024-06-26,106
MS200095-0022-VISION,FA,MS200095-0022-VISION-USA_SITE01-0018,56,SAXIS,Short Axis,TARGET LESION 4,TUMOR ASSESSMENT,,9.2,mm,9.2,9.2,mm,,,7.0,C6D1,TREATMENT,2024-06-26,106
MS200095-0022-VISION,FA,MS200095-0022-VISION-USA_SITE01-0018,57,LDIAM,Longest Diameter,TARGET LESION 1,TUMOR ASSESSMENT,,46.3,mm,46.3,46.3,mm,,,8.0,C8D1,TREATMENT,2024-08-07,148
MS200095-0022-VISION,FA,MS200095-0022-VISION-USA_SITE01-0018,58,SAXIS,Short Axis,TARGET LESION 1,TUMOR ASSESSMENT,,10.0,mm,10.0,10.0,mm,,,8.0,C8D1,TREATMENT,2024-08-07,148
MS200095-0022-VISION,FA,MS200095-0022-VISION-USA_SITE01-0018,59,LDIAM,Longest Diameter,TARGET LESION 2,TUMOR ASSESSMENT,,24.7,mm,24.7,24.7,mm,,,8.0,C8D1,TREATMENT,2024-08-07,148
MS200095-0022-VISION,FA,MS200095-0022-VISION-USA_SITE01-0018,60,SAXIS,Short Axis,TARGET LESION 2,TUMOR ASSESSMENT,,3.3,mm,3.3,3.3,mm,,,8.0,C8D1,TREATMENT,2024-08-07,148
MS200095-0022-VISION,FA,MS200095-0022-VISION-USA_SITE01-0018,61,LDIAM,Longest Diameter,TARGET LESION 3,TUMOR ASSESSMENT,,44.2,mm,44.2,44.2,mm,,,8.0,C8D1,TREATMENT,2024-08-07,148
MS200095-0022-VISION,FA,MS200095-0022-VISION-USA_SITE01-0018,62,SAXIS,Short Axis,TARGET LESION 3,TUMOR ASSESSMENT,,9.2,mm,9.2,9.2,mm,,,8.0,C8D1,TREATMENT,2024-08-07,148
MS200095-0022-VISION,FA,MS200095-0022-VISION-USA_SITE01-0018,63,LDIAM,Longest Diameter,TARGET LESION 4,TUMOR ASSESSMENT,,10.2,mm,10.2,10.2,mm,,,8.0,C8D1,TREATMENT,2024-08-07,148
MS200095-0022-VISION,FA,MS200095-0022-VISION-USA_SITE01-0018,64,SAXIS,Short Axis,TARGET LESION 4,TUMOR ASSESSMENT,,8.0,mm,8.0,8.0,mm,,,8.0,C8D1,TREATMENT,2024-08-07,148
MS200095-0022-VISION,FA,MS200095-0022-VISION-USA_SITE01-0018,65,LDIAM,Longest Diameter,TARGET LESION 1,TUMOR ASSESSMENT,,47.5,mm,47.5,47.5,mm,,,9.0,C12D1,TREATMENT,2024-10-30,232
MS200095-0022-VISION,FA,MS200095-0022-VISION-USA_SITE01-0018,66,SAXIS,Short Axis,TARGET LESION 1,TUMOR ASSESSMENT,,10.2,mm,10.2,10.2,mm,,,9.0,C12D1,TREATMENT,2024-10-30,232
MS200095-0022-VISION,FA,MS200095-0022-VISION-USA_SITE01-0018,67,LDIAM,Longest Diameter,TARGET LESION 2,TUMOR ASSESSMENT,,21.6,mm,21.6,21.6,mm,,,9.0,C12D1,TREATMENT,2024-10-30,232
MS200095-0022-VISION,FA,MS200095-0022-VISION-USA_SITE01-0018,68,SAXIS,Short Axis,TARGET LESION 2,TUMOR ASSESSMENT,,4.1,mm,4.1,4.1,mm,,,9.0,C12D1,TREATMENT,2024-10-30,232
MS200095-0022-VISION,FA,MS200095-0022-VISION-USA_SITE01-0018,69,LDIAM,Longest Diameter,TARGET LESION 3,TUMOR ASSESSMENT,,44.9,mm,44.9,44.9,mm,,,9.0,C12D1,TREATMENT,2024-10-30,232
MS200095-0022-VISION,FA,MS200095-0022-VISION-USA_SITE01-0018,70,SAXIS,Short Axis,TARGET LESION 3,TUMOR ASSESSMENT,,9.1,mm,9.1,9.1,mm,,,9.0,C12D1,TREATMENT,2024-10-30,232
MS200095-0022-VISION,FA,MS200095-0022-VISION-USA_SITE01-0018,71,LDIAM,Longest Diameter,TARGET LESION 4,TUMOR ASSESSMENT,,7.6,mm,7.6,7.6,mm,,,9.0,C12D1,TREATMENT,2024-10-30,232
MS200095-0022-VISION,FA,MS200095-0022-VISION-USA_SITE01-0018,72,SAXIS,Short Axis,TARGET LESION 4,TUMOR ASSESSMENT,,8.9,mm,8.9,8.9,mm,,,9.0,C12D1,TREATMENT,2024-10-30,232
MS200095-0022-VISION,FA,MS200095-0022-VISION-USA_SITE01-0018,73,LDIAM,Longest Diameter,TARGET LESION 1,TUMOR ASSESSMENT,,44.2,mm,44.2,44.2,mm,,,10.0,C18D1,TREATMENT,2025-03-05,358
MS200095-0022-VISION,FA,MS200095-0022-VISION-USA_SITE01-0018,74,SAXIS,Short Axis,TARGET LESION 1,TUMOR ASSESSMENT,,9.4,mm,9.4,9.4,mm,,,10.0,C18D1,TREATMENT,2025-03-05,358
MS200095-0022-VISION,FA,MS200095-0022-VISION-USA_SITE01-0018,75,LDIAM,Longest Diameter,TARGET LESION 2,TUMOR ASSESSMENT,,21.0,mm,21.0,21.0,mm,,,10.0,C18D1,TREATMENT,2025-03-05,358
MS200095-0022-VISION,FA,MS200095-0022-VISION-USA_SITE01-0018,76,SAXIS,Short Axis,TARGET LESION 2,TUMOR ASSESSMENT,,4.0,mm,4.0,4.0,mm,,,10.0,C18D1,TREATMENT,2025-03-05,358
MS200095-0022-VISION,FA,MS200095-0022-VISION-USA_SITE01-0018,77,LDIAM,Longest Diameter,TARGET LESION 3,TUMOR ASSESSMENT,,42.6,mm,42.6,42.6,mm,,,10.0,C18D1,TREATMENT,2025-03-05,358
MS200095-0022-VISION,FA,MS200095-0022-VISION-USA_SITE01-0018,78,SAXIS,Short Axis,TARGET LESION 3,TUMOR ASSESSMENT,,10.6,mm,10.6,10.6,mm,,,10.0,C18D1,TREATMENT,2025-03-05,358
MS200095-0022-VISION,FA,MS200095-0022-VISION-USA_SITE01-0018,79,LDIAM,Longest Diameter,TARGET LESION 4,TUMOR ASSESSMENT,,10.3,mm,10.3,10.3,mm,,,10.0,C18D1,TREATMENT,2025-03-05,358
MS200095-0022-VISION,FA,MS200095-0022-VISION-USA_SITE01-0018,80,SAXIS,Short Axis,TARGET LESION 4,TUMOR ASSESSMENT,,9.2,mm,9.2,9.2,mm,,,10.0,C18D1,TREATMENT,2025-03-05,358
MS200095-0022-VISION,FA,MS200095-0022-VISION-USA_SITE02-0002,1,LDIAM,Longest Diameter,TARGET LESION 1,TUMOR ASSESSMENT,,27.1,mm,27.1,27.1,mm,,,1.0,SCREENING,SCREENING,2024-04-14,-28
MS200095-0022-VISION,FA,MS200095-0022-VISION-USA_SITE02-0002,2,SAXIS,Short Axis,TARGET LESION 1,TUMOR ASSESSMENT,,4.1,mm,4.1,4.1,mm,,,1.0,SCREENING,SCREENING,2024-04-14,-28
MS200095-0022-VISION,FA,MS200095-0022-VISION-USA_SITE02-0002,3,LDIAM,Longest Diameter,TARGET LESION 1,TUMOR ASSESSMENT,,26.7,mm,26.7,26.7,mm,,Y,2.0,C1D1,TREATMENT,2024-05-12,1
MS200095-0022-VISION,FA,MS200095-0022-VISION-USA_SITE02-0002,4,SAXIS,Short Axis,TARGET LESION 1,TUMOR ASSESSMENT,,3.5,mm,3.5,3.5,mm,,Y,2.0,C1D1,TREATMENT,2024-05-12,1
MS200095-0022-VISION,FA,MS200095-0022-VISION-USA_SITE02-0014,1,LDIAM,Longest Diameter,TARGET LESION 1,TUMOR ASSESSMENT,,19.3,mm,19.3,19.3,mm,,,1.0,SCREENING,SCREENING,2024-04-01,-27
MS200095-0022-VISION,FA,MS200095-0022-VISION-USA_SITE02-0014,2,SAXIS,Short Axis,TARGET LESION 1,TUMOR ASSESSMENT,,26.8,mm,26.8,26.8,mm,,,1.0,SCREENING,SCREENING,2024-04-01,-27
MS200095-0022-VISION,FA,MS200095-0022-VISION-USA_SITE02-0014,3,LDIAM,Longest Diameter,TARGET LESION 2,TUMOR ASSESSMENT,,5,mm,5,5.0,mm,,,1.0,SCREENING,SCREENING,2024-04-01,-27
MS200095-0022-VISION,FA,MS200095-0022-VISION-USA_SITE02-0014,4,SAXIS,Short Axis,TARGET LESION 2,TUMOR ASSESSMENT,,9.9,mm,9.9,9.9,mm,,,1.0,SCREENING,SCREENING,2024-04-01,-27
MS200095-0022-VISION,FA,MS200095-0022-VISION-USA_SITE02-0014,5,LDIAM,Longest Diameter,TARGET LESION 3,TUMOR ASSESSMENT,,52.3,mm,52.3,52.3,mm,,,1.0,SCREENING,SCREENING,2024-04-01,-27
MS200095-0022-VISION,FA,MS200095-0022-VISION-USA_SITE02-0014,6,SAXIS,Short Axis,TARGET LESION 3,TUMOR ASSESSMENT,,14.3,mm,14.3,14.3,mm,,,1.0,SCREENING,SCREENING,2024-04-01,-27
MS200095-0022-VISION,FA,MS200095-0022-VISION-USA_SITE02-0014,7,LDIAM,Longest Diameter,TARGET LESION 1,TUMOR ASSESSMENT,,17.8,mm,17.8,17.8,mm,,Y,2.0,C1D1,TREATMENT,2024-04-28,1
MS200095-0022-VISION,FA,MS200095-0022-VISION-USA_SITE02-0014,8,SAXIS,Short Axis,TARGET LESION 1,TUMOR ASSESSMENT,,26.6,mm,26.6,26.6,mm,,Y,2.0,C1D1,TREATMENT,2024-04-28,1
MS200095-0022-VISION,FA,MS200095-0022-VISION-USA_SITE02-0014,9,LDIAM,Longest Diameter,TARGET LESION 2,TUMOR ASSESSMENT,,5,mm,5,5.0,mm,,,2.0,C1D1,TREATMENT,2024-04-28,1
MS200095-0022-VISION,FA,MS200095-0022-VISION-USA_SITE02-0014,10,SAXIS,Short Axis,TARGET LESION 2,TUMOR ASSESSMENT,,9.6,mm,9.6,9.6,mm,,,2.0,C1D1,TREATMENT,2024-04-28,1
MS200095-0022-VISION,FA,MS200095-0022-VISION-USA_SITE02-0014,11,LDIAM,Longest Diameter,TARGET LESION 3,TUMOR ASSESSMENT,,50.1,mm,50.1,50.1,mm,,,2.0,C1D1,TREATMENT,2024-04-28,1
MS200095-0022-VISION,FA,MS200095-0022-VISION-USA_SITE02-0014,12,SAXIS,Short Axis,TARGET LESION 3,TUMOR ASSESSMENT,,14.0,mm,14.0,14.0,mm,,,2.0,C1D1,TREATMENT,2024-04-28,1
MS200095-0022-VISION,FA,MS200095-0022-VISION-USA_SITE02-0014,13,LDIAM,Longest Diameter,TARGET LESION 1,TUMOR ASSESSMENT,,18.6,mm,18.6,18.6,mm,,,3.0,C1D15,TREATMENT,2024-05-12,15
MS200095-0022-VISION,FA,MS200095-0022-VISION-USA_SITE02-0014,14,SAXIS,Short Axis,TARGET LESION 1,TUMOR ASSESSMENT,,26.5,mm,26.5,26.5,mm,,,3.0,C1D15,TREATMENT,2024-05-12,15
MS200095-0022-VISION,FA,MS200095-0022-VISION-USA_SITE02-0014,15,LDIAM,Longest Diameter,TARGET LESION 2,TUMOR ASSESSMENT,,5.9,mm,5.9,5.9,mm,,,3.0,C1D15,TREATMENT,2024-05-12,15
MS200095-0022-VISION,FA,MS200095-0022-VISION-USA_SITE02-0014,16,SAXIS,Short Axis,TARGET LESION 2,TUMOR ASSESSMENT,,9.9,mm,9.9,9.9,mm,,,3.0,C1D15,TREATMENT,2024-05-12,15
MS200095-0022-VISION,FA,MS200095-0022-VISION-USA_SITE02-0014,17,LDIAM,Longest Diameter,TARGET LESION 3,TUMOR ASSESSMENT,,52.6,mm,52.6,52.6,mm,,,3.0,C1D15,TREATMENT,2024-05-12,15
MS200095-0022-VISION,FA,MS200095-0022-VISION-USA_SITE02-0014,18,SAXIS,Short Axis,TARGET LESION 3,TUMOR ASSESSMENT,,13.6,mm,13.6,13.6,mm,,,3.0,C1D15,TREATMENT,2024-05-12,15
MS200095-0022-VISION,FA,MS200095-0022-VISION-USA_SITE02-0014,19,LDIAM,Longest Diameter,TARGET LESION 1,TUMOR ASSESSMENT,,16.9,mm,16.9,16.9,mm,,,4.0,C2D1,TREATMENT,2024-05-19,22
MS200095-0022-VISION,FA,MS200095-0022-VISION-USA_SITE02-0014,20,SAXIS,Short Axis,TARGET LESION 1,TUMOR ASSESSMENT,,27.0,mm,27.0,27.0,mm,,,4.0,C2D1,TREATMENT,2024-05-19,22
MS200095-0022-VISION,FA,MS200095-0022-VISION-USA_SITE02-0014,21,LDIAM,Longest Diameter,TARGET LESION 2,TUMOR ASSESSMENT,,7.5,mm,7.5,7.5,mm,,,4.0,C2D1,TREATMENT,2024-05-19,22
MS200095-0022-VISION,FA,MS200095-0022-VISION-USA_SITE02-0014,22,SAXIS,Short Axis,TARGET LESION 2,TUMOR ASSESSMENT,,9.8,mm,9.8,9.8,mm,,,4.0,C2D1,TREATMENT,2024-05-19,22
MS200095-0022-VISION,FA,MS200095-0022-VISION-USA_SITE02-0014,23,LDIAM,Longest Diameter,TARGET LESION 3,TUMOR ASSESSMENT,,54.9,mm,54.9,54.9,mm,,,4.0,C2D1,TREATMENT,2024-05-19,22
MS200095-0022-VISION,FA,MS200095-0022-VISION-USA_SITE02-0014,24,SAXIS,Short Axis,TARGET LESION 3,TUMOR ASSESSMENT,,14.7,mm,14.7,14.7,mm,,,4.0,C2D1,TREATMENT,2024-05-19,22
MS200095-0022-VISION,FA,MS200095-0022-VISION-USA_SITE02-0014,25,LDIAM,Longest Diameter,TARGET LESION 1,TUMOR ASSESSMENT,,17.9,mm,17.9,17.9,mm,,,5.0,C3D1,TREATMENT,2024-06-09,43
MS200095-0022-VISION,FA,MS200095-0022-VISION-USA_SITE02-0014,26,SAXIS,Short Axis,TARGET LESION 1,TUMOR ASSESSMENT,,26.4,mm,26.4,26.4,mm,,,5.0,C3D1,TREATMENT,2024-06-09,43
MS200095-0022-VISION,FA,MS200095-0022-VISION-USA_SITE02-0014,27,LDIAM,Longest Diameter,TARGET LESION 2,TUMOR ASSESSMENT,,5,mm,5,5.0,mm,,,5.0,C3D1,TREATMENT,2024-06-09,43
MS200095-0022-VISION,FA,MS200095-0022-VISION-USA_SITE02-0014,28,SAXIS,Short Axis,TARGET LESION 2,TUMOR ASSESSMENT,,9.5,mm,9.5,9.5,mm,,,5.0,C3D1,TREATMENT,2024-06-09,43
MS200095-0022-VISION,FA,MS200095-0022-VISION-USA_SITE02-0014,29,LDIAM,Longest Diameter,TARGET LESION 3,TUMOR ASSESSMENT,,48.2,mm,48.2,48.2,mm,,,5.0,C3D1,TREATMENT,2024-06-09,43
MS200095-0022-VISION,FA,MS200095-0022-VISION-USA_SITE02-0014,30,SAXIS,Short Axis,TARGET LESION 3,TUMOR ASSESSMENT,,14.4,mm,14.4,14.4,mm,,,5.0,C3D1,TREATMENT,2024-06-09,43
MS200095-0022-VISION,FA,MS200095-0022-VISION-USA_SITE02-0014,31,LDIAM,Longest Diameter,TARGET LESION 1,TUMOR ASSESSMENT,,18.6,mm,18.6,18.6,mm,,,6.0,C4D1,TREATMENT,2024-06-30,64
MS200095-0022-VISION,FA,MS200095-0022-VISION-USA_SITE02-0014,32,SAXIS,Short Axis,TARGET LESION 1,TUMOR ASSESSMENT,,26.0,mm,26.0,26.0,mm,,,6.0,C4D1,TREATMENT,2024-06-30,64
MS200095-0022-VISION,FA,MS200095-0022-VISION-USA_SITE02-0014,33,LDIAM,Longest Diameter,TARGET LESION 2,TUMOR ASSESSMENT,,5,mm,5,5.0,mm,,,6.0,C4D1,TREATMENT,2024-06-30,64
MS200095-0022-VISION,FA,MS200095-0022-VISION-USA_SITE02-0014,34,SAXIS,Short Axis,TARGET LESION 2,TUMOR ASSESSMENT,,9.0,mm,9.0,9.0,mm,,,6.0,C4D1,TREATMENT,2024-06-30,64
MS200095-0022-VISION,FA,MS200095-0022-VISION-USA_SITE02-0014,35,LDIAM,Longest Diameter,TARGET LESION 3,TUMOR ASSESSMENT,,47.4,mm,47.4,47.4,mm,,,6.0,C4D1,TREATMENT,2024-06-30,64
MS200095-0022-VISION,FA,MS200095-0022-VISION-USA_SITE02-0014,36,SAXIS,Short Axis,TARGET LESION 3,TUMOR ASSESSMENT,,13.7,mm,13.7,13.7,mm,,,6.0,C4D1,TREATMENT,2024-06-30,64
MS200095-0022-VISION,FA,MS200095-0022-VISION-USA_SITE02-0014,37,LDIAM,Longest Diameter,TARGET LESION 1,TUMOR ASSESSMENT,,18.4,mm,18.4,18.4,mm,,,7.0,C6D1,TREATMENT,2024-08-11,106
MS200095-0022-VISION,FA,MS200095-0022-VISION-USA_SITE02-0014,38,SAXIS,Short Axis,TARGET LESION 1,TUMOR ASSESSMENT,,26.2,mm,26.2,26.2,mm,,,7.0,C6D1,TREATMENT,2024-08-11,106
MS200095-0022-VISION,FA,MS200095-0022-VISION-USA_SITE02-0014,39,LDIAM,Longest Diameter,TARGET LESION 2,TUMOR ASSESSMENT,,5.4,mm,5.4,5.4,mm,,,7.0,C6D1,TREATMENT,2024-08-11,106
MS200095-0022-VISION,FA,MS200095-0022-VISION-USA_SITE02-0014,40,SAXIS,Short Axis,TARGET LESION 2,TUMOR ASSESSMENT,,9.1,mm,9.1,9.1,mm,,,7.0,C6D1,TREATMENT,2024-08-11,106
MS200095-0022-VISION,FA,MS200095-0022-VISION-USA_SITE02-0014,41,LDIAM,Longest Diameter,TARGET LESION 3,TUMOR ASSESSMENT,,52.2,mm,52.2,52.2,mm,,,7.0,C6D1,TREATMENT,2024-08-11,106
MS200095-0022-VISION,FA,MS200095-0022-VISION-USA_SITE02-0014,42,SAXIS,Short Axis,TARGET LESION 3,TUMOR ASSESSMENT,,13.6,mm,13.6,13.6,mm,,,7.0,C6D1,TREATMENT,2024-08-11,106
MS200095-0022-VISION,FA,MS200095-0022-VISION-USA_SITE02-0014,43,LDIAM,Longest Diameter,TARGET LESION 1,TUMOR ASSESSMENT,,18.7,mm,18.7,18.7,mm,,,8.0,C8D1,TREATMENT,2024-09-22,148
MS200095-0022-VISION,FA,MS200095-0022-VISION-USA_SITE02-0014,44,SAXIS,Short Axis,TARGET LESION 1,TUMOR ASSESSMENT,,24.3,mm,24.3,24.3,mm,,,8.0,C8D1,TREATMENT,2024-09-22,148
MS200095-0022-VISION,FA,MS200095-0022-VISION-USA_SITE02-0014,45,LDIAM,Longest Diameter,TARGET LESION 2,TUMOR ASSESSMENT,,5,mm,5,5.0,mm,,,8.0,C8D1,TREATMENT,2024-09-22,148
MS200095-0022-VISION,FA,MS200095-0022-VISION-USA_SITE02-0014,46,SAXIS,Short Axis,TARGET LESION 2,TUMOR ASSESSMENT,,9.2,mm,9.2,9.2,mm,,,8.0,C8D1,TREATMENT,2024-09-22,148
MS200095-0022-VISION,FA,MS200095-0022-VISION-USA_SITE02-0014,47,LDIAM,Longest Diameter,TARGET LESION 3,TUMOR ASSESSMENT,,48.8,mm,48.8,48.8,mm,,,8.0,C8D1,TREATMENT,2024-09-22,148
MS200095-0022-VISION,FA,MS200095-0022-VISION-USA_SITE02-0014,48,SAXIS,Short Axis,TARGET LESION 3,TUMOR ASSESSMENT,,13.6,mm,13.6,13.6,mm,,,8.0,C8D1,TREATMENT,2024-09-22,148
MS200095-0022-VISION,FA,MS200095-0022-VISION-USA_SITE02-0014,49,LDIAM,Longest Diameter,TARGET LESION 1,TUMOR ASSESSMENT,,17.4,mm,17.4,17.4,mm,,,9.0,C12D1,TREATMENT,2024-12-15,232
MS200095-0022-VISION,FA,MS200095-0022-VISION-USA_SITE02-0014,50,SAXIS,Short Axis,TARGET LESION 1,TUMOR ASSESSMENT,,25.7,mm,25.7,25.7,mm,,,9.0,C12D1,TREATMENT,2024-12-15,232
MS200095-0022-VISION,FA,MS200095-0022-VISION-USA_SITE02-0014,51,LDIAM,Longest Diameter,TARGET LESION 2,TUMOR ASSESSMENT,,5.5,mm,5.5,5.5,mm,,,9.0,C12D1,TREATMENT,2024-12-15,232
MS200095-0022-VISION,FA,MS200095-0022-VISION-USA_SITE02-0014,52,SAXIS,Short Axis,TARGET LESION 2,TUMOR ASSESSMENT,,9.8,mm,9.8,9.8,mm,,,9.0,C12D1,TREATMENT,2024-12-15,232
MS200095-0022-VISION,FA,MS200095-0022-VISION-USA_SITE02-0014,53,LDIAM,Longest Diameter,TARGET LESION 3,TUMOR ASSESSMENT,,47.1,mm,47.1,47.1,mm,,,9.0,C12D1,TREATMENT,2024-12-15,232
MS200095-0022-VISION,FA,MS200095-0022-VISION-USA_SITE02-0014,54,SAXIS,Short Axis,TARGET LESION 3,TUMOR ASSESSMENT,,13.9,mm,13.9,13.9,mm,,,9.0,C12D1,TREATMENT,2024-12-15,232
