STUDYID,DOMAIN,USUBJID,IESEQ,IETESTCD,IETEST,IECAT,IEORRES,IESTRESC,VISITNUM,VISIT,EPOCH,IEDTC,IEDY
MS200095-0022-VISION,IE,MS200095-0022-VISION-DEU_SITE01-0004,1,INCL03,Subject meets diagnosis criteria for the study indication,INCLUSION,N,N,1.0,SCREENING,SCREENING,2024-02-10,
MS200095-0022-VISION,IE,MS200095-0022-VISION-JPN_SITE02-0020,1,EXCL04,Subject has uncontrolled concurrent illness,EXCLUSION,Y,Y,1.0,SCREENING,SCREENING,2024-01-22,
