{
  "generated_at": "2026-06-30T07:17:14.876521",
  "seed": 42,
  "mode": "compound",
  "source_dir": "/tmp/sdtm_uploads_uk60457n",
  "profile": "all",
  "rate": 0.05,
  "density_cap": 5,
  "rules_available": 467,
  "rules_injectable": 18,
  "rules_skipped": 0,
  "rules_injected": 18,
  "total_mutations": 69,
  "skipped_rules": [],
  "errors": [
    {
      "error_id": "INJ-SD2005-DM-001",
      "rule_id": "SD2005",
      "rule_message": "Missing value for DTHDTC, when DTHFL is populated",
      "category": "DTC1",
      "primitive": "blank_field",
      "domain": "DM",
      "usubjid": "MS200095-0022-VISION-JPN_SITE02-0037",
      "row_index": 38,
      "csv_line": 40,
      "seq_value": null,
      "variables_modified": {
        "DTHDTC": {
          "original": "2024-12-11",
          "injected": ""
        }
      },
      "re_derived": {},
      "expected_co_violations": [],
      "notes": null,
      "status": "injected",
      "failure_reason": null,
      "clean_row_index": 38
    },
    {
      "error_id": "INJ-SD1366-DM-001",
      "rule_id": "SD1366",
      "rule_message": "RFENDTC is populated when ARMNRS is not null",
      "category": "DTC1",
      "primitive": "populate_forbidden",
      "domain": "DM",
      "usubjid": "MS200095-0022-VISION-JPN_SITE02-0020",
      "row_index": 35,
      "csv_line": 37,
      "seq_value": null,
      "variables_modified": {
        "RFENDTC": {
          "original": "",
          "injected": "2024-01-01"
        }
      },
      "re_derived": {},
      "expected_co_violations": [],
      "notes": null,
      "status": "injected",
      "failure_reason": null,
      "clean_row_index": 35
    },
    {
      "error_id": "INJ-SD1373-DM-001",
      "rule_id": "SD1373",
      "rule_message": "RFSTDTC is populated for subject who did not receive treatment",
      "category": "DTC1",
      "primitive": "populate_forbidden",
      "domain": "DM",
      "usubjid": "MS200095-0022-VISION-FRA_SITE01-0034",
      "row_index": 20,
      "csv_line": 22,
      "seq_value": null,
      "variables_modified": {
        "RFSTDTC": {
          "original": "",
          "injected": "2024-01-01"
        }
      },
      "re_derived": {},
      "expected_co_violations": [],
      "notes": null,
      "status": "injected",
      "failure_reason": null,
      "clean_row_index": 20
    },
    {
      "error_id": "INJ-SD0087-DM-001",
      "rule_id": "SD0087",
      "rule_message": "RFSTDTC is not provided for a randomized subject",
      "category": "DTC1",
      "primitive": "blank_field",
      "domain": "DM",
      "usubjid": "MS200095-0022-VISION-CHN_SITE01-0039",
      "row_index": 3,
      "csv_line": 5,
      "seq_value": null,
      "variables_modified": {
        "RFSTDTC": {
          "original": "2024-03-21",
          "injected": ""
        }
      },
      "re_derived": {},
      "expected_co_violations": [],
      "notes": null,
      "status": "injected",
      "failure_reason": null,
      "clean_row_index": 3
    },
    {
      "error_id": "INJ-SD0087-DM-002",
      "rule_id": "SD0087",
      "rule_message": "RFSTDTC is not provided for a randomized subject",
      "category": "DTC1",
      "primitive": "blank_field",
      "domain": "DM",
      "usubjid": "MS200095-0022-VISION-USA_SITE01-0018",
      "row_index": 41,
      "csv_line": 43,
      "seq_value": null,
      "variables_modified": {
        "RFSTDTC": {
          "original": "2024-03-13",
          "injected": ""
        }
      },
      "re_derived": {},
      "expected_co_violations": [],
      "notes": null,
      "status": "injected",
      "failure_reason": null,
      "clean_row_index": 41
    },
    {
      "error_id": "INJ-SD0087-DM-003",
      "rule_id": "SD0087",
      "rule_message": "RFSTDTC is not provided for a randomized subject",
      "category": "DTC1",
      "primitive": "blank_field",
      "domain": "DM",
      "usubjid": "MS200095-0022-VISION-JPN_SITE02-0024",
      "row_index": 36,
      "csv_line": 38,
      "seq_value": null,
      "variables_modified": {
        "RFSTDTC": {
          "original": "2024-05-10",
          "injected": ""
        }
      },
      "re_derived": {},
      "expected_co_violations": [],
      "notes": null,
      "status": "injected",
      "failure_reason": null,
      "clean_row_index": 36
    },
    {
      "error_id": "INJ-SD0087-DM-004",
      "rule_id": "SD0087",
      "rule_message": "RFSTDTC is not provided for a randomized subject",
      "category": "DTC1",
      "primitive": "blank_field",
      "domain": "DM",
      "usubjid": "MS200095-0022-VISION-FRA_SITE01-0046",
      "row_index": 21,
      "csv_line": 23,
      "seq_value": null,
      "variables_modified": {
        "RFSTDTC": {
          "original": "2024-04-11",
          "injected": ""
        }
      },
      "re_derived": {},
      "expected_co_violations": [],
      "notes": null,
      "status": "injected",
      "failure_reason": null,
      "clean_row_index": 21
    },
    {
      "error_id": "INJ-SD0087-DM-005",
      "rule_id": "SD0087",
      "rule_message": "RFSTDTC is not provided for a randomized subject",
      "category": "DTC1",
      "primitive": "blank_field",
      "domain": "DM",
      "usubjid": "MS200095-0022-VISION-USA_SITE02-0014",
      "row_index": 46,
      "csv_line": 48,
      "seq_value": null,
      "variables_modified": {
        "RFSTDTC": {
          "original": "2024-04-28",
          "injected": ""
        }
      },
      "re_derived": {},
      "expected_co_violations": [],
      "notes": null,
      "status": "injected",
      "failure_reason": null,
      "clean_row_index": 46
    },
    {
      "error_id": "INJ-SD0088-DM-001",
      "rule_id": "SD0088",
      "rule_message": "RFENDTC is not provided for a randomized subject",
      "category": "DTC1",
      "primitive": "blank_field",
      "domain": "DM",
      "usubjid": "MS200095-0022-VISION-ITA_SITE01-0011",
      "row_index": 26,
      "csv_line": 28,
      "seq_value": null,
      "variables_modified": {
        "RFENDTC": {
          "original": "2025-08-10",
          "injected": ""
        }
      },
      "re_derived": {},
      "expected_co_violations": [],
      "notes": null,
      "status": "injected",
      "failure_reason": null,
      "clean_row_index": 26
    },
    {
      "error_id": "INJ-SD0088-DM-002",
      "rule_id": "SD0088",
      "rule_message": "RFENDTC is not provided for a randomized subject",
      "category": "DTC1",
      "primitive": "blank_field",
      "domain": "DM",
      "usubjid": "MS200095-0022-VISION-JPN_SITE02-0019",
      "row_index": 34,
      "csv_line": 36,
      "seq_value": null,
      "variables_modified": {
        "RFENDTC": {
          "original": "2025-09-07",
          "injected": ""
        }
      },
      "re_derived": {},
      "expected_co_violations": [],
      "notes": null,
      "status": "injected",
      "failure_reason": null,
      "clean_row_index": 34
    },
    {
      "error_id": "INJ-SD0088-DM-003",
      "rule_id": "SD0088",
      "rule_message": "RFENDTC is not provided for a randomized subject",
      "category": "DTC1",
      "primitive": "blank_field",
      "domain": "DM",
      "usubjid": "MS200095-0022-VISION-JPN_SITE02-0024",
      "row_index": 36,
      "csv_line": 38,
      "seq_value": null,
      "variables_modified": {
        "RFENDTC": {
          "original": "2025-11-22",
          "injected": ""
        }
      },
      "re_derived": {},
      "expected_co_violations": [],
      "notes": null,
      "status": "injected",
      "failure_reason": null,
      "clean_row_index": 36
    },
    {
      "error_id": "INJ-SD0088-DM-004",
      "rule_id": "SD0088",
      "rule_message": "RFENDTC is not provided for a randomized subject",
      "category": "DTC1",
      "primitive": "blank_field",
      "domain": "DM",
      "usubjid": "MS200095-0022-VISION-KOR_SITE01-0025",
      "row_index": 39,
      "csv_line": 41,
      "seq_value": null,
      "variables_modified": {
        "RFENDTC": {
          "original": "2024-11-20",
          "injected": ""
        }
      },
      "re_derived": {},
      "expected_co_violations": [],
      "notes": null,
      "status": "injected",
      "failure_reason": null,
      "clean_row_index": 39
    },
    {
      "error_id": "INJ-SD0088-DM-005",
      "rule_id": "SD0088",
      "rule_message": "RFENDTC is not provided for a randomized subject",
      "category": "DTC1",
      "primitive": "blank_field",
      "domain": "DM",
      "usubjid": "MS200095-0022-VISION-JPN_SITE02-0017",
      "row_index": 33,
      "csv_line": 35,
      "seq_value": null,
      "variables_modified": {
        "RFENDTC": {
          "original": "2025-10-08",
          "injected": ""
        }
      },
      "re_derived": {},
      "expected_co_violations": [],
      "notes": null,
      "status": "injected",
      "failure_reason": null,
      "clean_row_index": 33
    },
    {
      "error_id": "INJ-SD1209-DM-001",
      "rule_id": "SD1209",
      "rule_message": "Missing value for RFXENDTC, when RFXSTDTC is provided",
      "category": "DTC1",
      "primitive": "blank_field",
      "domain": "DM",
      "usubjid": "MS200095-0022-VISION-JPN_SITE02-0012",
      "row_index": 32,
      "csv_line": 34,
      "seq_value": null,
      "variables_modified": {
        "RFXENDTC": {
          "original": "2024-10-13",
          "injected": ""
        }
      },
      "re_derived": {},
      "expected_co_violations": [],
      "notes": null,
      "status": "injected",
      "failure_reason": null,
      "clean_row_index": 32
    },
    {
      "error_id": "INJ-SD1209-DM-002",
      "rule_id": "SD1209",
      "rule_message": "Missing value for RFXENDTC, when RFXSTDTC is provided",
      "category": "DTC1",
      "primitive": "blank_field",
      "domain": "DM",
      "usubjid": "MS200095-0022-VISION-FRA_SITE01-0013",
      "row_index": 17,
      "csv_line": 19,
      "seq_value": null,
      "variables_modified": {
        "RFXENDTC": {
          "original": "2024-03-24",
          "injected": ""
        }
      },
      "re_derived": {},
      "expected_co_violations": [],
      "notes": null,
      "status": "injected",
      "failure_reason": null,
      "clean_row_index": 17
    },
    {
      "error_id": "INJ-SD1209-DM-003",
      "rule_id": "SD1209",
      "rule_message": "Missing value for RFXENDTC, when RFXSTDTC is provided",
      "category": "DTC1",
      "primitive": "blank_field",
      "domain": "DM",
      "usubjid": "MS200095-0022-VISION-DEU_SITE01-0029",
      "row_index": 8,
      "csv_line": 10,
      "seq_value": null,
      "variables_modified": {
        "RFXENDTC": {
          "original": "2025-04-08",
          "injected": ""
        }
      },
      "re_derived": {},
      "expected_co_violations": [],
      "notes": null,
      "status": "injected",
      "failure_reason": null,
      "clean_row_index": 8
    },
    {
      "error_id": "INJ-SD1209-DM-004",
      "rule_id": "SD1209",
      "rule_message": "Missing value for RFXENDTC, when RFXSTDTC is provided",
      "category": "DTC1",
      "primitive": "blank_field",
      "domain": "DM",
      "usubjid": "MS200095-0022-VISION-KOR_SITE01-0025",
      "row_index": 39,
      "csv_line": 41,
      "seq_value": null,
      "variables_modified": {
        "RFXENDTC": {
          "original": "2024-07-10",
          "injected": ""
        }
      },
      "re_derived": {},
      "expected_co_violations": [],
      "notes": null,
      "status": "injected",
      "failure_reason": null,
      "clean_row_index": 39
    },
    {
      "error_id": "INJ-SD1209-DM-005",
      "rule_id": "SD1209",
      "rule_message": "Missing value for RFXENDTC, when RFXSTDTC is provided",
      "category": "DTC1",
      "primitive": "blank_field",
      "domain": "DM",
      "usubjid": "MS200095-0022-VISION-USA_SITE01-0041",
      "row_index": 44,
      "csv_line": 46,
      "seq_value": null,
      "variables_modified": {
        "RFXENDTC": {
          "original": "2025-06-01",
          "injected": ""
        }
      },
      "re_derived": {},
      "expected_co_violations": [],
      "notes": null,
      "status": "injected",
      "failure_reason": null,
      "clean_row_index": 44
    },
    {
      "error_id": "INJ-SD1213-DM-001",
      "rule_id": "SD1213",
      "rule_message": "RFSTDTC is not provided for a treated subject",
      "category": "DTC1",
      "primitive": "blank_field",
      "domain": "DM",
      "usubjid": "MS200095-0022-VISION-DEU_SITE01-0042",
      "row_index": 10,
      "csv_line": 12,
      "seq_value": null,
      "variables_modified": {
        "RFSTDTC": {
          "original": "2024-01-31",
          "injected": ""
        }
      },
      "re_derived": {},
      "expected_co_violations": [],
      "notes": null,
      "status": "injected",
      "failure_reason": null,
      "clean_row_index": 10
    },
    {
      "error_id": "INJ-SD1213-DM-002",
      "rule_id": "SD1213",
      "rule_message": "RFSTDTC is not provided for a treated subject",
      "category": "DTC1",
      "primitive": "blank_field",
      "domain": "DM",
      "usubjid": "MS200095-0022-VISION-USA_SITE01-0041",
      "row_index": 44,
      "csv_line": 46,
      "seq_value": null,
      "variables_modified": {
        "RFSTDTC": {
          "original": "2024-03-22",
          "injected": ""
        }
      },
      "re_derived": {},
      "expected_co_violations": [],
      "notes": null,
      "status": "injected",
      "failure_reason": null,
      "clean_row_index": 44
    },
    {
      "error_id": "INJ-SD1213-DM-003",
      "rule_id": "SD1213",
      "rule_message": "RFSTDTC is not provided for a treated subject",
      "category": "DTC1",
      "primitive": "blank_field",
      "domain": "DM",
      "usubjid": "MS200095-0022-VISION-CHN_SITE01-0043",
      "row_index": 4,
      "csv_line": 6,
      "seq_value": null,
      "variables_modified": {
        "RFSTDTC": {
          "original": "2024-04-19",
          "injected": ""
        }
      },
      "re_derived": {},
      "expected_co_violations": [],
      "notes": null,
      "status": "injected",
      "failure_reason": null,
      "clean_row_index": 4
    },
    {
      "error_id": "INJ-SD1213-DM-004",
      "rule_id": "SD1213",
      "rule_message": "RFSTDTC is not provided for a treated subject",
      "category": "DTC1",
      "primitive": "blank_field",
      "domain": "DM",
      "usubjid": "MS200095-0022-VISION-ITA_SITE01-0027",
      "row_index": 27,
      "csv_line": 29,
      "seq_value": null,
      "variables_modified": {
        "RFSTDTC": {
          "original": "2024-02-23",
          "injected": ""
        }
      },
      "re_derived": {},
      "expected_co_violations": [],
      "notes": null,
      "status": "injected",
      "failure_reason": null,
      "clean_row_index": 27
    },
    {
      "error_id": "INJ-SD1342-DM-001",
      "rule_id": "SD1342",
      "rule_message": "Missing value for RFXSTDTC, when RFXENDTC is provided",
      "category": "DTC1",
      "primitive": "blank_field",
      "domain": "DM",
      "usubjid": "MS200095-0022-VISION-JPN_SITE02-0026",
      "row_index": 37,
      "csv_line": 39,
      "seq_value": null,
      "variables_modified": {
        "RFXSTDTC": {
          "original": "2024-05-01",
          "injected": ""
        }
      },
      "re_derived": {},
      "expected_co_violations": [],
      "notes": null,
      "status": "injected",
      "failure_reason": null,
      "clean_row_index": 37
    },
    {
      "error_id": "INJ-SD1342-DM-002",
      "rule_id": "SD1342",
      "rule_message": "Missing value for RFXSTDTC, when RFXENDTC is provided",
      "category": "DTC1",
      "primitive": "blank_field",
      "domain": "DM",
      "usubjid": "MS200095-0022-VISION-JPN_SITE02-0019",
      "row_index": 34,
      "csv_line": 36,
      "seq_value": null,
      "variables_modified": {
        "RFXSTDTC": {
          "original": "2024-02-24",
          "injected": ""
        }
      },
      "re_derived": {},
      "expected_co_violations": [],
      "notes": null,
      "status": "injected",
      "failure_reason": null,
      "clean_row_index": 34
    },
    {
      "error_id": "INJ-SD1342-DM-003",
      "rule_id": "SD1342",
      "rule_message": "Missing value for RFXSTDTC, when RFXENDTC is provided",
      "category": "DTC1",
      "primitive": "blank_field",
      "domain": "DM",
      "usubjid": "MS200095-0022-VISION-JPN_SITE01-0032",
      "row_index": 29,
      "csv_line": 31,
      "seq_value": null,
      "variables_modified": {
        "RFXSTDTC": {
          "original": "2024-04-22",
          "injected": ""
        }
      },
      "re_derived": {},
      "expected_co_violations": [],
      "notes": null,
      "status": "injected",
      "failure_reason": null,
      "clean_row_index": 29
    },
    {
      "error_id": "INJ-SD1342-DM-004",
      "rule_id": "SD1342",
      "rule_message": "Missing value for RFXSTDTC, when RFXENDTC is provided",
      "category": "DTC1",
      "primitive": "blank_field",
      "domain": "DM",
      "usubjid": "MS200095-0022-VISION-DEU_SITE01-0009",
      "row_index": 7,
      "csv_line": 9,
      "seq_value": null,
      "variables_modified": {
        "RFXSTDTC": {
          "original": "2024-02-07",
          "injected": ""
        }
      },
      "re_derived": {},
      "expected_co_violations": [],
      "notes": null,
      "status": "injected",
      "failure_reason": null,
      "clean_row_index": 7
    },
    {
      "error_id": "INJ-SD1343-DM-001",
      "rule_id": "SD1343",
      "rule_message": "Missing value for RFXSTDTC, when subject is treated",
      "category": "DTC1",
      "primitive": "blank_field",
      "domain": "DM",
      "usubjid": "MS200095-0022-VISION-JPN_SITE02-0012",
      "row_index": 32,
      "csv_line": 34,
      "seq_value": null,
      "variables_modified": {
        "RFXSTDTC": {
          "original": "2024-02-09",
          "injected": ""
        }
      },
      "re_derived": {},
      "expected_co_violations": [],
      "notes": null,
      "status": "injected",
      "failure_reason": null,
      "clean_row_index": 32
    },
    {
      "error_id": "INJ-SD1343-DM-002",
      "rule_id": "SD1343",
      "rule_message": "Missing value for RFXSTDTC, when subject is treated",
      "category": "DTC1",
      "primitive": "blank_field",
      "domain": "DM",
      "usubjid": "MS200095-0022-VISION-JPN_SITE02-0037",
      "row_index": 38,
      "csv_line": 40,
      "seq_value": null,
      "variables_modified": {
        "RFXSTDTC": {
          "original": "2024-02-25",
          "injected": ""
        }
      },
      "re_derived": {},
      "expected_co_violations": [],
      "notes": null,
      "status": "injected",
      "failure_reason": null,
      "clean_row_index": 38
    },
    {
      "error_id": "INJ-SD1343-DM-003",
      "rule_id": "SD1343",
      "rule_message": "Missing value for RFXSTDTC, when subject is treated",
      "category": "DTC1",
      "primitive": "blank_field",
      "domain": "DM",
      "usubjid": "MS200095-0022-VISION-KOR_SITE01-0025",
      "row_index": 39,
      "csv_line": 41,
      "seq_value": null,
      "variables_modified": {
        "RFXSTDTC": {
          "original": "2024-04-11",
          "injected": ""
        }
      },
      "re_derived": {},
      "expected_co_violations": [],
      "notes": null,
      "status": "injected",
      "failure_reason": null,
      "clean_row_index": 39
    },
    {
      "error_id": "INJ-SD1343-DM-004",
      "rule_id": "SD1343",
      "rule_message": "Missing value for RFXSTDTC, when subject is treated",
      "category": "DTC1",
      "primitive": "blank_field",
      "domain": "DM",
      "usubjid": "MS200095-0022-VISION-USA_SITE01-0022",
      "row_index": 42,
      "csv_line": 44,
      "seq_value": null,
      "variables_modified": {
        "RFXSTDTC": {
          "original": "2024-02-19",
          "injected": ""
        }
      },
      "re_derived": {},
      "expected_co_violations": [],
      "notes": null,
      "status": "injected",
      "failure_reason": null,
      "clean_row_index": 42
    },
    {
      "error_id": "INJ-SD1343-DM-005",
      "rule_id": "SD1343",
      "rule_message": "Missing value for RFXSTDTC, when subject is treated",
      "category": "DTC1",
      "primitive": "blank_field",
      "domain": "DM",
      "usubjid": "MS200095-0022-VISION-FRA_SITE01-0046",
      "row_index": 21,
      "csv_line": 23,
      "seq_value": null,
      "variables_modified": {
        "RFXSTDTC": {
          "original": "2024-04-11",
          "injected": ""
        }
      },
      "re_derived": {},
      "expected_co_violations": [],
      "notes": null,
      "status": "injected",
      "failure_reason": null,
      "clean_row_index": 21
    },
    {
      "error_id": "INJ-SD1376-DM-001",
      "rule_id": "SD1376",
      "rule_message": "RFENDTC is not provided for a treated subject",
      "category": "DTC1",
      "primitive": "blank_field",
      "domain": "DM",
      "usubjid": "MS200095-0022-VISION-CHN_SITE01-0015",
      "row_index": 1,
      "csv_line": 3,
      "seq_value": null,
      "variables_modified": {
        "RFENDTC": {
          "original": "2025-11-15",
          "injected": ""
        }
      },
      "re_derived": {},
      "expected_co_violations": [],
      "notes": null,
      "status": "injected",
      "failure_reason": null,
      "clean_row_index": 1
    },
    {
      "error_id": "INJ-SD1376-DM-002",
      "rule_id": "SD1376",
      "rule_message": "RFENDTC is not provided for a treated subject",
      "category": "DTC1",
      "primitive": "blank_field",
      "domain": "DM",
      "usubjid": "MS200095-0022-VISION-JPN_SITE02-0026",
      "row_index": 37,
      "csv_line": 39,
      "seq_value": null,
      "variables_modified": {
        "RFENDTC": {
          "original": "2024-09-10",
          "injected": ""
        }
      },
      "re_derived": {},
      "expected_co_violations": [],
      "notes": null,
      "status": "injected",
      "failure_reason": null,
      "clean_row_index": 37
    },
    {
      "error_id": "INJ-SD1376-DM-003",
      "rule_id": "SD1376",
      "rule_message": "RFENDTC is not provided for a treated subject",
      "category": "DTC1",
      "primitive": "blank_field",
      "domain": "DM",
      "usubjid": "MS200095-0022-VISION-DEU_SITE01-0009",
      "row_index": 7,
      "csv_line": 9,
      "seq_value": null,
      "variables_modified": {
        "RFENDTC": {
          "original": "2025-08-21",
          "injected": ""
        }
      },
      "re_derived": {},
      "expected_co_violations": [],
      "notes": null,
      "status": "injected",
      "failure_reason": null,
      "clean_row_index": 7
    },
    {
      "error_id": "INJ-SD0083-DM-001",
      "rule_id": "SD0083",
      "rule_message": "Duplicate USUBJID in DM within STUDYID",
      "category": "DM02",
      "primitive": "duplicate_record",
      "domain": "DM",
      "usubjid": "MS200095-0022-VISION-ESP_SITE01-0045",
      "row_index": 15,
      "csv_line": 17,
      "seq_value": null,
      "variables_modified": {
        "__row__": {
          "original": "unique",
          "injected": "duplicated"
        }
      },
      "re_derived": {},
      "expected_co_violations": [],
      "notes": "duplicated key_fields=['STUDYID', 'USUBJID']",
      "status": "injected",
      "failure_reason": null,
      "clean_row_index": 15
    },
    {
      "error_id": "INJ-SD0083-DM-002",
      "rule_id": "SD0083",
      "rule_message": "Duplicate USUBJID in DM within STUDYID",
      "category": "DM02",
      "primitive": "duplicate_record",
      "domain": "DM",
      "usubjid": "MS200095-0022-VISION-CHN_SITE01-0039",
      "row_index": 3,
      "csv_line": 5,
      "seq_value": null,
      "variables_modified": {
        "__row__": {
          "original": "unique",
          "injected": "duplicated"
        }
      },
      "re_derived": {},
      "expected_co_violations": [],
      "notes": "duplicated key_fields=['STUDYID', 'USUBJID']",
      "status": "injected",
      "failure_reason": null,
      "clean_row_index": 3
    },
    {
      "error_id": "INJ-SD0083-DM-003",
      "rule_id": "SD0083",
      "rule_message": "Duplicate USUBJID in DM within STUDYID",
      "category": "DM02",
      "primitive": "duplicate_record",
      "domain": "DM",
      "usubjid": "MS200095-0022-VISION-FRA_SITE01-0028",
      "row_index": 18,
      "csv_line": 20,
      "seq_value": null,
      "variables_modified": {
        "__row__": {
          "original": "unique",
          "injected": "duplicated"
        }
      },
      "re_derived": {},
      "expected_co_violations": [],
      "notes": "duplicated key_fields=['STUDYID', 'USUBJID']",
      "status": "injected",
      "failure_reason": null,
      "clean_row_index": 18
    },
    {
      "error_id": "INJ-SD0083-DM-004",
      "rule_id": "SD0083",
      "rule_message": "Duplicate USUBJID in DM within STUDYID",
      "category": "DM02",
      "primitive": "duplicate_record",
      "domain": "DM",
      "usubjid": "MS200095-0022-VISION-USA_SITE02-0023",
      "row_index": 48,
      "csv_line": 50,
      "seq_value": null,
      "variables_modified": {
        "__row__": {
          "original": "unique",
          "injected": "duplicated"
        }
      },
      "re_derived": {},
      "expected_co_violations": [],
      "notes": "duplicated key_fields=['STUDYID', 'USUBJID']",
      "status": "injected",
      "failure_reason": null,
      "clean_row_index": 48
    },
    {
      "error_id": "INJ-SD0083-DM-005",
      "rule_id": "SD0083",
      "rule_message": "Duplicate USUBJID in DM within STUDYID",
      "category": "DM02",
      "primitive": "duplicate_record",
      "domain": "DM",
      "usubjid": "MS200095-0022-VISION-USA_SITE01-0031",
      "row_index": 43,
      "csv_line": 45,
      "seq_value": null,
      "variables_modified": {
        "__row__": {
          "original": "unique",
          "injected": "duplicated"
        }
      },
      "re_derived": {},
      "expected_co_violations": [],
      "notes": "duplicated key_fields=['STUDYID', 'USUBJID']",
      "status": "injected",
      "failure_reason": null,
      "clean_row_index": 43
    },
    {
      "error_id": "INJ-SD1001-DM-001",
      "rule_id": "SD1001",
      "rule_message": "Duplicate SUBJID",
      "category": "DM01",
      "primitive": "duplicate_record",
      "domain": "DM",
      "usubjid": "MS200095-0022-VISION-GBR_SITE01-0040",
      "row_index": 24,
      "csv_line": 26,
      "seq_value": null,
      "variables_modified": {
        "__row__": {
          "original": "unique",
          "injected": "duplicated"
        }
      },
      "re_derived": {},
      "expected_co_violations": [],
      "notes": "duplicated key_fields=['STUDYID', 'SUBJID']",
      "status": "injected",
      "failure_reason": null,
      "clean_row_index": 24
    },
    {
      "error_id": "INJ-SD1001-DM-002",
      "rule_id": "SD1001",
      "rule_message": "Duplicate SUBJID",
      "category": "DM01",
      "primitive": "duplicate_record",
      "domain": "DM",
      "usubjid": "MS200095-0022-VISION-FRA_SITE01-0013",
      "row_index": 17,
      "csv_line": 19,
      "seq_value": null,
      "variables_modified": {
        "__row__": {
          "original": "unique",
          "injected": "duplicated"
        }
      },
      "re_derived": {},
      "expected_co_violations": [],
      "notes": "duplicated key_fields=['STUDYID', 'SUBJID']",
      "status": "injected",
      "failure_reason": null,
      "clean_row_index": 17
    },
    {
      "error_id": "INJ-SD1001-DM-003",
      "rule_id": "SD1001",
      "rule_message": "Duplicate SUBJID",
      "category": "DM01",
      "primitive": "duplicate_record",
      "domain": "DM",
      "usubjid": "MS200095-0022-VISION-DEU_SITE01-0004",
      "row_index": 6,
      "csv_line": 8,
      "seq_value": null,
      "variables_modified": {
        "__row__": {
          "original": "unique",
          "injected": "duplicated"
        }
      },
      "re_derived": {},
      "expected_co_violations": [],
      "notes": "duplicated key_fields=['STUDYID', 'SUBJID']",
      "status": "injected",
      "failure_reason": null,
      "clean_row_index": 6
    },
    {
      "error_id": "INJ-SD1001-DM-004",
      "rule_id": "SD1001",
      "rule_message": "Duplicate SUBJID",
      "category": "DM01",
      "primitive": "duplicate_record",
      "domain": "DM",
      "usubjid": "MS200095-0022-VISION-JPN_SITE02-0020",
      "row_index": 35,
      "csv_line": 37,
      "seq_value": null,
      "variables_modified": {
        "__row__": {
          "original": "unique",
          "injected": "duplicated"
        }
      },
      "re_derived": {},
      "expected_co_violations": [],
      "notes": "duplicated key_fields=['STUDYID', 'SUBJID']",
      "status": "injected",
      "failure_reason": null,
      "clean_row_index": 35
    },
    {
      "error_id": "INJ-SD1001-DM-005",
      "rule_id": "SD1001",
      "rule_message": "Duplicate SUBJID",
      "category": "DM01",
      "primitive": "duplicate_record",
      "domain": "DM",
      "usubjid": "MS200095-0022-VISION-JPN_SITE02-0010",
      "row_index": 31,
      "csv_line": 33,
      "seq_value": null,
      "variables_modified": {
        "__row__": {
          "original": "unique",
          "injected": "duplicated"
        }
      },
      "re_derived": {},
      "expected_co_violations": [],
      "notes": "duplicated key_fields=['STUDYID', 'SUBJID']",
      "status": "injected",
      "failure_reason": null,
      "clean_row_index": 31
    },
    {
      "error_id": "INJ-SD1001-DM-006",
      "rule_id": "SD1001",
      "rule_message": "Duplicate SUBJID",
      "category": "DM01",
      "primitive": "duplicate_record",
      "domain": "DM",
      "usubjid": "MS200095-0022-VISION-DEU_SITE01-0050",
      "row_index": 12,
      "csv_line": 14,
      "seq_value": null,
      "variables_modified": {
        "__row__": {
          "original": "unique",
          "injected": "duplicated"
        }
      },
      "re_derived": {},
      "expected_co_violations": [],
      "notes": "duplicated key_fields=['STUDYID', 'SUBJID']",
      "status": "injected",
      "failure_reason": null,
      "clean_row_index": 12
    },
    {
      "error_id": "INJ-SD1002-DM-001",
      "rule_id": "SD1002",
      "rule_message": "RFSTDTC is after RFENDTC",
      "category": "DTC1",
      "primitive": "invert_date_order",
      "domain": "DM",
      "usubjid": "MS200095-0022-VISION-JPN_SITE02-0020",
      "row_index": 35,
      "csv_line": 37,
      "seq_value": null,
      "variables_modified": {
        "RFSTDTC": {
          "original": "",
          "injected": "2024-01-08"
        }
      },
      "re_derived": {},
      "expected_co_violations": [],
      "notes": null,
      "status": "injected",
      "failure_reason": null,
      "clean_row_index": 35
    },
    {
      "error_id": "INJ-SD1002-DM-002",
      "rule_id": "SD1002",
      "rule_message": "RFSTDTC is after RFENDTC",
      "category": "DTC1",
      "primitive": "invert_date_order",
      "domain": "DM",
      "usubjid": "MS200095-0022-VISION-ESP_SITE01-0045",
      "row_index": 50,
      "csv_line": 52,
      "seq_value": null,
      "variables_modified": {
        "RFSTDTC": {
          "original": "2024-05-05",
          "injected": "2025-09-27"
        }
      },
      "re_derived": {},
      "expected_co_violations": [],
      "notes": null,
      "status": "injected",
      "failure_reason": null,
      "clean_row_index": 50
    },
    {
      "error_id": "INJ-SD1002-DM-004",
      "rule_id": "SD1002",
      "rule_message": "RFSTDTC is after RFENDTC",
      "category": "DTC1",
      "primitive": "invert_date_order",
      "domain": "DM",
      "usubjid": "MS200095-0022-VISION-FRA_SITE01-0028",
      "row_index": 18,
      "csv_line": 20,
      "seq_value": null,
      "variables_modified": {
        "RFSTDTC": {
          "original": "2024-03-11",
          "injected": "2025-06-11"
        }
      },
      "re_derived": {},
      "expected_co_violations": [],
      "notes": null,
      "status": "injected",
      "failure_reason": null,
      "clean_row_index": 18
    },
    {
      "error_id": "INJ-SD1002-DM-005",
      "rule_id": "SD1002",
      "rule_message": "RFSTDTC is after RFENDTC",
      "category": "DTC1",
      "primitive": "invert_date_order",
      "domain": "DM",
      "usubjid": "MS200095-0022-VISION-CHN_SITE01-0047",
      "row_index": 5,
      "csv_line": 7,
      "seq_value": null,
      "variables_modified": {
        "RFSTDTC": {
          "original": "2024-05-16",
          "injected": "2025-12-05"
        }
      },
      "re_derived": {},
      "expected_co_violations": [],
      "notes": null,
      "status": "injected",
      "failure_reason": null,
      "clean_row_index": 5
    },
    {
      "error_id": "INJ-SD1208-DM-001",
      "rule_id": "SD1208",
      "rule_message": "RFXSTDTC date is after RFXENDTC",
      "category": "DTC1",
      "primitive": "invert_date_order",
      "domain": "DM",
      "usubjid": "MS200095-0022-VISION-ESP_SITE01-0045",
      "row_index": 50,
      "csv_line": 52,
      "seq_value": null,
      "variables_modified": {
        "RFXSTDTC": {
          "original": "2024-05-05",
          "injected": "2025-02-02"
        }
      },
      "re_derived": {},
      "expected_co_violations": [],
      "notes": null,
      "status": "injected",
      "failure_reason": null,
      "clean_row_index": 50
    },
    {
      "error_id": "INJ-SD1208-DM-002",
      "rule_id": "SD1208",
      "rule_message": "RFXSTDTC date is after RFXENDTC",
      "category": "DTC1",
      "primitive": "invert_date_order",
      "domain": "DM",
      "usubjid": "MS200095-0022-VISION-FRA_SITE01-0003",
      "row_index": 16,
      "csv_line": 18,
      "seq_value": null,
      "variables_modified": {
        "RFXSTDTC": {
          "original": "2024-04-18",
          "injected": "2024-08-09"
        }
      },
      "re_derived": {},
      "expected_co_violations": [],
      "notes": null,
      "status": "injected",
      "failure_reason": null,
      "clean_row_index": 16
    },
    {
      "error_id": "INJ-SD1210-DM-001",
      "rule_id": "SD1210",
      "rule_message": "Missing value for RFICDTC",
      "category": "DTC1",
      "primitive": "blank_field",
      "domain": "DM",
      "usubjid": "MS200095-0022-VISION-USA_SITE02-0021",
      "row_index": 47,
      "csv_line": 49,
      "seq_value": null,
      "variables_modified": {
        "RFICDTC": {
          "original": "2024-02-20",
          "injected": ""
        }
      },
      "re_derived": {},
      "expected_co_violations": [],
      "notes": null,
      "status": "injected",
      "failure_reason": null,
      "clean_row_index": 47
    },
    {
      "error_id": "INJ-SD1210-DM-002",
      "rule_id": "SD1210",
      "rule_message": "Missing value for RFICDTC",
      "category": "DTC1",
      "primitive": "blank_field",
      "domain": "DM",
      "usubjid": "MS200095-0022-VISION-USA_SITE01-0031",
      "row_index": 43,
      "csv_line": 45,
      "seq_value": null,
      "variables_modified": {
        "RFICDTC": {
          "original": "2024-04-14",
          "injected": ""
        }
      },
      "re_derived": {},
      "expected_co_violations": [],
      "notes": null,
      "status": "injected",
      "failure_reason": null,
      "clean_row_index": 43
    },
    {
      "error_id": "INJ-SD1210-DM-003",
      "rule_id": "SD1210",
      "rule_message": "Missing value for RFICDTC",
      "category": "DTC1",
      "primitive": "blank_field",
      "domain": "DM",
      "usubjid": "MS200095-0022-VISION-JPN_SITE02-0026",
      "row_index": 37,
      "csv_line": 39,
      "seq_value": null,
      "variables_modified": {
        "RFICDTC": {
          "original": "2024-04-01",
          "injected": ""
        }
      },
      "re_derived": {},
      "expected_co_violations": [],
      "notes": null,
      "status": "injected",
      "failure_reason": null,
      "clean_row_index": 37
    },
    {
      "error_id": "INJ-SD1210-DM-004",
      "rule_id": "SD1210",
      "rule_message": "Missing value for RFICDTC",
      "category": "DTC1",
      "primitive": "blank_field",
      "domain": "DM",
      "usubjid": "MS200095-0022-VISION-FRA_SITE01-0003",
      "row_index": 16,
      "csv_line": 18,
      "seq_value": null,
      "variables_modified": {
        "RFICDTC": {
          "original": "2024-04-03",
          "injected": ""
        }
      },
      "re_derived": {},
      "expected_co_violations": [],
      "notes": null,
      "status": "injected",
      "failure_reason": null,
      "clean_row_index": 16
    },
    {
      "error_id": "INJ-SD1210-DM-005",
      "rule_id": "SD1210",
      "rule_message": "Missing value for RFICDTC",
      "category": "DTC1",
      "primitive": "blank_field",
      "domain": "DM",
      "usubjid": "MS200095-0022-VISION-ITA_SITE01-0027",
      "row_index": 27,
      "csv_line": 29,
      "seq_value": null,
      "variables_modified": {
        "RFICDTC": {
          "original": "2024-02-07",
          "injected": ""
        }
      },
      "re_derived": {},
      "expected_co_violations": [],
      "notes": null,
      "status": "injected",
      "failure_reason": null,
      "clean_row_index": 27
    },
    {
      "error_id": "INJ-SD1210-DM-006",
      "rule_id": "SD1210",
      "rule_message": "Missing value for RFICDTC",
      "category": "DTC1",
      "primitive": "blank_field",
      "domain": "DM",
      "usubjid": "MS200095-0022-VISION-USA_SITE01-0018",
      "row_index": 41,
      "csv_line": 43,
      "seq_value": null,
      "variables_modified": {
        "RFICDTC": {
          "original": "2024-03-01",
          "injected": ""
        }
      },
      "re_derived": {},
      "expected_co_violations": [],
      "notes": null,
      "status": "injected",
      "failure_reason": null,
      "clean_row_index": 41
    },
    {
      "error_id": "INJ-SD1334-DM-001",
      "rule_id": "SD1334",
      "rule_message": "RFICDTC is after RFSTDTC",
      "category": "DTC1",
      "primitive": "invert_date_order",
      "domain": "DM",
      "usubjid": "MS200095-0022-VISION-ITA_SITE01-0006",
      "row_index": 25,
      "csv_line": 27,
      "seq_value": null,
      "variables_modified": {
        "RFICDTC": {
          "original": "2024-02-07",
          "injected": "2024-03-17"
        }
      },
      "re_derived": {},
      "expected_co_violations": [],
      "notes": null,
      "status": "injected",
      "failure_reason": null,
      "clean_row_index": 25
    },
    {
      "error_id": "INJ-SD1334-DM-003",
      "rule_id": "SD1334",
      "rule_message": "RFICDTC is after RFSTDTC",
      "category": "DTC1",
      "primitive": "invert_date_order",
      "domain": "DM",
      "usubjid": "MS200095-0022-VISION-DEU_SITE01-0009",
      "row_index": 7,
      "csv_line": 9,
      "seq_value": null,
      "variables_modified": {
        "RFICDTC": {
          "original": "2024-01-25",
          "injected": "2024-02-14"
        }
      },
      "re_derived": {},
      "expected_co_violations": [],
      "notes": null,
      "status": "injected",
      "failure_reason": null,
      "clean_row_index": 7
    },
    {
      "error_id": "INJ-SD1334-DM-004",
      "rule_id": "SD1334",
      "rule_message": "RFICDTC is after RFSTDTC",
      "category": "DTC1",
      "primitive": "invert_date_order",
      "domain": "DM",
      "usubjid": "MS200095-0022-VISION-KOR_SITE01-0025",
      "row_index": 39,
      "csv_line": 41,
      "seq_value": null,
      "variables_modified": {
        "RFICDTC": {
          "original": "2024-03-28",
          "injected": "2024-04-18"
        }
      },
      "re_derived": {},
      "expected_co_violations": [],
      "notes": null,
      "status": "injected",
      "failure_reason": null,
      "clean_row_index": 39
    },
    {
      "error_id": "INJ-SD1334-DM-005",
      "rule_id": "SD1334",
      "rule_message": "RFICDTC is after RFSTDTC",
      "category": "DTC1",
      "primitive": "invert_date_order",
      "domain": "DM",
      "usubjid": "MS200095-0022-VISION-USA_SITE01-0007",
      "row_index": 40,
      "csv_line": 42,
      "seq_value": null,
      "variables_modified": {
        "RFICDTC": {
          "original": "2024-04-06",
          "injected": "2024-04-27"
        }
      },
      "re_derived": {},
      "expected_co_violations": [],
      "notes": null,
      "status": "injected",
      "failure_reason": null,
      "clean_row_index": 40
    },
    {
      "error_id": "INJ-SD1335-DM-005",
      "rule_id": "SD1335",
      "rule_message": "RFICDTC is after RFXSTDTC",
      "category": "DTC1",
      "primitive": "invert_date_order",
      "domain": "DM",
      "usubjid": "MS200095-0022-VISION-JPN_SITE02-0024",
      "row_index": 36,
      "csv_line": 38,
      "seq_value": null,
      "variables_modified": {
        "RFICDTC": {
          "original": "2024-04-14",
          "injected": "2024-05-17"
        }
      },
      "re_derived": {},
      "expected_co_violations": [],
      "notes": null,
      "status": "injected",
      "failure_reason": null,
      "clean_row_index": 36
    },
    {
      "error_id": "INJ-SD1335-DM-006",
      "rule_id": "SD1335",
      "rule_message": "RFICDTC is after RFXSTDTC",
      "category": "DTC1",
      "primitive": "invert_date_order",
      "domain": "DM",
      "usubjid": "MS200095-0022-VISION-CHN_SITE01-0047",
      "row_index": 5,
      "csv_line": 7,
      "seq_value": null,
      "variables_modified": {
        "RFICDTC": {
          "original": "2024-04-13",
          "injected": "2024-05-23"
        }
      },
      "re_derived": {},
      "expected_co_violations": [],
      "notes": null,
      "status": "injected",
      "failure_reason": null,
      "clean_row_index": 5
    },
    {
      "error_id": "INJ-SD1349-DM-001",
      "rule_id": "SD1349",
      "rule_message": "Inconsistent STUDYID",
      "category": "DM01",
      "primitive": "set_invalid_value",
      "domain": "DM",
      "usubjid": "MS200095-0022-VISION-FRA_SITE01-0013",
      "row_index": 56,
      "csv_line": 58,
      "seq_value": null,
      "variables_modified": {
        "STUDYID": {
          "original": "MS200095-0022-VISION",
          "injected": "WRONG_STUDY"
        }
      },
      "re_derived": {},
      "expected_co_violations": [],
      "notes": null,
      "status": "injected",
      "failure_reason": null,
      "clean_row_index": 56
    },
    {
      "error_id": "INJ-SD1349-DM-002",
      "rule_id": "SD1349",
      "rule_message": "Inconsistent STUDYID",
      "category": "DM01",
      "primitive": "set_invalid_value",
      "domain": "DM",
      "usubjid": "MS200095-0022-VISION-FRA_SITE01-0003",
      "row_index": 16,
      "csv_line": 18,
      "seq_value": null,
      "variables_modified": {
        "STUDYID": {
          "original": "MS200095-0022-VISION",
          "injected": "WRONG_STUDY"
        }
      },
      "re_derived": {},
      "expected_co_violations": [],
      "notes": null,
      "status": "injected",
      "failure_reason": null,
      "clean_row_index": 16
    },
    {
      "error_id": "INJ-SD1349-DM-003",
      "rule_id": "SD1349",
      "rule_message": "Inconsistent STUDYID",
      "category": "DM01",
      "primitive": "set_invalid_value",
      "domain": "DM",
      "usubjid": "MS200095-0022-VISION-DEU_SITE01-0050",
      "row_index": 12,
      "csv_line": 14,
      "seq_value": null,
      "variables_modified": {
        "STUDYID": {
          "original": "MS200095-0022-VISION",
          "injected": "WRONG_STUDY"
        }
      },
      "re_derived": {},
      "expected_co_violations": [],
      "notes": null,
      "status": "injected",
      "failure_reason": null,
      "clean_row_index": 12
    },
    {
      "error_id": "INJ-SD1349-DM-004",
      "rule_id": "SD1349",
      "rule_message": "Inconsistent STUDYID",
      "category": "DM01",
      "primitive": "set_invalid_value",
      "domain": "DM",
      "usubjid": "MS200095-0022-VISION-JPN_SITE02-0010",
      "row_index": 59,
      "csv_line": 61,
      "seq_value": null,
      "variables_modified": {
        "STUDYID": {
          "original": "MS200095-0022-VISION",
          "injected": "WRONG_STUDY"
        }
      },
      "re_derived": {},
      "expected_co_violations": [],
      "notes": null,
      "status": "injected",
      "failure_reason": null,
      "clean_row_index": 59
    },
    {
      "error_id": "INJ-SD1349-DM-005",
      "rule_id": "SD1349",
      "rule_message": "Inconsistent STUDYID",
      "category": "DM01",
      "primitive": "set_invalid_value",
      "domain": "DM",
      "usubjid": "MS200095-0022-VISION-GBR_SITE01-0040",
      "row_index": 24,
      "csv_line": 26,
      "seq_value": null,
      "variables_modified": {
        "STUDYID": {
          "original": "MS200095-0022-VISION",
          "injected": "WRONG_STUDY"
        }
      },
      "re_derived": {},
      "expected_co_violations": [],
      "notes": null,
      "status": "injected",
      "failure_reason": null,
      "clean_row_index": 24
    },
    {
      "error_id": "INJ-SD1349-DM-006",
      "rule_id": "SD1349",
      "rule_message": "Inconsistent STUDYID",
      "category": "DM01",
      "primitive": "set_invalid_value",
      "domain": "DM",
      "usubjid": "MS200095-0022-VISION-DEU_SITE01-0050",
      "row_index": 60,
      "csv_line": 62,
      "seq_value": null,
      "variables_modified": {
        "STUDYID": {
          "original": "MS200095-0022-VISION",
          "injected": "WRONG_STUDY"
        }
      },
      "re_derived": {},
      "expected_co_violations": [],
      "notes": null,
      "status": "injected",
      "failure_reason": null,
      "clean_row_index": 60
    }
  ],
  "summary_by_rule": {
    "SD2005": 1,
    "SD1366": 1,
    "SD1373": 1,
    "SD0087": 5,
    "SD0088": 5,
    "SD1209": 5,
    "SD1213": 4,
    "SD1342": 4,
    "SD1343": 5,
    "SD1376": 3,
    "SD0083": 5,
    "SD1001": 6,
    "SD1002": 4,
    "SD1208": 2,
    "SD1210": 6,
    "SD1334": 4,
    "SD1335": 2,
    "SD1349": 6
  },
  "summary_by_category": {
    "DTC1": 52,
    "DM02": 5,
    "DM01": 12
  },
  "summary_by_domain": {
    "DM": 69
  },
  "summary_status": {
    "injected": 69,
    "overwritten": 0,
    "failed_self_validation": 0
  },
  "warnings": [
    "Re-derivation skipped: ConformanceLayer not importable. Derived fields (--DY, EPOCH) may not reflect injected errors."
  ]
}