STUDYID,DOMAIN,USUBJID,IESEQ,IETESTCD,IETEST,IECAT,IEORRES,IESTRESC,VISITNUM,VISIT,EPOCH,IEDTC,IEDY
P261-402-USL261,IE,P261-402-USL261-USA_SITE06-0014,1,EXCL03,Subject has severe hepatic impairment (ALT/AST > 5x ULN),EXCLUSION,Y,Y,1.0,SCREENING,SCREENING,2024-02-21,
P261-402-USL261,IE,P261-402-USL261-USA_SITE08-0009,1,EXCL05,Subject has participated in another clinical trial within 30 days,EXCLUSION,Y,Y,1.0,SCREENING,SCREENING,2024-02-14,
