STUDYID,DOMAIN,USUBJID,PESEQ,PETESTCD,PETEST,PEORRES,PESTRESC,VISITNUM,VISIT,EPOCH,PEDTC,PEDY
P261-402-USL261,PE,P261-402-USL261-USA_SITE01-0007,1,ABDOMEN,ABDOMEN,NORMAL,NORMAL,1.0,SCREENING,SCREENING,2024-03-24,-25
P261-402-USL261,PE,P261-402-USL261-USA_SITE01-0007,2,ABDOMEN,ABDOMEN,NORMAL,NORMAL,1.0,ENROLLMENT,TREATMENT,2024-04-18,1
P261-402-USL261,PE,P261-402-USL261-USA_SITE01-0007,3,CARDIOVA,CARDIOVASCULAR,NORMAL,NORMAL,1.0,SCREENING,SCREENING,2024-03-24,-25
P261-402-USL261,PE,P261-402-USL261-USA_SITE01-0007,4,CARDIOVA,CARDIOVASCULAR,NORMAL,NORMAL,1.0,ENROLLMENT,TREATMENT,2024-04-18,1
P261-402-USL261,PE,P261-402-USL261-USA_SITE01-0007,5,EARSNOSE,"EARS, NOSE, AND THROAT",NORMAL,NORMAL,1.0,SCREENING,SCREENING,2024-03-24,-25
P261-402-USL261,PE,P261-402-USL261-USA_SITE01-0007,6,EARSNOSE,"EARS, NOSE, AND THROAT",NORMAL,NORMAL,1.0,ENROLLMENT,TREATMENT,2024-04-18,1
P261-402-USL261,PE,P261-402-USL261-USA_SITE01-0007,7,EYES,EYES,NORMAL,NORMAL,1.0,SCREENING,SCREENING,2024-03-24,-25
P261-402-USL261,PE,P261-402-USL261-USA_SITE01-0007,8,EYES,EYES,CONJUNCTIVAL PALLOR,CONJUNCTIVAL PALLOR,1.0,ENROLLMENT,TREATMENT,2024-04-18,1
P261-402-USL261,PE,P261-402-USL261-USA_SITE01-0007,9,GENERALA,GENERAL APPEARANCE,NORMAL,NORMAL,1.0,SCREENING,SCREENING,2024-03-24,-25
P261-402-USL261,PE,P261-402-USL261-USA_SITE01-0007,10,GENERALA,GENERAL APPEARANCE,NORMAL,NORMAL,1.0,ENROLLMENT,TREATMENT,2024-04-18,1
P261-402-USL261,PE,P261-402-USL261-USA_SITE01-0007,11,HEADANDN,HEAD AND NECK,NORMAL,NORMAL,1.0,SCREENING,SCREENING,2024-03-24,-25
P261-402-USL261,PE,P261-402-USL261-USA_SITE01-0007,12,HEADANDN,HEAD AND NECK,NORMAL,NORMAL,1.0,ENROLLMENT,TREATMENT,2024-04-18,1
P261-402-USL261,PE,P261-402-USL261-USA_SITE01-0007,13,MUSCULOS,MUSCULOSKELETAL,NORMAL,NORMAL,1.0,SCREENING,SCREENING,2024-03-24,-25
P261-402-USL261,PE,P261-402-USL261-USA_SITE01-0007,14,MUSCULOS,MUSCULOSKELETAL,NORMAL,NORMAL,1.0,ENROLLMENT,TREATMENT,2024-04-18,1
P261-402-USL261,PE,P261-402-USL261-USA_SITE01-0007,15,NEUROLOG,NEUROLOGICAL,NORMAL,NORMAL,1.0,SCREENING,SCREENING,2024-03-24,-25
P261-402-USL261,PE,P261-402-USL261-USA_SITE01-0007,16,NEUROLOG,NEUROLOGICAL,NORMAL,NORMAL,1.0,ENROLLMENT,TREATMENT,2024-04-18,1
P261-402-USL261,PE,P261-402-USL261-USA_SITE01-0007,17,RESPIRAT,RESPIRATORY,NORMAL,NORMAL,1.0,SCREENING,SCREENING,2024-03-24,-25
P261-402-USL261,PE,P261-402-USL261-USA_SITE01-0007,18,RESPIRAT,RESPIRATORY,NORMAL,NORMAL,1.0,ENROLLMENT,TREATMENT,2024-04-18,1
P261-402-USL261,PE,P261-402-USL261-USA_SITE01-0007,19,SKIN,SKIN,NORMAL,NORMAL,1.0,SCREENING,SCREENING,2024-03-24,-25
P261-402-USL261,PE,P261-402-USL261-USA_SITE01-0007,20,SKIN,SKIN,NORMAL,NORMAL,1.0,ENROLLMENT,TREATMENT,2024-04-18,1
P261-402-USL261,PE,P261-402-USL261-USA_SITE01-0019,1,ABDOMEN,ABDOMEN,NORMAL,NORMAL,1.0,SCREENING,SCREENING,2024-01-20,-31
P261-402-USL261,PE,P261-402-USL261-USA_SITE01-0019,2,ABDOMEN,ABDOMEN,NORMAL,NORMAL,1.0,ENROLLMENT,TREATMENT,2024-02-20,1
P261-402-USL261,PE,P261-402-USL261-USA_SITE01-0019,3,CARDIOVA,CARDIOVASCULAR,NORMAL,NORMAL,1.0,SCREENING,SCREENING,2024-01-20,-31
P261-402-USL261,PE,P261-402-USL261-USA_SITE01-0019,4,CARDIOVA,CARDIOVASCULAR,NORMAL,NORMAL,1.0,ENROLLMENT,TREATMENT,2024-02-20,1
P261-402-USL261,PE,P261-402-USL261-USA_SITE01-0019,5,EARSNOSE,"EARS, NOSE, AND THROAT",NORMAL,NORMAL,1.0,SCREENING,SCREENING,2024-01-20,-31
P261-402-USL261,PE,P261-402-USL261-USA_SITE01-0019,6,EARSNOSE,"EARS, NOSE, AND THROAT",NORMAL,NORMAL,1.0,ENROLLMENT,TREATMENT,2024-02-20,1
P261-402-USL261,PE,P261-402-USL261-USA_SITE01-0019,7,EYES,EYES,NORMAL,NORMAL,1.0,SCREENING,SCREENING,2024-01-20,-31
P261-402-USL261,PE,P261-402-USL261-USA_SITE01-0019,8,EYES,EYES,NORMAL,NORMAL,1.0,ENROLLMENT,TREATMENT,2024-02-20,1
P261-402-USL261,PE,P261-402-USL261-USA_SITE01-0019,9,GENERALA,GENERAL APPEARANCE,NORMAL,NORMAL,1.0,SCREENING,SCREENING,2024-01-20,-31
P261-402-USL261,PE,P261-402-USL261-USA_SITE01-0019,10,GENERALA,GENERAL APPEARANCE,NORMAL,NORMAL,1.0,ENROLLMENT,TREATMENT,2024-02-20,1
P261-402-USL261,PE,P261-402-USL261-USA_SITE01-0019,11,HEADANDN,HEAD AND NECK,NORMAL,NORMAL,1.0,SCREENING,SCREENING,2024-01-20,-31
P261-402-USL261,PE,P261-402-USL261-USA_SITE01-0019,12,HEADANDN,HEAD AND NECK,NORMAL,NORMAL,1.0,ENROLLMENT,TREATMENT,2024-02-20,1
P261-402-USL261,PE,P261-402-USL261-USA_SITE01-0019,13,MUSCULOS,MUSCULOSKELETAL,NORMAL,NORMAL,1.0,SCREENING,SCREENING,2024-01-20,-31
P261-402-USL261,PE,P261-402-USL261-USA_SITE01-0019,14,MUSCULOS,MUSCULOSKELETAL,NORMAL,NORMAL,1.0,ENROLLMENT,TREATMENT,2024-02-20,1
P261-402-USL261,PE,P261-402-USL261-USA_SITE01-0019,15,NEUROLOG,NEUROLOGICAL,NORMAL,NORMAL,1.0,SCREENING,SCREENING,2024-01-20,-31
P261-402-USL261,PE,P261-402-USL261-USA_SITE01-0019,16,NEUROLOG,NEUROLOGICAL,NORMAL,NORMAL,1.0,ENROLLMENT,TREATMENT,2024-02-20,1
P261-402-USL261,PE,P261-402-USL261-USA_SITE01-0019,17,RESPIRAT,RESPIRATORY,CRACKLES,CRACKLES,1.0,SCREENING,SCREENING,2024-01-20,-31
P261-402-USL261,PE,P261-402-USL261-USA_SITE01-0019,18,RESPIRAT,RESPIRATORY,NORMAL,NORMAL,1.0,ENROLLMENT,TREATMENT,2024-02-20,1
P261-402-USL261,PE,P261-402-USL261-USA_SITE01-0019,19,SKIN,SKIN,NORMAL,NORMAL,1.0,SCREENING,SCREENING,2024-01-20,-31
P261-402-USL261,PE,P261-402-USL261-USA_SITE01-0019,20,SKIN,SKIN,NORMAL,NORMAL,1.0,ENROLLMENT,TREATMENT,2024-02-20,1
P261-402-USL261,PE,P261-402-USL261-USA_SITE02-0015,1,ABDOMEN,ABDOMEN,NORMAL,NORMAL,1.0,SCREENING,SCREENING,2024-02-01,-27
P261-402-USL261,PE,P261-402-USL261-USA_SITE02-0015,2,ABDOMEN,ABDOMEN,NORMAL,NORMAL,1.0,ENROLLMENT,TREATMENT,2024-02-28,1
P261-402-USL261,PE,P261-402-USL261-USA_SITE02-0015,3,CARDIOVA,CARDIOVASCULAR,NORMAL,NORMAL,1.0,SCREENING,SCREENING,2024-02-01,-27
P261-402-USL261,PE,P261-402-USL261-USA_SITE02-0015,4,CARDIOVA,CARDIOVASCULAR,NORMAL,NORMAL,1.0,ENROLLMENT,TREATMENT,2024-02-28,1
P261-402-USL261,PE,P261-402-USL261-USA_SITE02-0015,5,EARSNOSE,"EARS, NOSE, AND THROAT",NORMAL,NORMAL,1.0,SCREENING,SCREENING,2024-02-01,-27
P261-402-USL261,PE,P261-402-USL261-USA_SITE02-0015,6,EARSNOSE,"EARS, NOSE, AND THROAT",NORMAL,NORMAL,1.0,ENROLLMENT,TREATMENT,2024-02-28,1
P261-402-USL261,PE,P261-402-USL261-USA_SITE02-0015,7,EYES,EYES,NORMAL,NORMAL,1.0,SCREENING,SCREENING,2024-02-01,-27
P261-402-USL261,PE,P261-402-USL261-USA_SITE02-0015,8,EYES,EYES,NORMAL,NORMAL,1.0,ENROLLMENT,TREATMENT,2024-02-28,1
P261-402-USL261,PE,P261-402-USL261-USA_SITE02-0015,9,GENERALA,GENERAL APPEARANCE,NORMAL,NORMAL,1.0,SCREENING,SCREENING,2024-02-01,-27
P261-402-USL261,PE,P261-402-USL261-USA_SITE02-0015,10,GENERALA,GENERAL APPEARANCE,NORMAL,NORMAL,1.0,ENROLLMENT,TREATMENT,2024-02-28,1
P261-402-USL261,PE,P261-402-USL261-USA_SITE02-0015,11,HEADANDN,HEAD AND NECK,NORMAL,NORMAL,1.0,SCREENING,SCREENING,2024-02-01,-27
P261-402-USL261,PE,P261-402-USL261-USA_SITE02-0015,12,HEADANDN,HEAD AND NECK,NORMAL,NORMAL,1.0,ENROLLMENT,TREATMENT,2024-02-28,1
P261-402-USL261,PE,P261-402-USL261-USA_SITE02-0015,13,MUSCULOS,MUSCULOSKELETAL,NORMAL,NORMAL,1.0,SCREENING,SCREENING,2024-02-01,-27
P261-402-USL261,PE,P261-402-USL261-USA_SITE02-0015,14,MUSCULOS,MUSCULOSKELETAL,NORMAL,NORMAL,1.0,ENROLLMENT,TREATMENT,2024-02-28,1
P261-402-USL261,PE,P261-402-USL261-USA_SITE02-0015,15,NEUROLOG,NEUROLOGICAL,NORMAL,NORMAL,1.0,SCREENING,SCREENING,2024-02-01,-27
P261-402-USL261,PE,P261-402-USL261-USA_SITE02-0015,16,NEUROLOG,NEUROLOGICAL,NORMAL,NORMAL,1.0,ENROLLMENT,TREATMENT,2024-02-28,1
P261-402-USL261,PE,P261-402-USL261-USA_SITE02-0015,17,RESPIRAT,RESPIRATORY,NORMAL,NORMAL,1.0,SCREENING,SCREENING,2024-02-01,-27
P261-402-USL261,PE,P261-402-USL261-USA_SITE02-0015,18,RESPIRAT,RESPIRATORY,NORMAL,NORMAL,1.0,ENROLLMENT,TREATMENT,2024-02-28,1
P261-402-USL261,PE,P261-402-USL261-USA_SITE02-0015,19,SKIN,SKIN,NORMAL,NORMAL,1.0,SCREENING,SCREENING,2024-02-01,-27
P261-402-USL261,PE,P261-402-USL261-USA_SITE02-0015,20,SKIN,SKIN,NORMAL,NORMAL,1.0,ENROLLMENT,TREATMENT,2024-02-28,1
P261-402-USL261,PE,P261-402-USL261-USA_SITE02-0020,1,ABDOMEN,ABDOMEN,NORMAL,NORMAL,1.0,SCREENING,SCREENING,2024-03-26,-18
P261-402-USL261,PE,P261-402-USL261-USA_SITE02-0020,2,ABDOMEN,ABDOMEN,NORMAL,NORMAL,1.0,ENROLLMENT,TREATMENT,2024-04-13,1
P261-402-USL261,PE,P261-402-USL261-USA_SITE02-0020,3,CARDIOVA,CARDIOVASCULAR,NORMAL,NORMAL,1.0,SCREENING,SCREENING,2024-03-26,-18
P261-402-USL261,PE,P261-402-USL261-USA_SITE02-0020,4,CARDIOVA,CARDIOVASCULAR,NORMAL,NORMAL,1.0,ENROLLMENT,TREATMENT,2024-04-13,1
P261-402-USL261,PE,P261-402-USL261-USA_SITE02-0020,5,EARSNOSE,"EARS, NOSE, AND THROAT",NORMAL,NORMAL,1.0,SCREENING,SCREENING,2024-03-26,-18
P261-402-USL261,PE,P261-402-USL261-USA_SITE02-0020,6,EARSNOSE,"EARS, NOSE, AND THROAT",NORMAL,NORMAL,1.0,ENROLLMENT,TREATMENT,2024-04-13,1
P261-402-USL261,PE,P261-402-USL261-USA_SITE02-0020,7,EYES,EYES,NORMAL,NORMAL,1.0,SCREENING,SCREENING,2024-03-26,-18
P261-402-USL261,PE,P261-402-USL261-USA_SITE02-0020,8,EYES,EYES,NORMAL,NORMAL,1.0,ENROLLMENT,TREATMENT,2024-04-13,1
P261-402-USL261,PE,P261-402-USL261-USA_SITE02-0020,9,GENERALA,GENERAL APPEARANCE,NORMAL,NORMAL,1.0,SCREENING,SCREENING,2024-03-26,-18
P261-402-USL261,PE,P261-402-USL261-USA_SITE02-0020,10,GENERALA,GENERAL APPEARANCE,NORMAL,NORMAL,1.0,ENROLLMENT,TREATMENT,2024-04-13,1
P261-402-USL261,PE,P261-402-USL261-USA_SITE02-0020,11,HEADANDN,HEAD AND NECK,NORMAL,NORMAL,1.0,SCREENING,SCREENING,2024-03-26,-18
P261-402-USL261,PE,P261-402-USL261-USA_SITE02-0020,12,HEADANDN,HEAD AND NECK,NORMAL,NORMAL,1.0,ENROLLMENT,TREATMENT,2024-04-13,1
P261-402-USL261,PE,P261-402-USL261-USA_SITE02-0020,13,MUSCULOS,MUSCULOSKELETAL,NORMAL,NORMAL,1.0,SCREENING,SCREENING,2024-03-26,-18
P261-402-USL261,PE,P261-402-USL261-USA_SITE02-0020,14,MUSCULOS,MUSCULOSKELETAL,NORMAL,NORMAL,1.0,ENROLLMENT,TREATMENT,2024-04-13,1
P261-402-USL261,PE,P261-402-USL261-USA_SITE02-0020,15,NEUROLOG,NEUROLOGICAL,NORMAL,NORMAL,1.0,SCREENING,SCREENING,2024-03-26,-18
P261-402-USL261,PE,P261-402-USL261-USA_SITE02-0020,16,NEUROLOG,NEUROLOGICAL,NORMAL,NORMAL,1.0,ENROLLMENT,TREATMENT,2024-04-13,1
P261-402-USL261,PE,P261-402-USL261-USA_SITE02-0020,17,RESPIRAT,RESPIRATORY,NORMAL,NORMAL,1.0,SCREENING,SCREENING,2024-03-26,-18
P261-402-USL261,PE,P261-402-USL261-USA_SITE02-0020,18,RESPIRAT,RESPIRATORY,NORMAL,NORMAL,1.0,ENROLLMENT,TREATMENT,2024-04-13,1
P261-402-USL261,PE,P261-402-USL261-USA_SITE02-0020,19,SKIN,SKIN,NORMAL,NORMAL,1.0,SCREENING,SCREENING,2024-03-26,-18
P261-402-USL261,PE,P261-402-USL261-USA_SITE02-0020,20,SKIN,SKIN,NORMAL,NORMAL,1.0,ENROLLMENT,TREATMENT,2024-04-13,1
P261-402-USL261,PE,P261-402-USL261-USA_SITE03-0006,1,ABDOMEN,ABDOMEN,NORMAL,NORMAL,1.0,SCREENING,SCREENING,2024-03-20,-27
P261-402-USL261,PE,P261-402-USL261-USA_SITE03-0006,2,ABDOMEN,ABDOMEN,NORMAL,NORMAL,1.0,ENROLLMENT,TREATMENT,2024-04-16,1
P261-402-USL261,PE,P261-402-USL261-USA_SITE03-0006,3,CARDIOVA,CARDIOVASCULAR,NORMAL,NORMAL,1.0,SCREENING,SCREENING,2024-03-20,-27
P261-402-USL261,PE,P261-402-USL261-USA_SITE03-0006,4,CARDIOVA,CARDIOVASCULAR,NORMAL,NORMAL,1.0,ENROLLMENT,TREATMENT,2024-04-16,1
P261-402-USL261,PE,P261-402-USL261-USA_SITE03-0006,5,EARSNOSE,"EARS, NOSE, AND THROAT",NORMAL,NORMAL,1.0,SCREENING,SCREENING,2024-03-20,-27
P261-402-USL261,PE,P261-402-USL261-USA_SITE03-0006,6,EARSNOSE,"EARS, NOSE, AND THROAT",NORMAL,NORMAL,1.0,ENROLLMENT,TREATMENT,2024-04-16,1
P261-402-USL261,PE,P261-402-USL261-USA_SITE03-0006,7,EYES,EYES,NORMAL,NORMAL,1.0,SCREENING,SCREENING,2024-03-20,-27
P261-402-USL261,PE,P261-402-USL261-USA_SITE03-0006,8,EYES,EYES,NORMAL,NORMAL,1.0,ENROLLMENT,TREATMENT,2024-04-16,1
P261-402-USL261,PE,P261-402-USL261-USA_SITE03-0006,9,GENERALA,GENERAL APPEARANCE,NORMAL,NORMAL,1.0,SCREENING,SCREENING,2024-03-20,-27
P261-402-USL261,PE,P261-402-USL261-USA_SITE03-0006,10,GENERALA,GENERAL APPEARANCE,CACHEXIA,CACHEXIA,1.0,ENROLLMENT,TREATMENT,2024-04-16,1
P261-402-USL261,PE,P261-402-USL261-USA_SITE03-0006,11,HEADANDN,HEAD AND NECK,NORMAL,NORMAL,1.0,SCREENING,SCREENING,2024-03-20,-27
P261-402-USL261,PE,P261-402-USL261-USA_SITE03-0006,12,HEADANDN,HEAD AND NECK,NORMAL,NORMAL,1.0,ENROLLMENT,TREATMENT,2024-04-16,1
P261-402-USL261,PE,P261-402-USL261-USA_SITE03-0006,13,MUSCULOS,MUSCULOSKELETAL,NORMAL,NORMAL,1.0,SCREENING,SCREENING,2024-03-20,-27
P261-402-USL261,PE,P261-402-USL261-USA_SITE03-0006,14,MUSCULOS,MUSCULOSKELETAL,NORMAL,NORMAL,1.0,ENROLLMENT,TREATMENT,2024-04-16,1
P261-402-USL261,PE,P261-402-USL261-USA_SITE03-0006,15,NEUROLOG,NEUROLOGICAL,NORMAL,NORMAL,1.0,SCREENING,SCREENING,2024-03-20,-27
P261-402-USL261,PE,P261-402-USL261-USA_SITE03-0006,16,NEUROLOG,NEUROLOGICAL,NORMAL,NORMAL,1.0,ENROLLMENT,TREATMENT,2024-04-16,1
P261-402-USL261,PE,P261-402-USL261-USA_SITE03-0006,17,RESPIRAT,RESPIRATORY,NORMAL,NORMAL,1.0,SCREENING,SCREENING,2024-03-20,-27
P261-402-USL261,PE,P261-402-USL261-USA_SITE03-0006,18,RESPIRAT,RESPIRATORY,NORMAL,NORMAL,1.0,ENROLLMENT,TREATMENT,2024-04-16,1
P261-402-USL261,PE,P261-402-USL261-USA_SITE03-0006,19,SKIN,SKIN,NORMAL,NORMAL,1.0,SCREENING,SCREENING,2024-03-20,-27
P261-402-USL261,PE,P261-402-USL261-USA_SITE03-0006,20,SKIN,SKIN,NORMAL,NORMAL,1.0,ENROLLMENT,TREATMENT,2024-04-16,1
P261-402-USL261,PE,P261-402-USL261-USA_SITE03-0018,1,ABDOMEN,ABDOMEN,NORMAL,NORMAL,1.0,SCREENING,SCREENING,2024-04-12,-22
P261-402-USL261,PE,P261-402-USL261-USA_SITE03-0018,2,ABDOMEN,ABDOMEN,NORMAL,NORMAL,1.0,ENROLLMENT,TREATMENT,2024-05-04,1
P261-402-USL261,PE,P261-402-USL261-USA_SITE03-0018,3,CARDIOVA,CARDIOVASCULAR,NORMAL,NORMAL,1.0,SCREENING,SCREENING,2024-04-12,-22
P261-402-USL261,PE,P261-402-USL261-USA_SITE03-0018,4,CARDIOVA,CARDIOVASCULAR,NORMAL,NORMAL,1.0,ENROLLMENT,TREATMENT,2024-05-04,1
P261-402-USL261,PE,P261-402-USL261-USA_SITE03-0018,5,EARSNOSE,"EARS, NOSE, AND THROAT",NORMAL,NORMAL,1.0,SCREENING,SCREENING,2024-04-12,-22
P261-402-USL261,PE,P261-402-USL261-USA_SITE03-0018,6,EARSNOSE,"EARS, NOSE, AND THROAT",NORMAL,NORMAL,1.0,ENROLLMENT,TREATMENT,2024-05-04,1
P261-402-USL261,PE,P261-402-USL261-USA_SITE03-0018,7,EYES,EYES,NORMAL,NORMAL,1.0,SCREENING,SCREENING,2024-04-12,-22
P261-402-USL261,PE,P261-402-USL261-USA_SITE03-0018,8,EYES,EYES,NORMAL,NORMAL,1.0,ENROLLMENT,TREATMENT,2024-05-04,1
P261-402-USL261,PE,P261-402-USL261-USA_SITE03-0018,9,GENERALA,GENERAL APPEARANCE,NORMAL,NORMAL,1.0,SCREENING,SCREENING,2024-04-12,-22
P261-402-USL261,PE,P261-402-USL261-USA_SITE03-0018,10,GENERALA,GENERAL APPEARANCE,NORMAL,NORMAL,1.0,ENROLLMENT,TREATMENT,2024-05-04,1
P261-402-USL261,PE,P261-402-USL261-USA_SITE03-0018,11,HEADANDN,HEAD AND NECK,NORMAL,NORMAL,1.0,SCREENING,SCREENING,2024-04-12,-22
P261-402-USL261,PE,P261-402-USL261-USA_SITE03-0018,12,HEADANDN,HEAD AND NECK,NORMAL,NORMAL,1.0,ENROLLMENT,TREATMENT,2024-05-04,1
P261-402-USL261,PE,P261-402-USL261-USA_SITE03-0018,13,MUSCULOS,MUSCULOSKELETAL,JOINT SWELLING,JOINT SWELLING,1.0,SCREENING,SCREENING,2024-04-12,-22
P261-402-USL261,PE,P261-402-USL261-USA_SITE03-0018,14,MUSCULOS,MUSCULOSKELETAL,NORMAL,NORMAL,1.0,ENROLLMENT,TREATMENT,2024-05-04,1
P261-402-USL261,PE,P261-402-USL261-USA_SITE03-0018,15,NEUROLOG,NEUROLOGICAL,NORMAL,NORMAL,1.0,SCREENING,SCREENING,2024-04-12,-22
P261-402-USL261,PE,P261-402-USL261-USA_SITE03-0018,16,NEUROLOG,NEUROLOGICAL,TREMOR,TREMOR,1.0,ENROLLMENT,TREATMENT,2024-05-04,1
P261-402-USL261,PE,P261-402-USL261-USA_SITE03-0018,17,RESPIRAT,RESPIRATORY,NORMAL,NORMAL,1.0,SCREENING,SCREENING,2024-04-12,-22
P261-402-USL261,PE,P261-402-USL261-USA_SITE03-0018,18,RESPIRAT,RESPIRATORY,NORMAL,NORMAL,1.0,ENROLLMENT,TREATMENT,2024-05-04,1
P261-402-USL261,PE,P261-402-USL261-USA_SITE03-0018,19,SKIN,SKIN,NORMAL,NORMAL,1.0,SCREENING,SCREENING,2024-04-12,-22
P261-402-USL261,PE,P261-402-USL261-USA_SITE03-0018,20,SKIN,SKIN,NORMAL,NORMAL,1.0,ENROLLMENT,TREATMENT,2024-05-04,1
P261-402-USL261,PE,P261-402-USL261-USA_SITE05-0011,1,ABDOMEN,ABDOMEN,NORMAL,NORMAL,1.0,SCREENING,SCREENING,2024-03-26,-12
P261-402-USL261,PE,P261-402-USL261-USA_SITE05-0011,2,ABDOMEN,ABDOMEN,NORMAL,NORMAL,1.0,ENROLLMENT,TREATMENT,2024-04-07,1
P261-402-USL261,PE,P261-402-USL261-USA_SITE05-0011,3,CARDIOVA,CARDIOVASCULAR,NORMAL,NORMAL,1.0,SCREENING,SCREENING,2024-03-26,-12
P261-402-USL261,PE,P261-402-USL261-USA_SITE05-0011,4,CARDIOVA,CARDIOVASCULAR,NORMAL,NORMAL,1.0,ENROLLMENT,TREATMENT,2024-04-07,1
P261-402-USL261,PE,P261-402-USL261-USA_SITE05-0011,5,EARSNOSE,"EARS, NOSE, AND THROAT",NORMAL,NORMAL,1.0,SCREENING,SCREENING,2024-03-26,-12
P261-402-USL261,PE,P261-402-USL261-USA_SITE05-0011,6,EARSNOSE,"EARS, NOSE, AND THROAT",NORMAL,NORMAL,1.0,ENROLLMENT,TREATMENT,2024-04-07,1
P261-402-USL261,PE,P261-402-USL261-USA_SITE05-0011,7,EYES,EYES,NORMAL,NORMAL,1.0,SCREENING,SCREENING,2024-03-26,-12
P261-402-USL261,PE,P261-402-USL261-USA_SITE05-0011,8,EYES,EYES,NORMAL,NORMAL,1.0,ENROLLMENT,TREATMENT,2024-04-07,1
P261-402-USL261,PE,P261-402-USL261-USA_SITE05-0011,9,GENERALA,GENERAL APPEARANCE,NORMAL,NORMAL,1.0,SCREENING,SCREENING,2024-03-26,-12
P261-402-USL261,PE,P261-402-USL261-USA_SITE05-0011,10,GENERALA,GENERAL APPEARANCE,NORMAL,NORMAL,1.0,ENROLLMENT,TREATMENT,2024-04-07,1
P261-402-USL261,PE,P261-402-USL261-USA_SITE05-0011,11,HEADANDN,HEAD AND NECK,NORMAL,NORMAL,1.0,SCREENING,SCREENING,2024-03-26,-12
P261-402-USL261,PE,P261-402-USL261-USA_SITE05-0011,12,HEADANDN,HEAD AND NECK,NORMAL,NORMAL,1.0,ENROLLMENT,TREATMENT,2024-04-07,1
P261-402-USL261,PE,P261-402-USL261-USA_SITE05-0011,13,MUSCULOS,MUSCULOSKELETAL,NORMAL,NORMAL,1.0,SCREENING,SCREENING,2024-03-26,-12
P261-402-USL261,PE,P261-402-USL261-USA_SITE05-0011,14,MUSCULOS,MUSCULOSKELETAL,NORMAL,NORMAL,1.0,ENROLLMENT,TREATMENT,2024-04-07,1
P261-402-USL261,PE,P261-402-USL261-USA_SITE05-0011,15,NEUROLOG,NEUROLOGICAL,NORMAL,NORMAL,1.0,SCREENING,SCREENING,2024-03-26,-12
P261-402-USL261,PE,P261-402-USL261-USA_SITE05-0011,16,NEUROLOG,NEUROLOGICAL,NORMAL,NORMAL,1.0,ENROLLMENT,TREATMENT,2024-04-07,1
P261-402-USL261,PE,P261-402-USL261-USA_SITE05-0011,17,RESPIRAT,RESPIRATORY,NORMAL,NORMAL,1.0,SCREENING,SCREENING,2024-03-26,-12
P261-402-USL261,PE,P261-402-USL261-USA_SITE05-0011,18,RESPIRAT,RESPIRATORY,NORMAL,NORMAL,1.0,ENROLLMENT,TREATMENT,2024-04-07,1
P261-402-USL261,PE,P261-402-USL261-USA_SITE05-0011,19,SKIN,SKIN,NORMAL,NORMAL,1.0,SCREENING,SCREENING,2024-03-26,-12
P261-402-USL261,PE,P261-402-USL261-USA_SITE05-0011,20,SKIN,SKIN,NORMAL,NORMAL,1.0,ENROLLMENT,TREATMENT,2024-04-07,1
P261-402-USL261,PE,P261-402-USL261-USA_SITE06-0005,1,ABDOMEN,ABDOMEN,NORMAL,NORMAL,1.0,SCREENING,SCREENING,2024-03-24,-14
P261-402-USL261,PE,P261-402-USL261-USA_SITE06-0005,2,ABDOMEN,ABDOMEN,NORMAL,NORMAL,1.0,ENROLLMENT,TREATMENT,2024-04-07,1
P261-402-USL261,PE,P261-402-USL261-USA_SITE06-0005,3,CARDIOVA,CARDIOVASCULAR,NORMAL,NORMAL,1.0,SCREENING,SCREENING,2024-03-24,-14
P261-402-USL261,PE,P261-402-USL261-USA_SITE06-0005,4,CARDIOVA,CARDIOVASCULAR,NORMAL,NORMAL,1.0,ENROLLMENT,TREATMENT,2024-04-07,1
P261-402-USL261,PE,P261-402-USL261-USA_SITE06-0005,5,EARSNOSE,"EARS, NOSE, AND THROAT",NORMAL,NORMAL,1.0,SCREENING,SCREENING,2024-03-24,-14
P261-402-USL261,PE,P261-402-USL261-USA_SITE06-0005,6,EARSNOSE,"EARS, NOSE, AND THROAT",NORMAL,NORMAL,1.0,ENROLLMENT,TREATMENT,2024-04-07,1
P261-402-USL261,PE,P261-402-USL261-USA_SITE06-0005,7,EYES,EYES,NORMAL,NORMAL,1.0,SCREENING,SCREENING,2024-03-24,-14
P261-402-USL261,PE,P261-402-USL261-USA_SITE06-0005,8,EYES,EYES,NORMAL,NORMAL,1.0,ENROLLMENT,TREATMENT,2024-04-07,1
P261-402-USL261,PE,P261-402-USL261-USA_SITE06-0005,9,GENERALA,GENERAL APPEARANCE,NORMAL,NORMAL,1.0,SCREENING,SCREENING,2024-03-24,-14
P261-402-USL261,PE,P261-402-USL261-USA_SITE06-0005,10,GENERALA,GENERAL APPEARANCE,NORMAL,NORMAL,1.0,ENROLLMENT,TREATMENT,2024-04-07,1
P261-402-USL261,PE,P261-402-USL261-USA_SITE06-0005,11,HEADANDN,HEAD AND NECK,THYROMEGALY,THYROMEGALY,1.0,SCREENING,SCREENING,2024-03-24,-14
P261-402-USL261,PE,P261-402-USL261-USA_SITE06-0005,12,HEADANDN,HEAD AND NECK,NORMAL,NORMAL,1.0,ENROLLMENT,TREATMENT,2024-04-07,1
P261-402-USL261,PE,P261-402-USL261-USA_SITE06-0005,13,MUSCULOS,MUSCULOSKELETAL,NORMAL,NORMAL,1.0,SCREENING,SCREENING,2024-03-24,-14
P261-402-USL261,PE,P261-402-USL261-USA_SITE06-0005,14,MUSCULOS,MUSCULOSKELETAL,NORMAL,NORMAL,1.0,ENROLLMENT,TREATMENT,2024-04-07,1
P261-402-USL261,PE,P261-402-USL261-USA_SITE06-0005,15,NEUROLOG,NEUROLOGICAL,NORMAL,NORMAL,1.0,SCREENING,SCREENING,2024-03-24,-14
P261-402-USL261,PE,P261-402-USL261-USA_SITE06-0005,16,NEUROLOG,NEUROLOGICAL,NORMAL,NORMAL,1.0,ENROLLMENT,TREATMENT,2024-04-07,1
P261-402-USL261,PE,P261-402-USL261-USA_SITE06-0005,17,RESPIRAT,RESPIRATORY,NORMAL,NORMAL,1.0,SCREENING,SCREENING,2024-03-24,-14
P261-402-USL261,PE,P261-402-USL261-USA_SITE06-0005,18,RESPIRAT,RESPIRATORY,NORMAL,NORMAL,1.0,ENROLLMENT,TREATMENT,2024-04-07,1
P261-402-USL261,PE,P261-402-USL261-USA_SITE06-0005,19,SKIN,SKIN,NORMAL,NORMAL,1.0,SCREENING,SCREENING,2024-03-24,-14
P261-402-USL261,PE,P261-402-USL261-USA_SITE06-0005,20,SKIN,SKIN,NORMAL,NORMAL,1.0,ENROLLMENT,TREATMENT,2024-04-07,1
P261-402-USL261,PE,P261-402-USL261-USA_SITE06-0017,1,ABDOMEN,ABDOMEN,NORMAL,NORMAL,1.0,SCREENING,SCREENING,2024-01-29,-27
P261-402-USL261,PE,P261-402-USL261-USA_SITE06-0017,2,ABDOMEN,ABDOMEN,NORMAL,NORMAL,1.0,ENROLLMENT,TREATMENT,2024-02-25,1
P261-402-USL261,PE,P261-402-USL261-USA_SITE06-0017,3,CARDIOVA,CARDIOVASCULAR,NORMAL,NORMAL,1.0,SCREENING,SCREENING,2024-01-29,-27
P261-402-USL261,PE,P261-402-USL261-USA_SITE06-0017,4,CARDIOVA,CARDIOVASCULAR,NORMAL,NORMAL,1.0,ENROLLMENT,TREATMENT,2024-02-25,1
P261-402-USL261,PE,P261-402-USL261-USA_SITE06-0017,5,EARSNOSE,"EARS, NOSE, AND THROAT",NORMAL,NORMAL,1.0,SCREENING,SCREENING,2024-01-29,-27
P261-402-USL261,PE,P261-402-USL261-USA_SITE06-0017,6,EARSNOSE,"EARS, NOSE, AND THROAT",NORMAL,NORMAL,1.0,ENROLLMENT,TREATMENT,2024-02-25,1
P261-402-USL261,PE,P261-402-USL261-USA_SITE06-0017,7,EYES,EYES,NORMAL,NORMAL,1.0,SCREENING,SCREENING,2024-01-29,-27
P261-402-USL261,PE,P261-402-USL261-USA_SITE06-0017,8,EYES,EYES,NORMAL,NORMAL,1.0,ENROLLMENT,TREATMENT,2024-02-25,1
P261-402-USL261,PE,P261-402-USL261-USA_SITE06-0017,9,GENERALA,GENERAL APPEARANCE,NORMAL,NORMAL,1.0,SCREENING,SCREENING,2024-01-29,-27
P261-402-USL261,PE,P261-402-USL261-USA_SITE06-0017,10,GENERALA,GENERAL APPEARANCE,NORMAL,NORMAL,1.0,ENROLLMENT,TREATMENT,2024-02-25,1
P261-402-USL261,PE,P261-402-USL261-USA_SITE06-0017,11,HEADANDN,HEAD AND NECK,NORMAL,NORMAL,1.0,SCREENING,SCREENING,2024-01-29,-27
P261-402-USL261,PE,P261-402-USL261-USA_SITE06-0017,12,HEADANDN,HEAD AND NECK,NORMAL,NORMAL,1.0,ENROLLMENT,TREATMENT,2024-02-25,1
P261-402-USL261,PE,P261-402-USL261-USA_SITE06-0017,13,MUSCULOS,MUSCULOSKELETAL,NORMAL,NORMAL,1.0,SCREENING,SCREENING,2024-01-29,-27
P261-402-USL261,PE,P261-402-USL261-USA_SITE06-0017,14,MUSCULOS,MUSCULOSKELETAL,NORMAL,NORMAL,1.0,ENROLLMENT,TREATMENT,2024-02-25,1
P261-402-USL261,PE,P261-402-USL261-USA_SITE06-0017,15,NEUROLOG,NEUROLOGICAL,NORMAL,NORMAL,1.0,SCREENING,SCREENING,2024-01-29,-27
P261-402-USL261,PE,P261-402-USL261-USA_SITE06-0017,16,NEUROLOG,NEUROLOGICAL,NORMAL,NORMAL,1.0,ENROLLMENT,TREATMENT,2024-02-25,1
P261-402-USL261,PE,P261-402-USL261-USA_SITE06-0017,17,RESPIRAT,RESPIRATORY,NORMAL,NORMAL,1.0,SCREENING,SCREENING,2024-01-29,-27
P261-402-USL261,PE,P261-402-USL261-USA_SITE06-0017,18,RESPIRAT,RESPIRATORY,NORMAL,NORMAL,1.0,ENROLLMENT,TREATMENT,2024-02-25,1
P261-402-USL261,PE,P261-402-USL261-USA_SITE06-0017,19,SKIN,SKIN,NORMAL,NORMAL,1.0,SCREENING,SCREENING,2024-01-29,-27
P261-402-USL261,PE,P261-402-USL261-USA_SITE06-0017,20,SKIN,SKIN,NORMAL,NORMAL,1.0,ENROLLMENT,TREATMENT,2024-02-25,1
P261-402-USL261,PE,P261-402-USL261-USA_SITE07-0012,1,ABDOMEN,ABDOMEN,NORMAL,NORMAL,1.0,SCREENING,SCREENING,2024-03-19,-32
P261-402-USL261,PE,P261-402-USL261-USA_SITE07-0012,2,ABDOMEN,ABDOMEN,NORMAL,NORMAL,1.0,ENROLLMENT,TREATMENT,2024-04-20,1
P261-402-USL261,PE,P261-402-USL261-USA_SITE07-0012,3,CARDIOVA,CARDIOVASCULAR,NORMAL,NORMAL,1.0,SCREENING,SCREENING,2024-03-19,-32
P261-402-USL261,PE,P261-402-USL261-USA_SITE07-0012,4,CARDIOVA,CARDIOVASCULAR,NORMAL,NORMAL,1.0,ENROLLMENT,TREATMENT,2024-04-20,1
P261-402-USL261,PE,P261-402-USL261-USA_SITE07-0012,5,EARSNOSE,"EARS, NOSE, AND THROAT",NORMAL,NORMAL,1.0,SCREENING,SCREENING,2024-03-19,-32
P261-402-USL261,PE,P261-402-USL261-USA_SITE07-0012,6,EARSNOSE,"EARS, NOSE, AND THROAT",NORMAL,NORMAL,1.0,ENROLLMENT,TREATMENT,2024-04-20,1
P261-402-USL261,PE,P261-402-USL261-USA_SITE07-0012,7,EYES,EYES,NORMAL,NORMAL,1.0,SCREENING,SCREENING,2024-03-19,-32
P261-402-USL261,PE,P261-402-USL261-USA_SITE07-0012,8,EYES,EYES,NORMAL,NORMAL,1.0,ENROLLMENT,TREATMENT,2024-04-20,1
P261-402-USL261,PE,P261-402-USL261-USA_SITE07-0012,9,GENERALA,GENERAL APPEARANCE,NORMAL,NORMAL,1.0,SCREENING,SCREENING,2024-03-19,-32
P261-402-USL261,PE,P261-402-USL261-USA_SITE07-0012,10,GENERALA,GENERAL APPEARANCE,NORMAL,NORMAL,1.0,ENROLLMENT,TREATMENT,2024-04-20,1
P261-402-USL261,PE,P261-402-USL261-USA_SITE07-0012,11,HEADANDN,HEAD AND NECK,NORMAL,NORMAL,1.0,SCREENING,SCREENING,2024-03-19,-32
P261-402-USL261,PE,P261-402-USL261-USA_SITE07-0012,12,HEADANDN,HEAD AND NECK,NORMAL,NORMAL,1.0,ENROLLMENT,TREATMENT,2024-04-20,1
P261-402-USL261,PE,P261-402-USL261-USA_SITE07-0012,13,MUSCULOS,MUSCULOSKELETAL,NORMAL,NORMAL,1.0,SCREENING,SCREENING,2024-03-19,-32
P261-402-USL261,PE,P261-402-USL261-USA_SITE07-0012,14,MUSCULOS,MUSCULOSKELETAL,NORMAL,NORMAL,1.0,ENROLLMENT,TREATMENT,2024-04-20,1
P261-402-USL261,PE,P261-402-USL261-USA_SITE07-0012,15,NEUROLOG,NEUROLOGICAL,NORMAL,NORMAL,1.0,SCREENING,SCREENING,2024-03-19,-32
P261-402-USL261,PE,P261-402-USL261-USA_SITE07-0012,16,NEUROLOG,NEUROLOGICAL,NORMAL,NORMAL,1.0,ENROLLMENT,TREATMENT,2024-04-20,1
P261-402-USL261,PE,P261-402-USL261-USA_SITE07-0012,17,RESPIRAT,RESPIRATORY,NORMAL,NORMAL,1.0,SCREENING,SCREENING,2024-03-19,-32
P261-402-USL261,PE,P261-402-USL261-USA_SITE07-0012,18,RESPIRAT,RESPIRATORY,NORMAL,NORMAL,1.0,ENROLLMENT,TREATMENT,2024-04-20,1
P261-402-USL261,PE,P261-402-USL261-USA_SITE07-0012,19,SKIN,SKIN,NORMAL,NORMAL,1.0,SCREENING,SCREENING,2024-03-19,-32
P261-402-USL261,PE,P261-402-USL261-USA_SITE07-0012,20,SKIN,SKIN,NORMAL,NORMAL,1.0,ENROLLMENT,TREATMENT,2024-04-20,1
P261-402-USL261,PE,P261-402-USL261-USA_SITE09-0008,1,ABDOMEN,ABDOMEN,NORMAL,NORMAL,1.0,SCREENING,SCREENING,2024-03-01,-31
P261-402-USL261,PE,P261-402-USL261-USA_SITE09-0008,2,ABDOMEN,ABDOMEN,NORMAL,NORMAL,1.0,ENROLLMENT,TREATMENT,2024-04-01,1
P261-402-USL261,PE,P261-402-USL261-USA_SITE09-0008,3,CARDIOVA,CARDIOVASCULAR,NORMAL,NORMAL,1.0,SCREENING,SCREENING,2024-03-01,-31
P261-402-USL261,PE,P261-402-USL261-USA_SITE09-0008,4,CARDIOVA,CARDIOVASCULAR,NORMAL,NORMAL,1.0,ENROLLMENT,TREATMENT,2024-04-01,1
P261-402-USL261,PE,P261-402-USL261-USA_SITE09-0008,5,EARSNOSE,"EARS, NOSE, AND THROAT",NORMAL,NORMAL,1.0,SCREENING,SCREENING,2024-03-01,-31
P261-402-USL261,PE,P261-402-USL261-USA_SITE09-0008,6,EARSNOSE,"EARS, NOSE, AND THROAT",NORMAL,NORMAL,1.0,ENROLLMENT,TREATMENT,2024-04-01,1
P261-402-USL261,PE,P261-402-USL261-USA_SITE09-0008,7,EYES,EYES,NORMAL,NORMAL,1.0,SCREENING,SCREENING,2024-03-01,-31
P261-402-USL261,PE,P261-402-USL261-USA_SITE09-0008,8,EYES,EYES,NORMAL,NORMAL,1.0,ENROLLMENT,TREATMENT,2024-04-01,1
P261-402-USL261,PE,P261-402-USL261-USA_SITE09-0008,9,GENERALA,GENERAL APPEARANCE,NORMAL,NORMAL,1.0,SCREENING,SCREENING,2024-03-01,-31
P261-402-USL261,PE,P261-402-USL261-USA_SITE09-0008,10,GENERALA,GENERAL APPEARANCE,NORMAL,NORMAL,1.0,ENROLLMENT,TREATMENT,2024-04-01,1
P261-402-USL261,PE,P261-402-USL261-USA_SITE09-0008,11,HEADANDN,HEAD AND NECK,NORMAL,NORMAL,1.0,SCREENING,SCREENING,2024-03-01,-31
P261-402-USL261,PE,P261-402-USL261-USA_SITE09-0008,12,HEADANDN,HEAD AND NECK,NORMAL,NORMAL,1.0,ENROLLMENT,TREATMENT,2024-04-01,1
P261-402-USL261,PE,P261-402-USL261-USA_SITE09-0008,13,MUSCULOS,MUSCULOSKELETAL,JOINT SWELLING,JOINT SWELLING,1.0,SCREENING,SCREENING,2024-03-01,-31
P261-402-USL261,PE,P261-402-USL261-USA_SITE09-0008,14,MUSCULOS,MUSCULOSKELETAL,NORMAL,NORMAL,1.0,ENROLLMENT,TREATMENT,2024-04-01,1
P261-402-USL261,PE,P261-402-USL261-USA_SITE09-0008,15,NEUROLOG,NEUROLOGICAL,TREMOR,TREMOR,1.0,SCREENING,SCREENING,2024-03-01,-31
P261-402-USL261,PE,P261-402-USL261-USA_SITE09-0008,16,NEUROLOG,NEUROLOGICAL,NORMAL,NORMAL,1.0,ENROLLMENT,TREATMENT,2024-04-01,1
P261-402-USL261,PE,P261-402-USL261-USA_SITE09-0008,17,RESPIRAT,RESPIRATORY,NORMAL,NORMAL,1.0,SCREENING,SCREENING,2024-03-01,-31
P261-402-USL261,PE,P261-402-USL261-USA_SITE09-0008,18,RESPIRAT,RESPIRATORY,NORMAL,NORMAL,1.0,ENROLLMENT,TREATMENT,2024-04-01,1
P261-402-USL261,PE,P261-402-USL261-USA_SITE09-0008,19,SKIN,SKIN,NORMAL,NORMAL,1.0,SCREENING,SCREENING,2024-03-01,-31
P261-402-USL261,PE,P261-402-USL261-USA_SITE09-0008,20,SKIN,SKIN,NORMAL,NORMAL,1.0,ENROLLMENT,TREATMENT,2024-04-01,1
P261-402-USL261,PE,P261-402-USL261-USA_SITE12-0013,1,ABDOMEN,ABDOMEN,NORMAL,NORMAL,1.0,SCREENING,SCREENING,2024-03-10,-34
P261-402-USL261,PE,P261-402-USL261-USA_SITE12-0013,2,ABDOMEN,ABDOMEN,NORMAL,NORMAL,1.0,ENROLLMENT,TREATMENT,2024-04-13,1
P261-402-USL261,PE,P261-402-USL261-USA_SITE12-0013,3,CARDIOVA,CARDIOVASCULAR,NORMAL,NORMAL,1.0,SCREENING,SCREENING,2024-03-10,-34
P261-402-USL261,PE,P261-402-USL261-USA_SITE12-0013,4,CARDIOVA,CARDIOVASCULAR,NORMAL,NORMAL,1.0,ENROLLMENT,TREATMENT,2024-04-13,1
P261-402-USL261,PE,P261-402-USL261-USA_SITE12-0013,5,EARSNOSE,"EARS, NOSE, AND THROAT",NORMAL,NORMAL,1.0,SCREENING,SCREENING,2024-03-10,-34
P261-402-USL261,PE,P261-402-USL261-USA_SITE12-0013,6,EARSNOSE,"EARS, NOSE, AND THROAT",NORMAL,NORMAL,1.0,ENROLLMENT,TREATMENT,2024-04-13,1
P261-402-USL261,PE,P261-402-USL261-USA_SITE12-0013,7,EYES,EYES,NORMAL,NORMAL,1.0,SCREENING,SCREENING,2024-03-10,-34
P261-402-USL261,PE,P261-402-USL261-USA_SITE12-0013,8,EYES,EYES,NORMAL,NORMAL,1.0,ENROLLMENT,TREATMENT,2024-04-13,1
P261-402-USL261,PE,P261-402-USL261-USA_SITE12-0013,9,GENERALA,GENERAL APPEARANCE,NORMAL,NORMAL,1.0,SCREENING,SCREENING,2024-03-10,-34
P261-402-USL261,PE,P261-402-USL261-USA_SITE12-0013,10,GENERALA,GENERAL APPEARANCE,NORMAL,NORMAL,1.0,ENROLLMENT,TREATMENT,2024-04-13,1
P261-402-USL261,PE,P261-402-USL261-USA_SITE12-0013,11,HEADANDN,HEAD AND NECK,NORMAL,NORMAL,1.0,SCREENING,SCREENING,2024-03-10,-34
P261-402-USL261,PE,P261-402-USL261-USA_SITE12-0013,12,HEADANDN,HEAD AND NECK,NORMAL,NORMAL,1.0,ENROLLMENT,TREATMENT,2024-04-13,1
P261-402-USL261,PE,P261-402-USL261-USA_SITE12-0013,13,MUSCULOS,MUSCULOSKELETAL,NORMAL,NORMAL,1.0,SCREENING,SCREENING,2024-03-10,-34
P261-402-USL261,PE,P261-402-USL261-USA_SITE12-0013,14,MUSCULOS,MUSCULOSKELETAL,NORMAL,NORMAL,1.0,ENROLLMENT,TREATMENT,2024-04-13,1
P261-402-USL261,PE,P261-402-USL261-USA_SITE12-0013,15,NEUROLOG,NEUROLOGICAL,NORMAL,NORMAL,1.0,SCREENING,SCREENING,2024-03-10,-34
P261-402-USL261,PE,P261-402-USL261-USA_SITE12-0013,16,NEUROLOG,NEUROLOGICAL,NORMAL,NORMAL,1.0,ENROLLMENT,TREATMENT,2024-04-13,1
P261-402-USL261,PE,P261-402-USL261-USA_SITE12-0013,17,RESPIRAT,RESPIRATORY,NORMAL,NORMAL,1.0,SCREENING,SCREENING,2024-03-10,-34
P261-402-USL261,PE,P261-402-USL261-USA_SITE12-0013,18,RESPIRAT,RESPIRATORY,NORMAL,NORMAL,1.0,ENROLLMENT,TREATMENT,2024-04-13,1
P261-402-USL261,PE,P261-402-USL261-USA_SITE12-0013,19,SKIN,SKIN,NORMAL,NORMAL,1.0,SCREENING,SCREENING,2024-03-10,-34
P261-402-USL261,PE,P261-402-USL261-USA_SITE12-0013,20,SKIN,SKIN,NORMAL,NORMAL,1.0,ENROLLMENT,TREATMENT,2024-04-13,1
P261-402-USL261,PE,P261-402-USL261-USA_SITE13-0002,1,ABDOMEN,ABDOMEN,NORMAL,NORMAL,1.0,SCREENING,SCREENING,2024-03-25,-31
P261-402-USL261,PE,P261-402-USL261-USA_SITE13-0002,2,ABDOMEN,ABDOMEN,NORMAL,NORMAL,1.0,ENROLLMENT,TREATMENT,2024-04-25,1
P261-402-USL261,PE,P261-402-USL261-USA_SITE13-0002,3,CARDIOVA,CARDIOVASCULAR,NORMAL,NORMAL,1.0,SCREENING,SCREENING,2024-03-25,-31
P261-402-USL261,PE,P261-402-USL261-USA_SITE13-0002,4,CARDIOVA,CARDIOVASCULAR,NORMAL,NORMAL,1.0,ENROLLMENT,TREATMENT,2024-04-25,1
P261-402-USL261,PE,P261-402-USL261-USA_SITE13-0002,5,EARSNOSE,"EARS, NOSE, AND THROAT",NORMAL,NORMAL,1.0,SCREENING,SCREENING,2024-03-25,-31
P261-402-USL261,PE,P261-402-USL261-USA_SITE13-0002,6,EARSNOSE,"EARS, NOSE, AND THROAT",NORMAL,NORMAL,1.0,ENROLLMENT,TREATMENT,2024-04-25,1
P261-402-USL261,PE,P261-402-USL261-USA_SITE13-0002,7,EYES,EYES,NORMAL,NORMAL,1.0,SCREENING,SCREENING,2024-03-25,-31
P261-402-USL261,PE,P261-402-USL261-USA_SITE13-0002,8,EYES,EYES,NORMAL,NORMAL,1.0,ENROLLMENT,TREATMENT,2024-04-25,1
P261-402-USL261,PE,P261-402-USL261-USA_SITE13-0002,9,GENERALA,GENERAL APPEARANCE,NORMAL,NORMAL,1.0,SCREENING,SCREENING,2024-03-25,-31
P261-402-USL261,PE,P261-402-USL261-USA_SITE13-0002,10,GENERALA,GENERAL APPEARANCE,NORMAL,NORMAL,1.0,ENROLLMENT,TREATMENT,2024-04-25,1
P261-402-USL261,PE,P261-402-USL261-USA_SITE13-0002,11,HEADANDN,HEAD AND NECK,NORMAL,NORMAL,1.0,SCREENING,SCREENING,2024-03-25,-31
P261-402-USL261,PE,P261-402-USL261-USA_SITE13-0002,12,HEADANDN,HEAD AND NECK,NORMAL,NORMAL,1.0,ENROLLMENT,TREATMENT,2024-04-25,1
P261-402-USL261,PE,P261-402-USL261-USA_SITE13-0002,13,MUSCULOS,MUSCULOSKELETAL,NORMAL,NORMAL,1.0,SCREENING,SCREENING,2024-03-25,-31
P261-402-USL261,PE,P261-402-USL261-USA_SITE13-0002,14,MUSCULOS,MUSCULOSKELETAL,NORMAL,NORMAL,1.0,ENROLLMENT,TREATMENT,2024-04-25,1
P261-402-USL261,PE,P261-402-USL261-USA_SITE13-0002,15,NEUROLOG,NEUROLOGICAL,NORMAL,NORMAL,1.0,SCREENING,SCREENING,2024-03-25,-31
P261-402-USL261,PE,P261-402-USL261-USA_SITE13-0002,16,NEUROLOG,NEUROLOGICAL,NORMAL,NORMAL,1.0,ENROLLMENT,TREATMENT,2024-04-25,1
P261-402-USL261,PE,P261-402-USL261-USA_SITE13-0002,17,RESPIRAT,RESPIRATORY,NORMAL,NORMAL,1.0,SCREENING,SCREENING,2024-03-25,-31
P261-402-USL261,PE,P261-402-USL261-USA_SITE13-0002,18,RESPIRAT,RESPIRATORY,NORMAL,NORMAL,1.0,ENROLLMENT,TREATMENT,2024-04-25,1
P261-402-USL261,PE,P261-402-USL261-USA_SITE13-0002,19,SKIN,SKIN,NORMAL,NORMAL,1.0,SCREENING,SCREENING,2024-03-25,-31
P261-402-USL261,PE,P261-402-USL261-USA_SITE13-0002,20,SKIN,SKIN,NORMAL,NORMAL,1.0,ENROLLMENT,TREATMENT,2024-04-25,1
P261-402-USL261,PE,P261-402-USL261-USA_SITE14-0001,1,ABDOMEN,ABDOMEN,NORMAL,NORMAL,1.0,SCREENING,SCREENING,2024-03-21,-7
P261-402-USL261,PE,P261-402-USL261-USA_SITE14-0001,2,ABDOMEN,ABDOMEN,NORMAL,NORMAL,1.0,ENROLLMENT,TREATMENT,2024-03-28,1
P261-402-USL261,PE,P261-402-USL261-USA_SITE14-0001,3,CARDIOVA,CARDIOVASCULAR,NORMAL,NORMAL,1.0,SCREENING,SCREENING,2024-03-21,-7
P261-402-USL261,PE,P261-402-USL261-USA_SITE14-0001,4,CARDIOVA,CARDIOVASCULAR,NORMAL,NORMAL,1.0,ENROLLMENT,TREATMENT,2024-03-28,1
P261-402-USL261,PE,P261-402-USL261-USA_SITE14-0001,5,EARSNOSE,"EARS, NOSE, AND THROAT",NORMAL,NORMAL,1.0,SCREENING,SCREENING,2024-03-21,-7
P261-402-USL261,PE,P261-402-USL261-USA_SITE14-0001,6,EARSNOSE,"EARS, NOSE, AND THROAT",NORMAL,NORMAL,1.0,ENROLLMENT,TREATMENT,2024-03-28,1
P261-402-USL261,PE,P261-402-USL261-USA_SITE14-0001,7,EYES,EYES,CONJUNCTIVAL PALLOR,CONJUNCTIVAL PALLOR,1.0,SCREENING,SCREENING,2024-03-21,-7
P261-402-USL261,PE,P261-402-USL261-USA_SITE14-0001,8,EYES,EYES,NORMAL,NORMAL,1.0,ENROLLMENT,TREATMENT,2024-03-28,1
P261-402-USL261,PE,P261-402-USL261-USA_SITE14-0001,9,GENERALA,GENERAL APPEARANCE,NORMAL,NORMAL,1.0,SCREENING,SCREENING,2024-03-21,-7
P261-402-USL261,PE,P261-402-USL261-USA_SITE14-0001,10,GENERALA,GENERAL APPEARANCE,NORMAL,NORMAL,1.0,ENROLLMENT,TREATMENT,2024-03-28,1
P261-402-USL261,PE,P261-402-USL261-USA_SITE14-0001,11,HEADANDN,HEAD AND NECK,NORMAL,NORMAL,1.0,SCREENING,SCREENING,2024-03-21,-7
P261-402-USL261,PE,P261-402-USL261-USA_SITE14-0001,12,HEADANDN,HEAD AND NECK,NORMAL,NORMAL,1.0,ENROLLMENT,TREATMENT,2024-03-28,1
P261-402-USL261,PE,P261-402-USL261-USA_SITE14-0001,13,MUSCULOS,MUSCULOSKELETAL,NORMAL,NORMAL,1.0,SCREENING,SCREENING,2024-03-21,-7
P261-402-USL261,PE,P261-402-USL261-USA_SITE14-0001,14,MUSCULOS,MUSCULOSKELETAL,NORMAL,NORMAL,1.0,ENROLLMENT,TREATMENT,2024-03-28,1
P261-402-USL261,PE,P261-402-USL261-USA_SITE14-0001,15,NEUROLOG,NEUROLOGICAL,NORMAL,NORMAL,1.0,SCREENING,SCREENING,2024-03-21,-7
P261-402-USL261,PE,P261-402-USL261-USA_SITE14-0001,16,NEUROLOG,NEUROLOGICAL,NORMAL,NORMAL,1.0,ENROLLMENT,TREATMENT,2024-03-28,1
P261-402-USL261,PE,P261-402-USL261-USA_SITE14-0001,17,RESPIRAT,RESPIRATORY,NORMAL,NORMAL,1.0,SCREENING,SCREENING,2024-03-21,-7
P261-402-USL261,PE,P261-402-USL261-USA_SITE14-0001,18,RESPIRAT,RESPIRATORY,NORMAL,NORMAL,1.0,ENROLLMENT,TREATMENT,2024-03-28,1
P261-402-USL261,PE,P261-402-USL261-USA_SITE14-0001,19,SKIN,SKIN,NORMAL,NORMAL,1.0,SCREENING,SCREENING,2024-03-21,-7
P261-402-USL261,PE,P261-402-USL261-USA_SITE14-0001,20,SKIN,SKIN,NORMAL,NORMAL,1.0,ENROLLMENT,TREATMENT,2024-03-28,1
P261-402-USL261,PE,P261-402-USL261-USA_SITE14-0010,1,ABDOMEN,ABDOMEN,NORMAL,NORMAL,1.0,SCREENING,SCREENING,2024-03-13,-31
P261-402-USL261,PE,P261-402-USL261-USA_SITE14-0010,2,ABDOMEN,ABDOMEN,NORMAL,NORMAL,1.0,ENROLLMENT,TREATMENT,2024-04-13,1
P261-402-USL261,PE,P261-402-USL261-USA_SITE14-0010,3,CARDIOVA,CARDIOVASCULAR,NORMAL,NORMAL,1.0,SCREENING,SCREENING,2024-03-13,-31
P261-402-USL261,PE,P261-402-USL261-USA_SITE14-0010,4,CARDIOVA,CARDIOVASCULAR,NORMAL,NORMAL,1.0,ENROLLMENT,TREATMENT,2024-04-13,1
P261-402-USL261,PE,P261-402-USL261-USA_SITE14-0010,5,EARSNOSE,"EARS, NOSE, AND THROAT",NORMAL,NORMAL,1.0,SCREENING,SCREENING,2024-03-13,-31
P261-402-USL261,PE,P261-402-USL261-USA_SITE14-0010,6,EARSNOSE,"EARS, NOSE, AND THROAT",NORMAL,NORMAL,1.0,ENROLLMENT,TREATMENT,2024-04-13,1
P261-402-USL261,PE,P261-402-USL261-USA_SITE14-0010,7,EYES,EYES,NORMAL,NORMAL,1.0,SCREENING,SCREENING,2024-03-13,-31
P261-402-USL261,PE,P261-402-USL261-USA_SITE14-0010,8,EYES,EYES,NORMAL,NORMAL,1.0,ENROLLMENT,TREATMENT,2024-04-13,1
P261-402-USL261,PE,P261-402-USL261-USA_SITE14-0010,9,GENERALA,GENERAL APPEARANCE,NORMAL,NORMAL,1.0,SCREENING,SCREENING,2024-03-13,-31
P261-402-USL261,PE,P261-402-USL261-USA_SITE14-0010,10,GENERALA,GENERAL APPEARANCE,NORMAL,NORMAL,1.0,ENROLLMENT,TREATMENT,2024-04-13,1
P261-402-USL261,PE,P261-402-USL261-USA_SITE14-0010,11,HEADANDN,HEAD AND NECK,NORMAL,NORMAL,1.0,SCREENING,SCREENING,2024-03-13,-31
P261-402-USL261,PE,P261-402-USL261-USA_SITE14-0010,12,HEADANDN,HEAD AND NECK,NORMAL,NORMAL,1.0,ENROLLMENT,TREATMENT,2024-04-13,1
P261-402-USL261,PE,P261-402-USL261-USA_SITE14-0010,13,MUSCULOS,MUSCULOSKELETAL,NORMAL,NORMAL,1.0,SCREENING,SCREENING,2024-03-13,-31
P261-402-USL261,PE,P261-402-USL261-USA_SITE14-0010,14,MUSCULOS,MUSCULOSKELETAL,NORMAL,NORMAL,1.0,ENROLLMENT,TREATMENT,2024-04-13,1
P261-402-USL261,PE,P261-402-USL261-USA_SITE14-0010,15,NEUROLOG,NEUROLOGICAL,NORMAL,NORMAL,1.0,SCREENING,SCREENING,2024-03-13,-31
P261-402-USL261,PE,P261-402-USL261-USA_SITE14-0010,16,NEUROLOG,NEUROLOGICAL,NORMAL,NORMAL,1.0,ENROLLMENT,TREATMENT,2024-04-13,1
P261-402-USL261,PE,P261-402-USL261-USA_SITE14-0010,17,RESPIRAT,RESPIRATORY,NORMAL,NORMAL,1.0,SCREENING,SCREENING,2024-03-13,-31
P261-402-USL261,PE,P261-402-USL261-USA_SITE14-0010,18,RESPIRAT,RESPIRATORY,NORMAL,NORMAL,1.0,ENROLLMENT,TREATMENT,2024-04-13,1
P261-402-USL261,PE,P261-402-USL261-USA_SITE14-0010,19,SKIN,SKIN,NORMAL,NORMAL,1.0,SCREENING,SCREENING,2024-03-13,-31
P261-402-USL261,PE,P261-402-USL261-USA_SITE14-0010,20,SKIN,SKIN,RASH,RASH,1.0,ENROLLMENT,TREATMENT,2024-04-13,1
P261-402-USL261,PE,P261-402-USL261-USA_SITE14-0016,1,ABDOMEN,ABDOMEN,NORMAL,NORMAL,1.0,SCREENING,SCREENING,2024-03-30,-27
P261-402-USL261,PE,P261-402-USL261-USA_SITE14-0016,2,ABDOMEN,ABDOMEN,NORMAL,NORMAL,1.0,ENROLLMENT,TREATMENT,2024-04-26,1
P261-402-USL261,PE,P261-402-USL261-USA_SITE14-0016,3,CARDIOVA,CARDIOVASCULAR,NORMAL,NORMAL,1.0,SCREENING,SCREENING,2024-03-30,-27
P261-402-USL261,PE,P261-402-USL261-USA_SITE14-0016,4,CARDIOVA,CARDIOVASCULAR,NORMAL,NORMAL,1.0,ENROLLMENT,TREATMENT,2024-04-26,1
P261-402-USL261,PE,P261-402-USL261-USA_SITE14-0016,5,EARSNOSE,"EARS, NOSE, AND THROAT",NORMAL,NORMAL,1.0,SCREENING,SCREENING,2024-03-30,-27
P261-402-USL261,PE,P261-402-USL261-USA_SITE14-0016,6,EARSNOSE,"EARS, NOSE, AND THROAT",NORMAL,NORMAL,1.0,ENROLLMENT,TREATMENT,2024-04-26,1
P261-402-USL261,PE,P261-402-USL261-USA_SITE14-0016,7,EYES,EYES,NORMAL,NORMAL,1.0,SCREENING,SCREENING,2024-03-30,-27
P261-402-USL261,PE,P261-402-USL261-USA_SITE14-0016,8,EYES,EYES,ICTERUS,ICTERUS,1.0,ENROLLMENT,TREATMENT,2024-04-26,1
P261-402-USL261,PE,P261-402-USL261-USA_SITE14-0016,9,GENERALA,GENERAL APPEARANCE,NORMAL,NORMAL,1.0,SCREENING,SCREENING,2024-03-30,-27
P261-402-USL261,PE,P261-402-USL261-USA_SITE14-0016,10,GENERALA,GENERAL APPEARANCE,NORMAL,NORMAL,1.0,ENROLLMENT,TREATMENT,2024-04-26,1
P261-402-USL261,PE,P261-402-USL261-USA_SITE14-0016,11,HEADANDN,HEAD AND NECK,NORMAL,NORMAL,1.0,SCREENING,SCREENING,2024-03-30,-27
P261-402-USL261,PE,P261-402-USL261-USA_SITE14-0016,12,HEADANDN,HEAD AND NECK,NORMAL,NORMAL,1.0,ENROLLMENT,TREATMENT,2024-04-26,1
P261-402-USL261,PE,P261-402-USL261-USA_SITE14-0016,13,MUSCULOS,MUSCULOSKELETAL,NORMAL,NORMAL,1.0,SCREENING,SCREENING,2024-03-30,-27
P261-402-USL261,PE,P261-402-USL261-USA_SITE14-0016,14,MUSCULOS,MUSCULOSKELETAL,LIMITED RANGE OF MOTION,LIMITED RANGE OF MOTION,1.0,ENROLLMENT,TREATMENT,2024-04-26,1
P261-402-USL261,PE,P261-402-USL261-USA_SITE14-0016,15,NEUROLOG,NEUROLOGICAL,NORMAL,NORMAL,1.0,SCREENING,SCREENING,2024-03-30,-27
P261-402-USL261,PE,P261-402-USL261-USA_SITE14-0016,16,NEUROLOG,NEUROLOGICAL,NORMAL,NORMAL,1.0,ENROLLMENT,TREATMENT,2024-04-26,1
P261-402-USL261,PE,P261-402-USL261-USA_SITE14-0016,17,RESPIRAT,RESPIRATORY,NORMAL,NORMAL,1.0,SCREENING,SCREENING,2024-03-30,-27
P261-402-USL261,PE,P261-402-USL261-USA_SITE14-0016,18,RESPIRAT,RESPIRATORY,NORMAL,NORMAL,1.0,ENROLLMENT,TREATMENT,2024-04-26,1
P261-402-USL261,PE,P261-402-USL261-USA_SITE14-0016,19,SKIN,SKIN,NORMAL,NORMAL,1.0,SCREENING,SCREENING,2024-03-30,-27
P261-402-USL261,PE,P261-402-USL261-USA_SITE14-0016,20,SKIN,SKIN,NORMAL,NORMAL,1.0,ENROLLMENT,TREATMENT,2024-04-26,1
P261-402-USL261,PE,P261-402-USL261-USA_SITE15-0003,1,ABDOMEN,ABDOMEN,NORMAL,NORMAL,1.0,SCREENING,SCREENING,2024-02-26,-13
P261-402-USL261,PE,P261-402-USL261-USA_SITE15-0003,2,ABDOMEN,ABDOMEN,NORMAL,NORMAL,1.0,ENROLLMENT,TREATMENT,2024-03-10,1
P261-402-USL261,PE,P261-402-USL261-USA_SITE15-0003,3,CARDIOVA,CARDIOVASCULAR,NORMAL,NORMAL,1.0,SCREENING,SCREENING,2024-02-26,-13
P261-402-USL261,PE,P261-402-USL261-USA_SITE15-0003,4,CARDIOVA,CARDIOVASCULAR,NORMAL,NORMAL,1.0,ENROLLMENT,TREATMENT,2024-03-10,1
P261-402-USL261,PE,P261-402-USL261-USA_SITE15-0003,5,EARSNOSE,"EARS, NOSE, AND THROAT",NORMAL,NORMAL,1.0,SCREENING,SCREENING,2024-02-26,-13
P261-402-USL261,PE,P261-402-USL261-USA_SITE15-0003,6,EARSNOSE,"EARS, NOSE, AND THROAT",NORMAL,NORMAL,1.0,ENROLLMENT,TREATMENT,2024-03-10,1
P261-402-USL261,PE,P261-402-USL261-USA_SITE15-0003,7,EYES,EYES,NORMAL,NORMAL,1.0,SCREENING,SCREENING,2024-02-26,-13
P261-402-USL261,PE,P261-402-USL261-USA_SITE15-0003,8,EYES,EYES,NORMAL,NORMAL,1.0,ENROLLMENT,TREATMENT,2024-03-10,1
P261-402-USL261,PE,P261-402-USL261-USA_SITE15-0003,9,GENERALA,GENERAL APPEARANCE,NORMAL,NORMAL,1.0,SCREENING,SCREENING,2024-02-26,-13
P261-402-USL261,PE,P261-402-USL261-USA_SITE15-0003,10,GENERALA,GENERAL APPEARANCE,NORMAL,NORMAL,1.0,ENROLLMENT,TREATMENT,2024-03-10,1
P261-402-USL261,PE,P261-402-USL261-USA_SITE15-0003,11,HEADANDN,HEAD AND NECK,NORMAL,NORMAL,1.0,SCREENING,SCREENING,2024-02-26,-13
P261-402-USL261,PE,P261-402-USL261-USA_SITE15-0003,12,HEADANDN,HEAD AND NECK,NORMAL,NORMAL,1.0,ENROLLMENT,TREATMENT,2024-03-10,1
P261-402-USL261,PE,P261-402-USL261-USA_SITE15-0003,13,MUSCULOS,MUSCULOSKELETAL,NORMAL,NORMAL,1.0,SCREENING,SCREENING,2024-02-26,-13
P261-402-USL261,PE,P261-402-USL261-USA_SITE15-0003,14,MUSCULOS,MUSCULOSKELETAL,NORMAL,NORMAL,1.0,ENROLLMENT,TREATMENT,2024-03-10,1
P261-402-USL261,PE,P261-402-USL261-USA_SITE15-0003,15,NEUROLOG,NEUROLOGICAL,NORMAL,NORMAL,1.0,SCREENING,SCREENING,2024-02-26,-13
P261-402-USL261,PE,P261-402-USL261-USA_SITE15-0003,16,NEUROLOG,NEUROLOGICAL,NORMAL,NORMAL,1.0,ENROLLMENT,TREATMENT,2024-03-10,1
P261-402-USL261,PE,P261-402-USL261-USA_SITE15-0003,17,RESPIRAT,RESPIRATORY,DECREASED BREATH SOUNDS,DECREASED BREATH SOUNDS,1.0,SCREENING,SCREENING,2024-02-26,-13
P261-402-USL261,PE,P261-402-USL261-USA_SITE15-0003,18,RESPIRAT,RESPIRATORY,NORMAL,NORMAL,1.0,ENROLLMENT,TREATMENT,2024-03-10,1
P261-402-USL261,PE,P261-402-USL261-USA_SITE15-0003,19,SKIN,SKIN,NORMAL,NORMAL,1.0,SCREENING,SCREENING,2024-02-26,-13
P261-402-USL261,PE,P261-402-USL261-USA_SITE15-0003,20,SKIN,SKIN,NORMAL,NORMAL,1.0,ENROLLMENT,TREATMENT,2024-03-10,1
P261-402-USL261,PE,P261-402-USL261-USA_SITE15-0004,1,ABDOMEN,ABDOMEN,NORMAL,NORMAL,1.0,SCREENING,SCREENING,2024-01-20,-13
P261-402-USL261,PE,P261-402-USL261-USA_SITE15-0004,2,ABDOMEN,ABDOMEN,NORMAL,NORMAL,1.0,ENROLLMENT,TREATMENT,2024-02-02,1
P261-402-USL261,PE,P261-402-USL261-USA_SITE15-0004,3,CARDIOVA,CARDIOVASCULAR,NORMAL,NORMAL,1.0,SCREENING,SCREENING,2024-01-20,-13
P261-402-USL261,PE,P261-402-USL261-USA_SITE15-0004,4,CARDIOVA,CARDIOVASCULAR,NORMAL,NORMAL,1.0,ENROLLMENT,TREATMENT,2024-02-02,1
P261-402-USL261,PE,P261-402-USL261-USA_SITE15-0004,5,EARSNOSE,"EARS, NOSE, AND THROAT",NORMAL,NORMAL,1.0,SCREENING,SCREENING,2024-01-20,-13
P261-402-USL261,PE,P261-402-USL261-USA_SITE15-0004,6,EARSNOSE,"EARS, NOSE, AND THROAT",NORMAL,NORMAL,1.0,ENROLLMENT,TREATMENT,2024-02-02,1
P261-402-USL261,PE,P261-402-USL261-USA_SITE15-0004,7,EYES,EYES,NORMAL,NORMAL,1.0,SCREENING,SCREENING,2024-01-20,-13
P261-402-USL261,PE,P261-402-USL261-USA_SITE15-0004,8,EYES,EYES,NORMAL,NORMAL,1.0,ENROLLMENT,TREATMENT,2024-02-02,1
P261-402-USL261,PE,P261-402-USL261-USA_SITE15-0004,9,GENERALA,GENERAL APPEARANCE,NORMAL,NORMAL,1.0,SCREENING,SCREENING,2024-01-20,-13
P261-402-USL261,PE,P261-402-USL261-USA_SITE15-0004,10,GENERALA,GENERAL APPEARANCE,NORMAL,NORMAL,1.0,ENROLLMENT,TREATMENT,2024-02-02,1
P261-402-USL261,PE,P261-402-USL261-USA_SITE15-0004,11,HEADANDN,HEAD AND NECK,NORMAL,NORMAL,1.0,SCREENING,SCREENING,2024-01-20,-13
P261-402-USL261,PE,P261-402-USL261-USA_SITE15-0004,12,HEADANDN,HEAD AND NECK,NORMAL,NORMAL,1.0,ENROLLMENT,TREATMENT,2024-02-02,1
P261-402-USL261,PE,P261-402-USL261-USA_SITE15-0004,13,MUSCULOS,MUSCULOSKELETAL,NORMAL,NORMAL,1.0,SCREENING,SCREENING,2024-01-20,-13
P261-402-USL261,PE,P261-402-USL261-USA_SITE15-0004,14,MUSCULOS,MUSCULOSKELETAL,NORMAL,NORMAL,1.0,ENROLLMENT,TREATMENT,2024-02-02,1
P261-402-USL261,PE,P261-402-USL261-USA_SITE15-0004,15,NEUROLOG,NEUROLOGICAL,NORMAL,NORMAL,1.0,SCREENING,SCREENING,2024-01-20,-13
P261-402-USL261,PE,P261-402-USL261-USA_SITE15-0004,16,NEUROLOG,NEUROLOGICAL,NORMAL,NORMAL,1.0,ENROLLMENT,TREATMENT,2024-02-02,1
P261-402-USL261,PE,P261-402-USL261-USA_SITE15-0004,17,RESPIRAT,RESPIRATORY,NORMAL,NORMAL,1.0,SCREENING,SCREENING,2024-01-20,-13
P261-402-USL261,PE,P261-402-USL261-USA_SITE15-0004,18,RESPIRAT,RESPIRATORY,NORMAL,NORMAL,1.0,ENROLLMENT,TREATMENT,2024-02-02,1
P261-402-USL261,PE,P261-402-USL261-USA_SITE15-0004,19,SKIN,SKIN,NORMAL,NORMAL,1.0,SCREENING,SCREENING,2024-01-20,-13
P261-402-USL261,PE,P261-402-USL261-USA_SITE15-0004,20,SKIN,SKIN,NORMAL,NORMAL,1.0,ENROLLMENT,TREATMENT,2024-02-02,1
