{"subject_id":"P261-402-USL261-USA_SITE09-0008","study_id":"P261-402-USL261","generated_at":"2026-07-07T06:05:37.992446+00:00","sdtmig_version":"3.4","flags":{"has_serious_ae":true,"has_fatal_ae":false,"has_protocol_deviation":true,"n_protocol_deviations":4,"n_adverse_events":33,"n_concomitant_meds":13,"max_ae_severity":"SEVERE","screen_failure":false,"discontinued_early":false,"discontinuation_reason":null,"death":false,"exposure_days":1111},"timeline":[{"dtc":"2006-03-06","dy":"-6601","event":"CM START: AMLODIPINE","domain":"CM","category":"concomitant_med"},{"dtc":"2024-03-01","dy":"-31","event":"INFORMED CONSENT OBTAINED","domain":"DS","category":"milestone"},{"dtc":"2024-04-01","dy":"1","event":"RANDOMIZED","domain":"DS","category":"milestone"},{"dtc":"2024-04-01","dy":"1","event":"VISIT: ENROLLMENT","domain":"SV","category":"visit"},{"dtc":"2024-06-24","dy":"85","event":"VISIT: VISIT 2","domain":"SV","category":"visit"},{"dtc":"2024-07-09","dy":"100","event":"AE: Headache (MILD)","domain":"AE","category":"adverse_event"},{"dtc":"2024-07-09","dy":"100","event":"CM START: IBUPROFEN","domain":"CM","category":"concomitant_med"},{"dtc":"2024-08-14","dy":"136","event":"AE: Lacrimation increased (MODERATE)","domain":"AE","category":"adverse_event"},{"dtc":"2024-09-07","dy":"160","event":"FIRST DOSE: MIDAZOLAM","domain":"EX","category":"exposure"},{"dtc":"2024-10-03","dy":"186","event":"DEVIATION: VISIT OCCURRED OUTSIDE VISIT WINDOW","domain":"DV","category":"deviation"},{"dtc":"2024-10-03","dy":"186","event":"VISIT: VISIT 3","domain":"SV","category":"visit"},{"dtc":"2024-11-02","dy":"216","event":"AE: Dysgeusia (MILD)","domain":"AE","category":"adverse_event"},{"dtc":"2024-11-02","dy":"216","event":"CM START: PARACETAMOL","domain":"CM","category":"concomitant_med"},{"dtc":"2024-11-11","dy":"225","event":"AE: Headache (MILD)","domain":"AE","category":"adverse_event"},{"dtc":"2024-12-15","dy":"259","event":"AE: Dizziness (MILD)","domain":"AE","category":"adverse_event"},{"dtc":"2024-12-15","dy":"259","event":"CM START: MECLIZINE","domain":"CM","category":"concomitant_med"},{"dtc":"2025-01-07","dy":"282","event":"VISIT: VISIT 4","domain":"SV","category":"visit"},{"dtc":"2025-01-18","dy":"293","event":"AE: Headache (SEVERE) [SERIOUS]","domain":"AE","category":"adverse_event"},{"dtc":"2025-01-18","dy":"293","event":"CM START: IBUPROFEN","domain":"CM","category":"concomitant_med"},{"dtc":"2025-02-13","dy":"319","event":"AE: Headache (MODERATE)","domain":"AE","category":"adverse_event"},{"dtc":"2025-02-13","dy":"319","event":"CM START: PARACETAMOL","domain":"CM","category":"concomitant_med"},{"dtc":"2025-04-04","dy":"369","event":"VISIT: VISIT 5","domain":"SV","category":"visit"},{"dtc":"2025-05-13","dy":"408","event":"AE: Headache (MILD)","domain":"AE","category":"adverse_event"},{"dtc":"2025-05-13","dy":"408","event":"CM START: IBUPROFEN","domain":"CM","category":"concomitant_med"},{"dtc":"2025-05-24","dy":"419","event":"AE: Headache (SEVERE) [SERIOUS]","domain":"AE","category":"adverse_event"},{"dtc":"2025-05-24","dy":"419","event":"CM START: IBUPROFEN","domain":"CM","category":"concomitant_med"},{"dtc":"2025-07-21","dy":"477","event":"DEVIATION: MISSED DOSE","domain":"DV","category":"deviation"},{"dtc":"2025-09-16","dy":"534","event":"AE: Somnolence (MODERATE)","domain":"AE","category":"adverse_event"},{"dtc":"2025-10-01","dy":"549","event":"DEVIATION: VISIT OCCURRED OUTSIDE VISIT WINDOW","domain":"DV","category":"deviation"},{"dtc":"2025-10-01","dy":"549","event":"VISIT: VISIT 6","domain":"SV","category":"visit"},{"dtc":"2025-10-16","dy":"564","event":"AE: Headache (MILD)","domain":"AE","category":"adverse_event"},{"dtc":"2025-10-22","dy":"570","event":"AE: Fatigue (MILD)","domain":"AE","category":"adverse_event"},{"dtc":"2025-12-20","dy":"629","event":"AE: Somnolence (MILD)","domain":"AE","category":"adverse_event"},{"dtc":"2026-01-12","dy":"652","event":"AE: Dysgeusia (SEVERE) [SERIOUS]","domain":"AE","category":"adverse_event"},{"dtc":"2026-03-24","dy":"723","event":"DEVIATION: VISIT OCCURRED OUTSIDE VISIT WINDOW","domain":"DV","category":"deviation"},{"dtc":"2026-03-24","dy":"723","event":"VISIT: VISIT 7","domain":"SV","category":"visit"},{"dtc":"2026-06-11","dy":"802","event":"AE: Lacrimation increased (SEVERE) [SERIOUS]","domain":"AE","category":"adverse_event"},{"dtc":"2026-06-11","dy":"802","event":"CM START: PARACETAMOL","domain":"CM","category":"concomitant_med"},{"dtc":"2026-07-02","dy":"823","event":"AE: Dizziness (MODERATE)","domain":"AE","category":"adverse_event"},{"dtc":"2026-07-24","dy":"845","event":"AE: Nasal discomfort (SEVERE) [SERIOUS]","domain":"AE","category":"adverse_event"},{"dtc":"2026-07-24","dy":"845","event":"CM START: IBUPROFEN","domain":"CM","category":"concomitant_med"},{"dtc":"2026-08-30","dy":"882","event":"AE: Somnolence (MODERATE)","domain":"AE","category":"adverse_event"},{"dtc":"2026-10-30","dy":"943","event":"AE: Lacrimation increased (MILD)","domain":"AE","category":"adverse_event"},{"dtc":"2026-11-13","dy":"957","event":"AE: Somnolence (MILD)","domain":"AE","category":"adverse_event"},{"dtc":"2026-12-31","dy":"1005","event":"AE: Headache (MODERATE)","domain":"AE","category":"adverse_event"},{"dtc":"2026-12-31","dy":"1005","event":"CM START: PARACETAMOL","domain":"CM","category":"concomitant_med"},{"dtc":"2027-01-02","dy":"1007","event":"AE: Fatigue (MILD)","domain":"AE","category":"adverse_event"},{"dtc":"2027-02-08","dy":"1044","event":"AE: Nausea (MODERATE)","domain":"AE","category":"adverse_event"},{"dtc":"2027-02-08","dy":"1044","event":"CM START: ONDANSETRON","domain":"CM","category":"concomitant_med"},{"dtc":"2027-03-19","dy":"1083","event":"AE: Lacrimation increased (MODERATE)","domain":"AE","category":"adverse_event"},{"dtc":"2027-03-19","dy":"1083","event":"CM START: PARACETAMOL","domain":"CM","category":"concomitant_med"},{"dtc":"2027-03-28","dy":"1092","event":"VISIT: VISIT 8","domain":"SV","category":"visit"},{"dtc":"2027-04-10","dy":"1105","event":"AE: Fatigue (MILD)","domain":"AE","category":"adverse_event"},{"dtc":"2027-05-12","dy":"1137","event":"AE: Rhinorrhoea (MILD)","domain":"AE","category":"adverse_event"},{"dtc":"2027-05-18","dy":"1143","event":"AE: Nasal discomfort (MILD)","domain":"AE","category":"adverse_event"},{"dtc":"2027-05-22","dy":"1147","event":"AE: Somnolence (SEVERE) [SERIOUS]","domain":"AE","category":"adverse_event"},{"dtc":"2027-05-29","dy":"1154","event":"AE: Fatigue (SEVERE) [SERIOUS]","domain":"AE","category":"adverse_event"},{"dtc":"2027-06-06","dy":"1162","event":"AE: Rhinorrhoea (MILD)","domain":"AE","category":"adverse_event"},{"dtc":"2027-07-04","dy":"1190","event":"AE: Fatigue (MILD)","domain":"AE","category":"adverse_event"},{"dtc":"2027-09-23","dy":"1271","event":"LAST DOSE: MIDAZOLAM","domain":"EX","category":"exposure"},{"dtc":"2027-11-13","dy":"1322","event":"AE: Somnolence (MILD)","domain":"AE","category":"adverse_event"},{"dtc":"2028-02-03","dy":"1404","event":"VISIT: VISIT 9","domain":"SV","category":"visit"},{"dtc":"2028-02-16","dy":"1417","event":"AE: Somnolence (MODERATE)","domain":"AE","category":"adverse_event"},{"dtc":"2028-03-20","dy":"1450","event":"VISIT: FINAL VISIT","domain":"SV","category":"visit"},{"dtc":"2028-03-30","dy":"1460","event":"COMPLETED","domain":"DS","category":"milestone"}],"section_1_demographics":{"usubjid":"P261-402-USL261-USA_SITE09-0008","subjid":"0008","siteid":"USA_SITE09","age":"27","ageu":"YEARS","sex":"F","race":"BLACK OR AFRICAN AMERICAN","ethnicity":"NOT HISPANIC OR LATINO","country":"USA","arm":"USL261 5 mg intranasal PRN per seizure cluster","armcd":"USL261","actarm":"USL261 5 mg intranasal PRN per seizure cluster","actarmcd":"USL261","randomization_date":null,"informed_consent_date":"2024-03-01","reference_start_date":"2024-04-01","reference_end_date":"2028-03-30","screen_failure":false,"death_flag":null,"death_date":null,"subject_characteristics":[{"testcd":"ALCUSE","test":"Alcohol Use","orres":"CURRENT DRINKER","stresc":"CURRENT DRINKER","visit":null,"dtc":"2024-03-01"},{"testcd":"BMI","test":"Body Mass Index","orres":"27.5","stresc":"27.5","visit":null,"dtc":"2024-03-01"},{"testcd":"DURDIS","test":"Duration of Disease","orres":"219 months","stresc":"219","visit":null,"dtc":"2024-03-01"},{"testcd":"TOBUSE","test":"Tobacco Use","orres":"NEVER SMOKED","stresc":"NEVER SMOKED","visit":null,"dtc":"2024-03-01"}]},"section_2_medical_history":{"items":[{"seq":"1","term":"HYPERTENSION","decod":"HYPERTENSION","cat":"CARDIOVASCULAR","scat":null,"presp":null,"occur":null,"status":null,"onset_dtc":"2006-03-06","end_dtc":null,"visit":null}]},"section_3_inclusion_exclusion":{"criteria":[]},"section_4_trial_participation":{"visits":[{"visitnum":"1.0","visit":"ENROLLMENT","start_dtc":"2024-04-01","end_dtc":"2024-04-01","updes":null},{"visitnum":"2.0","visit":"VISIT 2","start_dtc":"2024-06-24","end_dtc":"2024-06-24","updes":null},{"visitnum":"3.0","visit":"VISIT 3","start_dtc":"2024-10-03","end_dtc":"2024-10-03","updes":null},{"visitnum":"4.0","visit":"VISIT 4","start_dtc":"2025-01-07","end_dtc":"2025-01-07","updes":null},{"visitnum":"5.0","visit":"VISIT 5","start_dtc":"2025-04-04","end_dtc":"2025-04-04","updes":null},{"visitnum":"6.0","visit":"VISIT 6","start_dtc":"2025-10-01","end_dtc":"2025-10-01","updes":null},{"visitnum":"7.0","visit":"VISIT 7","start_dtc":"2026-03-24","end_dtc":"2026-03-24","updes":null},{"visitnum":"8.0","visit":"VISIT 8","start_dtc":"2027-03-28","end_dtc":"2027-03-28","updes":null},{"visitnum":"9.0","visit":"VISIT 9","start_dtc":"2028-02-03","end_dtc":"2028-02-03","updes":null},{"visitnum":"10.0","visit":"FINAL VISIT","start_dtc":"2028-03-20","end_dtc":"2028-03-20","updes":null}],"epochs":[{"seq":"1","etcd":"SCRN","element":"Enrollment (post P261-401)","start_dtc":"2024-03-18","end_dtc":"2024-04-01","updes":null},{"seq":"2","etcd":"TRT","element":"Treatment (long-term)","start_dtc":"2024-04-01","end_dtc":"2028-03-01","updes":null},{"seq":"3","etcd":"FU","element":"Final visit","start_dtc":"2028-03-01","end_dtc":"2028-03-30","updes":null}],"visit_count":10},"section_5_concomitant_medications":{"medications":[{"seq":"1","trt":"AMLODIPINE","decod":"AMLODIPINE","cat":"PRIOR","dose":"5","doseu":null,"dosef":"QD","route":"ORAL","indication":"HYPERTENSION","start_dtc":"2006-03-06","end_dtc":"2028-03-30","ongoing":null,"visit":null},{"seq":"2","trt":"IBUPROFEN","decod":"IBUPROFEN","cat":"CONCOMITANT","dose":"400","doseu":null,"dosef":"PRN","route":"ORAL","indication":"HEADACHE","start_dtc":"2024-07-09","end_dtc":"2024-08-03","ongoing":null,"visit":null},{"seq":"3","trt":"PARACETAMOL","decod":"PARACETAMOL","cat":"CONCOMITANT","dose":"500","doseu":null,"dosef":"PRN","route":"ORAL","indication":"DYSGEUSIA","start_dtc":"2024-11-02","end_dtc":"2024-11-05","ongoing":null,"visit":null},{"seq":"4","trt":"MECLIZINE","decod":"MECLIZINE","cat":"CONCOMITANT","dose":"25","doseu":null,"dosef":"PRN","route":"ORAL","indication":"DIZZINESS","start_dtc":"2024-12-15","end_dtc":"2025-01-04","ongoing":null,"visit":null},{"seq":"5","trt":"IBUPROFEN","decod":"IBUPROFEN","cat":"CONCOMITANT","dose":"400","doseu":null,"dosef":"PRN","route":"ORAL","indication":"HEADACHE","start_dtc":"2025-01-18","end_dtc":"2025-01-29","ongoing":null,"visit":null},{"seq":"6","trt":"PARACETAMOL","decod":"PARACETAMOL","cat":"CONCOMITANT","dose":"500","doseu":null,"dosef":"PRN","route":"ORAL","indication":"HEADACHE","start_dtc":"2025-02-13","end_dtc":"2025-03-07","ongoing":null,"visit":null},{"seq":"7","trt":"IBUPROFEN","decod":"IBUPROFEN","cat":"CONCOMITANT","dose":"400","doseu":null,"dosef":"PRN","route":"ORAL","indication":"HEADACHE","start_dtc":"2025-05-13","end_dtc":"2025-06-05","ongoing":null,"visit":null},{"seq":"8","trt":"IBUPROFEN","decod":"IBUPROFEN","cat":"CONCOMITANT","dose":"400","doseu":null,"dosef":"PRN","route":"ORAL","indication":"HEADACHE","start_dtc":"2025-05-24","end_dtc":"2025-06-08","ongoing":null,"visit":null},{"seq":"9","trt":"PARACETAMOL","decod":"PARACETAMOL","cat":"CONCOMITANT","dose":"500","doseu":null,"dosef":"PRN","route":"ORAL","indication":"LACRIMATION INCREASED","start_dtc":"2026-06-11","end_dtc":"2026-06-20","ongoing":null,"visit":null},{"seq":"10","trt":"IBUPROFEN","decod":"IBUPROFEN","cat":"CONCOMITANT","dose":"400","doseu":null,"dosef":"PRN","route":"ORAL","indication":"NASAL DISCOMFORT","start_dtc":"2026-07-24","end_dtc":"2026-08-03","ongoing":null,"visit":null},{"seq":"11","trt":"PARACETAMOL","decod":"PARACETAMOL","cat":"CONCOMITANT","dose":"500","doseu":null,"dosef":"PRN","route":"ORAL","indication":"HEADACHE","start_dtc":"2026-12-31","end_dtc":"2027-01-09","ongoing":null,"visit":null},{"seq":"12","trt":"ONDANSETRON","decod":"ONDANSETRON","cat":"CONCOMITANT","dose":"4","doseu":null,"dosef":"PRN","route":"ORAL","indication":"NAUSEA","start_dtc":"2027-02-08","end_dtc":"2027-03-04","ongoing":null,"visit":null},{"seq":"13","trt":"PARACETAMOL","decod":"PARACETAMOL","cat":"CONCOMITANT","dose":"500","doseu":null,"dosef":"PRN","route":"ORAL","indication":"LACRIMATION INCREASED","start_dtc":"2027-03-19","end_dtc":"2027-04-16","ongoing":null,"visit":null}]},"section_6_exposure":{"exposure_as_administered":[{"seq":"1","trt":"MIDAZOLAM","dose":"5.0","doseu":null,"dosef":"PRN","route":"NASAL","lot":null,"start_dtc":"2024-09-07","end_dtc":"2024-09-07","start_dy":"160","end_dy":"160","epoch":"TREATMENT","visit":null},{"seq":"2","trt":"MIDAZOLAM","dose":"5.0","doseu":null,"dosef":"PRN","route":"NASAL","lot":null,"start_dtc":"2025-02-13","end_dtc":"2025-02-13","start_dy":"319","end_dy":"319","epoch":"TREATMENT","visit":null},{"seq":"3","trt":"MIDAZOLAM","dose":"5.0","doseu":null,"dosef":"PRN","route":"NASAL","lot":null,"start_dtc":"2025-12-27","end_dtc":"2025-12-27","start_dy":"636","end_dy":"636","epoch":"TREATMENT","visit":null},{"seq":"4","trt":"MIDAZOLAM","dose":"5.0","doseu":null,"dosef":"PRN","route":"NASAL","lot":null,"start_dtc":"2026-11-10","end_dtc":"2026-11-10","start_dy":"954","end_dy":"954","epoch":"TREATMENT","visit":null},{"seq":"5","trt":"MIDAZOLAM","dose":"5.0","doseu":null,"dosef":"PRN","route":"NASAL","lot":null,"start_dtc":"2027-04-17","end_dtc":"2027-04-17","start_dy":"1112","end_dy":"1112","epoch":"TREATMENT","visit":null},{"seq":"6","trt":"MIDAZOLAM","dose":"5.0","doseu":null,"dosef":"PRN","route":"NASAL","lot":null,"start_dtc":"2027-09-23","end_dtc":"2027-09-23","start_dy":"1271","end_dy":"1271","epoch":"TREATMENT","visit":null}],"exposure_as_collected":[{"seq":"1","trt":"MIDAZOLAM","dose":"5.0","doseu":null,"dosef":"PRN","route":"NASAL","start_dtc":"2024-09-07","end_dtc":"2024-09-07","visit":null},{"seq":"2","trt":"MIDAZOLAM","dose":"5.0","doseu":null,"dosef":"PRN","route":"NASAL","start_dtc":"2025-02-13","end_dtc":"2025-02-13","visit":null},{"seq":"3","trt":"MIDAZOLAM","dose":null,"doseu":null,"dosef":"PRN","route":"NASAL","start_dtc":"2025-07-21","end_dtc":"2025-07-21","visit":null},{"seq":"4","trt":"MIDAZOLAM","dose":"5.0","doseu":null,"dosef":"PRN","route":"NASAL","start_dtc":"2025-12-27","end_dtc":"2025-12-27","visit":null},{"seq":"5","trt":"MIDAZOLAM","dose":null,"doseu":null,"dosef":"PRN","route":"NASAL","start_dtc":"2026-06-04","end_dtc":"2026-06-04","visit":null},{"seq":"6","trt":"MIDAZOLAM","dose":"5.0","doseu":null,"dosef":"PRN","route":"NASAL","start_dtc":"2026-11-10","end_dtc":"2026-11-10","visit":null},{"seq":"7","trt":"MIDAZOLAM","dose":"5.0","doseu":null,"dosef":"PRN","route":"NASAL","start_dtc":"2027-04-17","end_dtc":"2027-04-17","visit":null},{"seq":"8","trt":"MIDAZOLAM","dose":"5.0","doseu":null,"dosef":"PRN","route":"NASAL","start_dtc":"2027-09-23","end_dtc":"2027-09-23","visit":null}]},"section_7_adverse_events":{"summary":{"total_aes":33,"serious_aes":7,"fatal_aes":0,"by_severity":{"MILD":17,"MODERATE":9,"SEVERE":7},"by_soc":{"Nervous system disorders":19,"Eye disorders":4,"General disorders and administration site conditions":5,"Respiratory, thoracic and mediastinal disorders":4,"Gastrointestinal disorders":1}},"events":[{"seq":"1","term":"HEADACHE","decod":"Headache","llt":"Headache","hlt":"Headaches NEC","hlgt":"Headaches","soc":"Nervous system disorders","bodsys":"Nervous system disorders","severity":"MILD","serious":"N","causality":"NOT RELATED","action_taken":"DOSE NOT CHANGED","outcome":"RECOVERED/RESOLVED","fatal":"N","hospitalization":"N","life_threatening":"N","onset_dtc":"2024-07-09","end_dtc":"2024-07-10","onset_dy":"100","end_dy":"101","duration":null,"epoch":"TREATMENT","visit":null,"supplemental":{"AETRTEM":"Y"}},{"seq":"2","term":"LACRIMATION INCREASED","decod":"Lacrimation increased","llt":"Lacrimation increased","hlt":"Ocular disorders NEC","hlgt":"Ocular disorders NEC","soc":"Eye disorders","bodsys":"Eye disorders","severity":"MODERATE","serious":"N","causality":"UNLIKELY RELATED","action_taken":"DOSE NOT CHANGED","outcome":"RECOVERED/RESOLVED","fatal":"N","hospitalization":"N","life_threatening":"N","onset_dtc":"2024-08-14","end_dtc":"2024-09-03","onset_dy":"136","end_dy":"156","duration":null,"epoch":"TREATMENT","visit":null,"supplemental":{"AETRTEM":"Y"}},{"seq":"3","term":"DYSGEUSIA","decod":"Dysgeusia","llt":"Dysgeusia","hlt":"Neurological signs and symptoms NEC","hlgt":"Neurological signs and symptoms NEC","soc":"Nervous system disorders","bodsys":"Nervous system disorders","severity":"MILD","serious":"N","causality":"NOT RELATED","action_taken":"DOSE NOT CHANGED","outcome":"RECOVERED/RESOLVED","fatal":"N","hospitalization":"N","life_threatening":"N","onset_dtc":"2024-11-02","end_dtc":"2024-11-08","onset_dy":"216","end_dy":"222","duration":null,"epoch":"TREATMENT","visit":null,"supplemental":{"AETRTEM":"Y"}},{"seq":"4","term":"HEADACHE","decod":"Headache","llt":"Headache","hlt":"Headaches NEC","hlgt":"Headaches","soc":"Nervous system disorders","bodsys":"Nervous system disorders","severity":"MILD","serious":"N","causality":"NOT RELATED","action_taken":"DOSE NOT CHANGED","outcome":"RECOVERED/RESOLVED","fatal":"N","hospitalization":"N","life_threatening":"N","onset_dtc":"2024-11-11","end_dtc":"2024-11-13","onset_dy":"225","end_dy":"227","duration":null,"epoch":"TREATMENT","visit":null,"supplemental":{"AETRTEM":"Y"}},{"seq":"5","term":"DIZZINESS","decod":"Dizziness","llt":"Dizziness","hlt":"Dizziness and vertigo symptoms","hlgt":"Neurological signs and symptoms NEC","soc":"Nervous system disorders","bodsys":"Nervous system disorders","severity":"MILD","serious":"N","causality":"NOT RELATED","action_taken":"DOSE NOT CHANGED","outcome":"RECOVERING/RESOLVING","fatal":"N","hospitalization":"N","life_threatening":"N","onset_dtc":"2024-12-15","end_dtc":"2024-12-18","onset_dy":"259","end_dy":"262","duration":null,"epoch":"TREATMENT","visit":null,"supplemental":{"AETRTEM":"Y"}},{"seq":"6","term":"HEADACHE","decod":"Headache","llt":"Headache","hlt":"Headaches NEC","hlgt":"Headaches","soc":"Nervous system disorders","bodsys":"Nervous system disorders","severity":"SEVERE","serious":"Y","causality":"NOT RELATED","action_taken":"DOSE NOT CHANGED","outcome":"NOT RECOVERED/NOT RESOLVED","fatal":"N","hospitalization":"Y","life_threatening":"N","onset_dtc":"2025-01-18","end_dtc":null,"onset_dy":"293","end_dy":null,"duration":null,"epoch":"TREATMENT","visit":null,"supplemental":{"AETRTEM":"Y"}},{"seq":"7","term":"HEADACHE","decod":"Headache","llt":"Headache","hlt":"Headaches NEC","hlgt":"Headaches","soc":"Nervous system disorders","bodsys":"Nervous system disorders","severity":"MODERATE","serious":"N","causality":"PROBABLY RELATED","action_taken":"DOSE NOT CHANGED","outcome":"RECOVERED/RESOLVED","fatal":"N","hospitalization":"N","life_threatening":"N","onset_dtc":"2025-02-13","end_dtc":"2025-02-15","onset_dy":"319","end_dy":"321","duration":null,"epoch":"TREATMENT","visit":null,"supplemental":{"AETRTEM":"Y"}},{"seq":"8","term":"HEADACHE","decod":"Headache","llt":"Headache","hlt":"Headaches NEC","hlgt":"Headaches","soc":"Nervous system disorders","bodsys":"Nervous system disorders","severity":"MILD","serious":"N","causality":"NOT RELATED","action_taken":"DOSE NOT CHANGED","outcome":"RECOVERED/RESOLVED","fatal":"N","hospitalization":"N","life_threatening":"N","onset_dtc":"2025-05-13","end_dtc":"2025-05-14","onset_dy":"408","end_dy":"409","duration":null,"epoch":"TREATMENT","visit":null,"supplemental":{"AETRTEM":"Y"}},{"seq":"9","term":"HEADACHE","decod":"Headache","llt":"Headache","hlt":"Headaches NEC","hlgt":"Headaches","soc":"Nervous system disorders","bodsys":"Nervous system disorders","severity":"SEVERE","serious":"Y","causality":"NOT RELATED","action_taken":"DOSE NOT CHANGED","outcome":"RECOVERED/RESOLVED","fatal":"N","hospitalization":"N","life_threatening":"N","onset_dtc":"2025-05-24","end_dtc":"2025-06-08","onset_dy":"419","end_dy":"434","duration":null,"epoch":"TREATMENT","visit":null,"supplemental":{"AETRTEM":"Y"}},{"seq":"10","term":"SOMNOLENCE","decod":"Somnolence","llt":"Somnolence","hlt":"Disturbances in consciousness NEC","hlgt":"Neurological signs and symptoms NEC","soc":"Nervous system disorders","bodsys":"Nervous system disorders","severity":"MODERATE","serious":"N","causality":"NOT RELATED","action_taken":"DOSE NOT CHANGED","outcome":"RECOVERED/RESOLVED","fatal":"N","hospitalization":"N","life_threatening":"N","onset_dtc":"2025-09-16","end_dtc":"2025-10-08","onset_dy":"534","end_dy":"556","duration":null,"epoch":"TREATMENT","visit":null,"supplemental":{"AETRTEM":"Y"}},{"seq":"11","term":"HEADACHE","decod":"Headache","llt":"Headache","hlt":"Headaches NEC","hlgt":"Headaches","soc":"Nervous system disorders","bodsys":"Nervous system disorders","severity":"MILD","serious":"N","causality":"NOT RELATED","action_taken":"DOSE NOT CHANGED","outcome":"RECOVERED/RESOLVED","fatal":"N","hospitalization":"N","life_threatening":"N","onset_dtc":"2025-10-16","end_dtc":"2025-10-19","onset_dy":"564","end_dy":"567","duration":null,"epoch":"TREATMENT","visit":null,"supplemental":{"AETRTEM":"Y"}},{"seq":"12","term":"FATIGUE","decod":"Fatigue","llt":"Fatigue","hlt":"Asthenic conditions","hlgt":"General system disorders NEC","soc":"General disorders and administration site conditions","bodsys":"General disorders and administration site conditions","severity":"MILD","serious":"N","causality":"NOT RELATED","action_taken":"DOSE NOT CHANGED","outcome":"RECOVERED/RESOLVED","fatal":"N","hospitalization":"N","life_threatening":"N","onset_dtc":"2025-10-22","end_dtc":"2025-10-27","onset_dy":"570","end_dy":"575","duration":null,"epoch":"TREATMENT","visit":null,"supplemental":{"AETRTEM":"Y"}},{"seq":"13","term":"SOMNOLENCE","decod":"Somnolence","llt":"Somnolence","hlt":"Disturbances in consciousness NEC","hlgt":"Neurological signs and symptoms NEC","soc":"Nervous system disorders","bodsys":"Nervous system disorders","severity":"MILD","serious":"N","causality":"NOT RELATED","action_taken":"DOSE NOT CHANGED","outcome":"RECOVERED/RESOLVED","fatal":"N","hospitalization":"N","life_threatening":"N","onset_dtc":"2025-12-20","end_dtc":"2025-12-24","onset_dy":"629","end_dy":"633","duration":null,"epoch":"TREATMENT","visit":null,"supplemental":{"AETRTEM":"Y"}},{"seq":"14","term":"DYSGEUSIA","decod":"Dysgeusia","llt":"Dysgeusia","hlt":"Neurological signs and symptoms NEC","hlgt":"Neurological signs and symptoms NEC","soc":"Nervous system disorders","bodsys":"Nervous system disorders","severity":"SEVERE","serious":"Y","causality":"NOT RELATED","action_taken":"DOSE NOT CHANGED","outcome":"RECOVERED/RESOLVED","fatal":"N","hospitalization":"N","life_threatening":"N","onset_dtc":"2026-01-12","end_dtc":"2026-03-05","onset_dy":"652","end_dy":"704","duration":null,"epoch":"TREATMENT","visit":null,"supplemental":{"AETRTEM":"Y"}},{"seq":"15","term":"LACRIMATION INCREASED","decod":"Lacrimation increased","llt":"Lacrimation increased","hlt":"Ocular disorders NEC","hlgt":"Ocular disorders NEC","soc":"Eye disorders","bodsys":"Eye disorders","severity":"SEVERE","serious":"Y","causality":"NOT RELATED","action_taken":"DOSE NOT CHANGED","outcome":"RECOVERED/RESOLVED","fatal":"N","hospitalization":"N","life_threatening":"N","onset_dtc":"2026-06-11","end_dtc":"2026-07-18","onset_dy":"802","end_dy":"839","duration":null,"epoch":"TREATMENT","visit":null,"supplemental":{"AETRTEM":"Y"}},{"seq":"16","term":"DIZZINESS","decod":"Dizziness","llt":"Dizziness","hlt":"Dizziness and vertigo symptoms","hlgt":"Neurological signs and symptoms NEC","soc":"Nervous system disorders","bodsys":"Nervous system disorders","severity":"MODERATE","serious":"N","causality":"UNLIKELY RELATED","action_taken":"DOSE NOT CHANGED","outcome":"RECOVERED/RESOLVED WITH SEQUELAE","fatal":"N","hospitalization":"N","life_threatening":"N","onset_dtc":"2026-07-02","end_dtc":"2026-07-03","onset_dy":"823","end_dy":"824","duration":null,"epoch":"TREATMENT","visit":null,"supplemental":{"AETRTEM":"Y"}},{"seq":"17","term":"NASAL DISCOMFORT","decod":"Nasal discomfort","llt":"Nasal discomfort","hlt":"Nasal disorders NEC","hlgt":"Respiratory tract signs and symptoms","soc":"Respiratory, thoracic and mediastinal disorders","bodsys":"Respiratory, thoracic and mediastinal disorders","severity":"SEVERE","serious":"Y","causality":"UNLIKELY RELATED","action_taken":"DOSE NOT CHANGED","outcome":"RECOVERED/RESOLVED","fatal":"N","hospitalization":"Y","life_threatening":"N","onset_dtc":"2026-07-24","end_dtc":"2026-08-28","onset_dy":"845","end_dy":"880","duration":null,"epoch":"TREATMENT","visit":null,"supplemental":{"AETRTEM":"Y"}},{"seq":"18","term":"SOMNOLENCE","decod":"Somnolence","llt":"Somnolence","hlt":"Disturbances in consciousness NEC","hlgt":"Neurological signs and symptoms NEC","soc":"Nervous system disorders","bodsys":"Nervous system disorders","severity":"MODERATE","serious":"N","causality":"NOT RELATED","action_taken":"DOSE NOT CHANGED","outcome":"RECOVERING/RESOLVING","fatal":"N","hospitalization":"N","life_threatening":"N","onset_dtc":"2026-08-30","end_dtc":"2026-09-14","onset_dy":"882","end_dy":"897","duration":null,"epoch":"TREATMENT","visit":null,"supplemental":{"AETRTEM":"Y"}},{"seq":"19","term":"LACRIMATION INCREASED","decod":"Lacrimation increased","llt":"Lacrimation increased","hlt":"Ocular disorders NEC","hlgt":"Ocular disorders NEC","soc":"Eye disorders","bodsys":"Eye disorders","severity":"MILD","serious":"N","causality":"NOT RELATED","action_taken":"DOSE NOT CHANGED","outcome":"RECOVERED/RESOLVED","fatal":"N","hospitalization":"N","life_threatening":"N","onset_dtc":"2026-10-30","end_dtc":"2026-11-08","onset_dy":"943","end_dy":"952","duration":null,"epoch":"TREATMENT","visit":null,"supplemental":{"AETRTEM":"Y"}},{"seq":"20","term":"SOMNOLENCE","decod":"Somnolence","llt":"Somnolence","hlt":"Disturbances in consciousness NEC","hlgt":"Neurological signs and symptoms NEC","soc":"Nervous system disorders","bodsys":"Nervous system disorders","severity":"MILD","serious":"N","causality":"POSSIBLY RELATED","action_taken":"DOSE NOT CHANGED","outcome":"RECOVERED/RESOLVED","fatal":"N","hospitalization":"N","life_threatening":"N","onset_dtc":"2026-11-13","end_dtc":"2026-11-20","onset_dy":"957","end_dy":"964","duration":null,"epoch":"TREATMENT","visit":null,"supplemental":{"AETRTEM":"Y"}},{"seq":"21","term":"HEADACHE","decod":"Headache","llt":"Headache","hlt":"Headaches NEC","hlgt":"Headaches","soc":"Nervous system disorders","bodsys":"Nervous system disorders","severity":"MODERATE","serious":"N","causality":"NOT RELATED","action_taken":"DOSE NOT CHANGED","outcome":"RECOVERED/RESOLVED","fatal":"N","hospitalization":"N","life_threatening":"N","onset_dtc":"2026-12-31","end_dtc":"2027-01-01","onset_dy":"1005","end_dy":"1006","duration":null,"epoch":"TREATMENT","visit":null,"supplemental":{"AETRTEM":"Y"}},{"seq":"22","term":"FATIGUE","decod":"Fatigue","llt":"Fatigue","hlt":"Asthenic conditions","hlgt":"General system disorders NEC","soc":"General disorders and administration site conditions","bodsys":"General disorders and administration site conditions","severity":"MILD","serious":"N","causality":"NOT RELATED","action_taken":"DOSE NOT CHANGED","outcome":"RECOVERED/RESOLVED","fatal":"N","hospitalization":"N","life_threatening":"N","onset_dtc":"2027-01-02","end_dtc":"2027-01-12","onset_dy":"1007","end_dy":"1017","duration":null,"epoch":"TREATMENT","visit":null,"supplemental":{"AETRTEM":"Y"}},{"seq":"23","term":"NAUSEA","decod":"Nausea","llt":"Nausea","hlt":"Nausea and vomiting symptoms","hlgt":"Gastrointestinal signs and symptoms","soc":"Gastrointestinal disorders","bodsys":"Gastrointestinal disorders","severity":"MODERATE","serious":"N","causality":"NOT RELATED","action_taken":"DOSE NOT CHANGED","outcome":"RECOVERED/RESOLVED","fatal":"N","hospitalization":"N","life_threatening":"N","onset_dtc":"2027-02-08","end_dtc":"2027-02-14","onset_dy":"1044","end_dy":"1050","duration":null,"epoch":"TREATMENT","visit":null,"supplemental":{"AETRTEM":"Y"}},{"seq":"24","term":"LACRIMATION INCREASED","decod":"Lacrimation increased","llt":"Lacrimation increased","hlt":"Ocular disorders NEC","hlgt":"Ocular disorders NEC","soc":"Eye disorders","bodsys":"Eye disorders","severity":"MODERATE","serious":"N","causality":"NOT RELATED","action_taken":"DOSE NOT CHANGED","outcome":"RECOVERED/RESOLVED","fatal":"N","hospitalization":"N","life_threatening":"N","onset_dtc":"2027-03-19","end_dtc":"2027-03-28","onset_dy":"1083","end_dy":"1092","duration":null,"epoch":"TREATMENT","visit":null,"supplemental":{"AETRTEM":"Y"}},{"seq":"25","term":"FATIGUE","decod":"Fatigue","llt":"Fatigue","hlt":"Asthenic conditions","hlgt":"General system disorders NEC","soc":"General disorders and administration site conditions","bodsys":"General disorders and administration site conditions","severity":"MILD","serious":"N","causality":"NOT RELATED","action_taken":"DOSE NOT CHANGED","outcome":"RECOVERING/RESOLVING","fatal":"N","hospitalization":"N","life_threatening":"N","onset_dtc":"2027-04-10","end_dtc":"2027-04-13","onset_dy":"1105","end_dy":"1108","duration":null,"epoch":"TREATMENT","visit":null,"supplemental":{"AETRTEM":"Y"}},{"seq":"26","term":"RHINORRHOEA","decod":"Rhinorrhoea","llt":"Rhinorrhoea","hlt":"Nasal disorders NEC","hlgt":"Respiratory tract signs and symptoms","soc":"Respiratory, thoracic and mediastinal disorders","bodsys":"Respiratory, thoracic and mediastinal disorders","severity":"MILD","serious":"N","causality":"UNLIKELY RELATED","action_taken":"DOSE NOT CHANGED","outcome":"RECOVERING/RESOLVING","fatal":"N","hospitalization":"N","life_threatening":"N","onset_dtc":"2027-05-12","end_dtc":"2027-05-21","onset_dy":"1137","end_dy":"1146","duration":null,"epoch":"TREATMENT","visit":null,"supplemental":{"AETRTEM":"Y"}},{"seq":"27","term":"NASAL DISCOMFORT","decod":"Nasal discomfort","llt":"Nasal discomfort","hlt":"Nasal disorders NEC","hlgt":"Respiratory tract signs and symptoms","soc":"Respiratory, thoracic and mediastinal disorders","bodsys":"Respiratory, thoracic and mediastinal disorders","severity":"MILD","serious":"N","causality":"UNLIKELY RELATED","action_taken":"DOSE NOT CHANGED","outcome":"RECOVERED/RESOLVED","fatal":"N","hospitalization":"N","life_threatening":"N","onset_dtc":"2027-05-18","end_dtc":"2027-05-25","onset_dy":"1143","end_dy":"1150","duration":null,"epoch":"TREATMENT","visit":null,"supplemental":{"AETRTEM":"Y"}},{"seq":"28","term":"SOMNOLENCE","decod":"Somnolence","llt":"Somnolence","hlt":"Disturbances in consciousness NEC","hlgt":"Neurological signs and symptoms NEC","soc":"Nervous system disorders","bodsys":"Nervous system disorders","severity":"SEVERE","serious":"Y","causality":"NOT RELATED","action_taken":"DOSE NOT CHANGED","outcome":"RECOVERING/RESOLVING","fatal":"N","hospitalization":"Y","life_threatening":"N","onset_dtc":"2027-05-22","end_dtc":"2027-06-18","onset_dy":"1147","end_dy":"1174","duration":null,"epoch":"TREATMENT","visit":null,"supplemental":{"AETRTEM":"Y"}},{"seq":"29","term":"FATIGUE","decod":"Fatigue","llt":"Fatigue","hlt":"Asthenic conditions","hlgt":"General system disorders NEC","soc":"General disorders and administration site conditions","bodsys":"General disorders and administration site conditions","severity":"SEVERE","serious":"Y","causality":"UNLIKELY RELATED","action_taken":"DOSE NOT CHANGED","outcome":"RECOVERED/RESOLVED","fatal":"N","hospitalization":"Y","life_threatening":"N","onset_dtc":"2027-05-29","end_dtc":"2027-07-03","onset_dy":"1154","end_dy":"1189","duration":null,"epoch":"TREATMENT","visit":null,"supplemental":{"AETRTEM":"Y"}},{"seq":"30","term":"RHINORRHOEA","decod":"Rhinorrhoea","llt":"Rhinorrhoea","hlt":"Nasal disorders NEC","hlgt":"Respiratory tract signs and symptoms","soc":"Respiratory, thoracic and mediastinal disorders","bodsys":"Respiratory, thoracic and mediastinal disorders","severity":"MILD","serious":"N","causality":"NOT RELATED","action_taken":"DOSE NOT CHANGED","outcome":"RECOVERED/RESOLVED","fatal":"N","hospitalization":"N","life_threatening":"N","onset_dtc":"2027-06-06","end_dtc":"2027-06-17","onset_dy":"1162","end_dy":"1173","duration":null,"epoch":"TREATMENT","visit":null,"supplemental":{"AETRTEM":"Y"}},{"seq":"31","term":"FATIGUE","decod":"Fatigue","llt":"Fatigue","hlt":"Asthenic conditions","hlgt":"General system disorders NEC","soc":"General disorders and administration site conditions","bodsys":"General disorders and administration site conditions","severity":"MILD","serious":"N","causality":"NOT RELATED","action_taken":"DOSE NOT CHANGED","outcome":"RECOVERED/RESOLVED","fatal":"N","hospitalization":"N","life_threatening":"N","onset_dtc":"2027-07-04","end_dtc":"2027-07-11","onset_dy":"1190","end_dy":"1197","duration":null,"epoch":"TREATMENT","visit":null,"supplemental":{"AETRTEM":"Y"}},{"seq":"32","term":"SOMNOLENCE","decod":"Somnolence","llt":"Somnolence","hlt":"Disturbances in consciousness NEC","hlgt":"Neurological signs and symptoms NEC","soc":"Nervous system disorders","bodsys":"Nervous system disorders","severity":"MILD","serious":"N","causality":"NOT RELATED","action_taken":"DOSE NOT CHANGED","outcome":"RECOVERED/RESOLVED","fatal":"N","hospitalization":"N","life_threatening":"N","onset_dtc":"2027-11-13","end_dtc":"2027-11-16","onset_dy":"1322","end_dy":"1325","duration":null,"epoch":"TREATMENT","visit":null,"supplemental":{"AETRTEM":"Y"}},{"seq":"33","term":"SOMNOLENCE","decod":"Somnolence","llt":"Somnolence","hlt":"Disturbances in consciousness NEC","hlgt":"Neurological signs and symptoms NEC","soc":"Nervous system disorders","bodsys":"Nervous system disorders","severity":"MODERATE","serious":"N","causality":"NOT RELATED","action_taken":"DOSE NOT CHANGED","outcome":"RECOVERED/RESOLVED","fatal":"N","hospitalization":"N","life_threatening":"N","onset_dtc":"2028-02-16","end_dtc":"2028-03-08","onset_dy":"1417","end_dy":"1438","duration":null,"epoch":"TREATMENT","visit":null,"supplemental":{"AETRTEM":"Y"}}]},"section_8_laboratory_results":{"summary":{"total_records":56,"abnormal_count":25,"abnormal_pct":44.6},"shift_summary":[{"testcd":"ALT","baseline_value":13.62,"baseline_nrind":"NORMAL","worst_post_baseline_value":17.27,"worst_post_baseline_nrind":"NORMAL","worst_visit":"VISIT 7"},{"testcd":"AST","baseline_value":21.16,"baseline_nrind":"NORMAL","worst_post_baseline_value":24.06,"worst_post_baseline_nrind":"NORMAL","worst_visit":"VISIT 8"},{"testcd":"CREAT","baseline_value":83.58,"baseline_nrind":"HIGH","worst_post_baseline_value":86.5,"worst_post_baseline_nrind":"HIGH","worst_visit":"VISIT 3"},{"testcd":"GLUC","baseline_value":4.71,"baseline_nrind":"NORMAL","worst_post_baseline_value":5.05,"worst_post_baseline_nrind":"NORMAL","worst_visit":"FINAL VISIT"},{"testcd":"HGB","baseline_value":123.88,"baseline_nrind":"NORMAL","worst_post_baseline_value":118.72,"worst_post_baseline_nrind":"LOW","worst_visit":"FINAL VISIT"},{"testcd":"PLAT","baseline_value":133.18,"baseline_nrind":"LOW","worst_post_baseline_value":144.13,"worst_post_baseline_nrind":"LOW","worst_visit":"VISIT 8"},{"testcd":"WBC","baseline_value":2.0,"baseline_nrind":"LOW","worst_post_baseline_value":2.84,"worst_post_baseline_nrind":"LOW","worst_visit":"VISIT 7"}],"results":[{"seq":"1","testcd":"ALT","test":"Alanine Aminotransferase","cat":"CHEMISTRY","orres":"13.62","orresu":"U/L","stresc":"13.62","stresn":"13.62","stresu":"U/L","stnrlo":"7","stnrhi":"56","nrind":"NORMAL","fast":null,"dtc":"2024-04-01","dy":"1","visit":"ENROLLMENT","visitnum":"1.0","epoch":"SCREENING","spec":null,"method":null},{"seq":"2","testcd":"AST","test":"Aspartate Aminotransferase","cat":"CHEMISTRY","orres":"21.16","orresu":"U/L","stresc":"21.16","stresn":"21.16","stresu":"U/L","stnrlo":"10","stnrhi":"40","nrind":"NORMAL","fast":null,"dtc":"2024-04-01","dy":"1","visit":"ENROLLMENT","visitnum":"1.0","epoch":"SCREENING","spec":null,"method":null},{"seq":"3","testcd":"CREAT","test":"Creatinine","cat":"CHEMISTRY","orres":"83.58","orresu":"umol/L","stresc":"83.58","stresn":"83.58","stresu":"umol/L","stnrlo":"44","stnrhi":"80","nrind":"HIGH","fast":null,"dtc":"2024-04-01","dy":"1","visit":"ENROLLMENT","visitnum":"1.0","epoch":"SCREENING","spec":null,"method":null},{"seq":"4","testcd":"GLUC","test":"Glucose","cat":"CHEMISTRY","orres":"4.71","orresu":"mmol/L","stresc":"4.71","stresn":"4.71","stresu":"mmol/L","stnrlo":"3.9","stnrhi":"5.6","nrind":"NORMAL","fast":null,"dtc":"2024-04-01","dy":"1","visit":"ENROLLMENT","visitnum":"1.0","epoch":"SCREENING","spec":null,"method":null},{"seq":"5","testcd":"HGB","test":"Hemoglobin","cat":"HEMATOLOGY","orres":"123.88","orresu":"g/L","stresc":"123.88","stresn":"123.88","stresu":"g/L","stnrlo":"120","stnrhi":"155","nrind":"NORMAL","fast":null,"dtc":"2024-04-01","dy":"1","visit":"ENROLLMENT","visitnum":"1.0","epoch":"SCREENING","spec":null,"method":null},{"seq":"6","testcd":"PLAT","test":"Platelets","cat":"HEMATOLOGY","orres":"133.18","orresu":"10^9/L","stresc":"133.18","stresn":"133.18","stresu":"10^9/L","stnrlo":"150","stnrhi":"400","nrind":"LOW","fast":null,"dtc":"2024-04-01","dy":"1","visit":"ENROLLMENT","visitnum":"1.0","epoch":"SCREENING","spec":null,"method":null},{"seq":"7","testcd":"WBC","test":"Leukocytes","cat":"HEMATOLOGY","orres":"2.0","orresu":"10^9/L","stresc":"2.0","stresn":"2.0","stresu":"10^9/L","stnrlo":"4.0","stnrhi":"11.0","nrind":"LOW","fast":null,"dtc":"2024-04-01","dy":"1","visit":"ENROLLMENT","visitnum":"1.0","epoch":"SCREENING","spec":null,"method":null},{"seq":"8","testcd":"ALT","test":"Alanine Aminotransferase","cat":"CHEMISTRY","orres":"13.18","orresu":"U/L","stresc":"13.18","stresn":"13.18","stresu":"U/L","stnrlo":"7","stnrhi":"56","nrind":"NORMAL","fast":null,"dtc":"2024-06-24","dy":"85","visit":"VISIT 2","visitnum":"2.0","epoch":"TREATMENT","spec":null,"method":null},{"seq":"9","testcd":"AST","test":"Aspartate Aminotransferase","cat":"CHEMISTRY","orres":"22.04","orresu":"U/L","stresc":"22.04","stresn":"22.04","stresu":"U/L","stnrlo":"10","stnrhi":"40","nrind":"NORMAL","fast":null,"dtc":"2024-06-24","dy":"85","visit":"VISIT 2","visitnum":"2.0","epoch":"TREATMENT","spec":null,"method":null},{"seq":"10","testcd":"CREAT","test":"Creatinine","cat":"CHEMISTRY","orres":"85.79","orresu":"umol/L","stresc":"85.79","stresn":"85.79","stresu":"umol/L","stnrlo":"44","stnrhi":"80","nrind":"HIGH","fast":null,"dtc":"2024-06-24","dy":"85","visit":"VISIT 2","visitnum":"2.0","epoch":"TREATMENT","spec":null,"method":null},{"seq":"11","testcd":"GLUC","test":"Glucose","cat":"CHEMISTRY","orres":"4.75","orresu":"mmol/L","stresc":"4.75","stresn":"4.75","stresu":"mmol/L","stnrlo":"3.9","stnrhi":"5.6","nrind":"NORMAL","fast":null,"dtc":"2024-06-24","dy":"85","visit":"VISIT 2","visitnum":"2.0","epoch":"TREATMENT","spec":null,"method":null},{"seq":"12","testcd":"HGB","test":"Hemoglobin","cat":"HEMATOLOGY","orres":"123.71","orresu":"g/L","stresc":"123.71","stresn":"123.71","stresu":"g/L","stnrlo":"120","stnrhi":"155","nrind":"NORMAL","fast":null,"dtc":"2024-06-24","dy":"85","visit":"VISIT 2","visitnum":"2.0","epoch":"TREATMENT","spec":null,"method":null},{"seq":"13","testcd":"PLAT","test":"Platelets","cat":"HEMATOLOGY","orres":"141.25","orresu":"10^9/L","stresc":"141.25","stresn":"141.25","stresu":"10^9/L","stnrlo":"150","stnrhi":"400","nrind":"LOW","fast":null,"dtc":"2024-06-24","dy":"85","visit":"VISIT 2","visitnum":"2.0","epoch":"TREATMENT","spec":null,"method":null},{"seq":"14","testcd":"WBC","test":"Leukocytes","cat":"HEMATOLOGY","orres":"2.22","orresu":"10^9/L","stresc":"2.22","stresn":"2.22","stresu":"10^9/L","stnrlo":"4.0","stnrhi":"11.0","nrind":"LOW","fast":null,"dtc":"2024-06-24","dy":"85","visit":"VISIT 2","visitnum":"2.0","epoch":"TREATMENT","spec":null,"method":null},{"seq":"15","testcd":"ALT","test":"Alanine Aminotransferase","cat":"CHEMISTRY","orres":"12.54","orresu":"U/L","stresc":"12.54","stresn":"12.54","stresu":"U/L","stnrlo":"7","stnrhi":"56","nrind":"NORMAL","fast":null,"dtc":"2024-10-03","dy":"186","visit":"VISIT 3","visitnum":"3.0","epoch":"TREATMENT","spec":null,"method":null},{"seq":"16","testcd":"AST","test":"Aspartate Aminotransferase","cat":"CHEMISTRY","orres":"21.92","orresu":"U/L","stresc":"21.92","stresn":"21.92","stresu":"U/L","stnrlo":"10","stnrhi":"40","nrind":"NORMAL","fast":null,"dtc":"2024-10-03","dy":"186","visit":"VISIT 3","visitnum":"3.0","epoch":"TREATMENT","spec":null,"method":null},{"seq":"17","testcd":"CREAT","test":"Creatinine","cat":"CHEMISTRY","orres":"86.5","orresu":"umol/L","stresc":"86.5","stresn":"86.5","stresu":"umol/L","stnrlo":"44","stnrhi":"80","nrind":"HIGH","fast":null,"dtc":"2024-10-03","dy":"186","visit":"VISIT 3","visitnum":"3.0","epoch":"TREATMENT","spec":null,"method":null},{"seq":"18","testcd":"GLUC","test":"Glucose","cat":"CHEMISTRY","orres":null,"orresu":null,"stresc":null,"stresn":null,"stresu":null,"stnrlo":null,"stnrhi":null,"nrind":null,"fast":null,"dtc":"2024-10-03","dy":"186","visit":"VISIT 3","visitnum":"3.0","epoch":"TREATMENT","spec":null,"method":null},{"seq":"19","testcd":"HGB","test":"Hemoglobin","cat":"HEMATOLOGY","orres":"123.62","orresu":"g/L","stresc":"123.62","stresn":"123.62","stresu":"g/L","stnrlo":"120","stnrhi":"155","nrind":"NORMAL","fast":null,"dtc":"2024-10-03","dy":"186","visit":"VISIT 3","visitnum":"3.0","epoch":"TREATMENT","spec":null,"method":null},{"seq":"20","testcd":"PLAT","test":"Platelets","cat":"HEMATOLOGY","orres":"128.68","orresu":"10^9/L","stresc":"128.68","stresn":"128.68","stresu":"10^9/L","stnrlo":"150","stnrhi":"400","nrind":"LOW","fast":null,"dtc":"2024-10-03","dy":"186","visit":"VISIT 3","visitnum":"3.0","epoch":"TREATMENT","spec":null,"method":null},{"seq":"21","testcd":"WBC","test":"Leukocytes","cat":"HEMATOLOGY","orres":"2.0","orresu":"10^9/L","stresc":"2.0","stresn":"2.0","stresu":"10^9/L","stnrlo":"4.0","stnrhi":"11.0","nrind":"LOW","fast":null,"dtc":"2024-10-03","dy":"186","visit":"VISIT 3","visitnum":"3.0","epoch":"TREATMENT","spec":null,"method":null},{"seq":"22","testcd":"ALT","test":"Alanine Aminotransferase","cat":"CHEMISTRY","orres":"15.45","orresu":"U/L","stresc":"15.45","stresn":"15.45","stresu":"U/L","stnrlo":"7","stnrhi":"56","nrind":"NORMAL","fast":null,"dtc":"2025-01-07","dy":"282","visit":"VISIT 4","visitnum":"4.0","epoch":"TREATMENT","spec":null,"method":null},{"seq":"23","testcd":"AST","test":"Aspartate Aminotransferase","cat":"CHEMISTRY","orres":"22.37","orresu":"U/L","stresc":"22.37","stresn":"22.37","stresu":"U/L","stnrlo":"10","stnrhi":"40","nrind":"NORMAL","fast":null,"dtc":"2025-01-07","dy":"282","visit":"VISIT 4","visitnum":"4.0","epoch":"TREATMENT","spec":null,"method":null},{"seq":"24","testcd":"CREAT","test":"Creatinine","cat":"CHEMISTRY","orres":"84.86","orresu":"umol/L","stresc":"84.86","stresn":"84.86","stresu":"umol/L","stnrlo":"44","stnrhi":"80","nrind":"HIGH","fast":null,"dtc":"2025-01-07","dy":"282","visit":"VISIT 4","visitnum":"4.0","epoch":"TREATMENT","spec":null,"method":null},{"seq":"25","testcd":"GLUC","test":"Glucose","cat":"CHEMISTRY","orres":"4.98","orresu":"mmol/L","stresc":"4.98","stresn":"4.98","stresu":"mmol/L","stnrlo":"3.9","stnrhi":"5.6","nrind":"NORMAL","fast":null,"dtc":"2025-01-07","dy":"282","visit":"VISIT 4","visitnum":"4.0","epoch":"TREATMENT","spec":null,"method":null},{"seq":"26","testcd":"HGB","test":"Hemoglobin","cat":"HEMATOLOGY","orres":"122.33","orresu":"g/L","stresc":"122.33","stresn":"122.33","stresu":"g/L","stnrlo":"120","stnrhi":"155","nrind":"NORMAL","fast":null,"dtc":"2025-01-07","dy":"282","visit":"VISIT 4","visitnum":"4.0","epoch":"TREATMENT","spec":null,"method":null},{"seq":"27","testcd":"PLAT","test":"Platelets","cat":"HEMATOLOGY","orres":"132.82","orresu":"10^9/L","stresc":"132.82","stresn":"132.82","stresu":"10^9/L","stnrlo":"150","stnrhi":"400","nrind":"LOW","fast":null,"dtc":"2025-01-07","dy":"282","visit":"VISIT 4","visitnum":"4.0","epoch":"TREATMENT","spec":null,"method":null},{"seq":"28","testcd":"WBC","test":"Leukocytes","cat":"HEMATOLOGY","orres":"2.33","orresu":"10^9/L","stresc":"2.33","stresn":"2.33","stresu":"10^9/L","stnrlo":"4.0","stnrhi":"11.0","nrind":"LOW","fast":null,"dtc":"2025-01-07","dy":"282","visit":"VISIT 4","visitnum":"4.0","epoch":"TREATMENT","spec":null,"method":null},{"seq":"29","testcd":"ALT","test":"Alanine Aminotransferase","cat":"CHEMISTRY","orres":"15.87","orresu":"U/L","stresc":"15.87","stresn":"15.87","stresu":"U/L","stnrlo":"7","stnrhi":"56","nrind":"NORMAL","fast":null,"dtc":"2025-10-01","dy":"549","visit":"VISIT 6","visitnum":"6.0","epoch":"TREATMENT","spec":null,"method":null},{"seq":"30","testcd":"AST","test":"Aspartate Aminotransferase","cat":"CHEMISTRY","orres":null,"orresu":null,"stresc":null,"stresn":null,"stresu":null,"stnrlo":null,"stnrhi":null,"nrind":null,"fast":null,"dtc":"2025-10-01","dy":"549","visit":"VISIT 6","visitnum":"6.0","epoch":"TREATMENT","spec":null,"method":null},{"seq":"31","testcd":"CREAT","test":"Creatinine","cat":"CHEMISTRY","orres":"83.26","orresu":"umol/L","stresc":"83.26","stresn":"83.26","stresu":"umol/L","stnrlo":"44","stnrhi":"80","nrind":"HIGH","fast":null,"dtc":"2025-10-01","dy":"549","visit":"VISIT 6","visitnum":"6.0","epoch":"TREATMENT","spec":null,"method":null},{"seq":"32","testcd":"GLUC","test":"Glucose","cat":"CHEMISTRY","orres":"4.95","orresu":"mmol/L","stresc":"4.95","stresn":"4.95","stresu":"mmol/L","stnrlo":"3.9","stnrhi":"5.6","nrind":"NORMAL","fast":null,"dtc":"2025-10-01","dy":"549","visit":"VISIT 6","visitnum":"6.0","epoch":"TREATMENT","spec":null,"method":null},{"seq":"33","testcd":"HGB","test":"Hemoglobin","cat":"HEMATOLOGY","orres":"120.71","orresu":"g/L","stresc":"120.71","stresn":"120.71","stresu":"g/L","stnrlo":"120","stnrhi":"155","nrind":"NORMAL","fast":null,"dtc":"2025-10-01","dy":"549","visit":"VISIT 6","visitnum":"6.0","epoch":"TREATMENT","spec":null,"method":null},{"seq":"34","testcd":"PLAT","test":"Platelets","cat":"HEMATOLOGY","orres":"120.18","orresu":"10^9/L","stresc":"120.18","stresn":"120.18","stresu":"10^9/L","stnrlo":"150","stnrhi":"400","nrind":"LOW","fast":null,"dtc":"2025-10-01","dy":"549","visit":"VISIT 6","visitnum":"6.0","epoch":"TREATMENT","spec":null,"method":null},{"seq":"35","testcd":"WBC","test":"Leukocytes","cat":"HEMATOLOGY","orres":"2.58","orresu":"10^9/L","stresc":"2.58","stresn":"2.58","stresu":"10^9/L","stnrlo":"4.0","stnrhi":"11.0","nrind":"LOW","fast":null,"dtc":"2025-10-01","dy":"549","visit":"VISIT 6","visitnum":"6.0","epoch":"TREATMENT","spec":null,"method":null},{"seq":"36","testcd":"ALT","test":"Alanine Aminotransferase","cat":"CHEMISTRY","orres":"17.27","orresu":"U/L","stresc":"17.27","stresn":"17.27","stresu":"U/L","stnrlo":"7","stnrhi":"56","nrind":"NORMAL","fast":null,"dtc":"2026-03-24","dy":"723","visit":"VISIT 7","visitnum":"7.0","epoch":"TREATMENT","spec":null,"method":null},{"seq":"37","testcd":"AST","test":"Aspartate Aminotransferase","cat":"CHEMISTRY","orres":"23.91","orresu":"U/L","stresc":"23.91","stresn":"23.91","stresu":"U/L","stnrlo":"10","stnrhi":"40","nrind":"NORMAL","fast":null,"dtc":"2026-03-24","dy":"723","visit":"VISIT 7","visitnum":"7.0","epoch":"TREATMENT","spec":null,"method":null},{"seq":"38","testcd":"CREAT","test":"Creatinine","cat":"CHEMISTRY","orres":"82.16","orresu":"umol/L","stresc":"82.16","stresn":"82.16","stresu":"umol/L","stnrlo":"44","stnrhi":"80","nrind":"HIGH","fast":null,"dtc":"2026-03-24","dy":"723","visit":"VISIT 7","visitnum":"7.0","epoch":"TREATMENT","spec":null,"method":null},{"seq":"39","testcd":"GLUC","test":"Glucose","cat":"CHEMISTRY","orres":"4.95","orresu":"mmol/L","stresc":"4.95","stresn":"4.95","stresu":"mmol/L","stnrlo":"3.9","stnrhi":"5.6","nrind":"NORMAL","fast":null,"dtc":"2026-03-24","dy":"723","visit":"VISIT 7","visitnum":"7.0","epoch":"TREATMENT","spec":null,"method":null},{"seq":"40","testcd":"HGB","test":"Hemoglobin","cat":"HEMATOLOGY","orres":"119.39","orresu":"g/L","stresc":"119.39","stresn":"119.39","stresu":"g/L","stnrlo":"120","stnrhi":"155","nrind":"LOW","fast":null,"dtc":"2026-03-24","dy":"723","visit":"VISIT 7","visitnum":"7.0","epoch":"TREATMENT","spec":null,"method":null},{"seq":"41","testcd":"PLAT","test":"Platelets","cat":"HEMATOLOGY","orres":"130.02","orresu":"10^9/L","stresc":"130.02","stresn":"130.02","stresu":"10^9/L","stnrlo":"150","stnrhi":"400","nrind":"LOW","fast":null,"dtc":"2026-03-24","dy":"723","visit":"VISIT 7","visitnum":"7.0","epoch":"TREATMENT","spec":null,"method":null},{"seq":"42","testcd":"WBC","test":"Leukocytes","cat":"HEMATOLOGY","orres":"2.84","orresu":"10^9/L","stresc":"2.84","stresn":"2.84","stresu":"10^9/L","stnrlo":"4.0","stnrhi":"11.0","nrind":"LOW","fast":null,"dtc":"2026-03-24","dy":"723","visit":"VISIT 7","visitnum":"7.0","epoch":"TREATMENT","spec":null,"method":null},{"seq":"43","testcd":"ALT","test":"Alanine Aminotransferase","cat":"CHEMISTRY","orres":"16.54","orresu":"U/L","stresc":"16.54","stresn":"16.54","stresu":"U/L","stnrlo":"7","stnrhi":"56","nrind":"NORMAL","fast":null,"dtc":"2027-03-28","dy":"1092","visit":"VISIT 8","visitnum":"8.0","epoch":"TREATMENT","spec":null,"method":null},{"seq":"44","testcd":"AST","test":"Aspartate Aminotransferase","cat":"CHEMISTRY","orres":"24.06","orresu":"U/L","stresc":"24.06","stresn":"24.06","stresu":"U/L","stnrlo":"10","stnrhi":"40","nrind":"NORMAL","fast":null,"dtc":"2027-03-28","dy":"1092","visit":"VISIT 8","visitnum":"8.0","epoch":"TREATMENT","spec":null,"method":null},{"seq":"45","testcd":"CREAT","test":"Creatinine","cat":"CHEMISTRY","orres":"83.58","orresu":"umol/L","stresc":"83.58","stresn":"83.58","stresu":"umol/L","stnrlo":"44","stnrhi":"80","nrind":"HIGH","fast":null,"dtc":"2027-03-28","dy":"1092","visit":"VISIT 8","visitnum":"8.0","epoch":"TREATMENT","spec":null,"method":null},{"seq":"46","testcd":"GLUC","test":"Glucose","cat":"CHEMISTRY","orres":"5.02","orresu":"mmol/L","stresc":"5.02","stresn":"5.02","stresu":"mmol/L","stnrlo":"3.9","stnrhi":"5.6","nrind":"NORMAL","fast":null,"dtc":"2027-03-28","dy":"1092","visit":"VISIT 8","visitnum":"8.0","epoch":"TREATMENT","spec":null,"method":null},{"seq":"47","testcd":"HGB","test":"Hemoglobin","cat":"HEMATOLOGY","orres":"120.14","orresu":"g/L","stresc":"120.14","stresn":"120.14","stresu":"g/L","stnrlo":"120","stnrhi":"155","nrind":"NORMAL","fast":null,"dtc":"2027-03-28","dy":"1092","visit":"VISIT 8","visitnum":"8.0","epoch":"TREATMENT","spec":null,"method":null},{"seq":"48","testcd":"PLAT","test":"Platelets","cat":"HEMATOLOGY","orres":"144.13","orresu":"10^9/L","stresc":"144.13","stresn":"144.13","stresu":"10^9/L","stnrlo":"150","stnrhi":"400","nrind":"LOW","fast":null,"dtc":"2027-03-28","dy":"1092","visit":"VISIT 8","visitnum":"8.0","epoch":"TREATMENT","spec":null,"method":null},{"seq":"49","testcd":"WBC","test":"Leukocytes","cat":"HEMATOLOGY","orres":null,"orresu":null,"stresc":null,"stresn":null,"stresu":null,"stnrlo":null,"stnrhi":null,"nrind":null,"fast":null,"dtc":"2027-03-28","dy":"1092","visit":"VISIT 8","visitnum":"8.0","epoch":"TREATMENT","spec":null,"method":null},{"seq":"50","testcd":"ALT","test":"Alanine Aminotransferase","cat":"CHEMISTRY","orres":"15.74","orresu":"U/L","stresc":"15.74","stresn":"15.74","stresu":"U/L","stnrlo":"7","stnrhi":"56","nrind":"NORMAL","fast":null,"dtc":"2028-03-20","dy":"1450","visit":"FINAL VISIT","visitnum":"10.0","epoch":"FOLLOW-UP","spec":null,"method":null},{"seq":"51","testcd":"AST","test":"Aspartate Aminotransferase","cat":"CHEMISTRY","orres":"21.5","orresu":"U/L","stresc":"21.5","stresn":"21.5","stresu":"U/L","stnrlo":"10","stnrhi":"40","nrind":"NORMAL","fast":null,"dtc":"2028-03-20","dy":"1450","visit":"FINAL VISIT","visitnum":"10.0","epoch":"FOLLOW-UP","spec":null,"method":null},{"seq":"52","testcd":"CREAT","test":"Creatinine","cat":"CHEMISTRY","orres":"82.74","orresu":"umol/L","stresc":"82.74","stresn":"82.74","stresu":"umol/L","stnrlo":"44","stnrhi":"80","nrind":"HIGH","fast":null,"dtc":"2028-03-20","dy":"1450","visit":"FINAL VISIT","visitnum":"10.0","epoch":"FOLLOW-UP","spec":null,"method":null},{"seq":"53","testcd":"GLUC","test":"Glucose","cat":"CHEMISTRY","orres":"5.05","orresu":"mmol/L","stresc":"5.05","stresn":"5.05","stresu":"mmol/L","stnrlo":"3.9","stnrhi":"5.6","nrind":"NORMAL","fast":null,"dtc":"2028-03-20","dy":"1450","visit":"FINAL VISIT","visitnum":"10.0","epoch":"FOLLOW-UP","spec":null,"method":null},{"seq":"54","testcd":"HGB","test":"Hemoglobin","cat":"HEMATOLOGY","orres":"118.72","orresu":"g/L","stresc":"118.72","stresn":"118.72","stresu":"g/L","stnrlo":"120","stnrhi":"155","nrind":"LOW","fast":null,"dtc":"2028-03-20","dy":"1450","visit":"FINAL VISIT","visitnum":"10.0","epoch":"FOLLOW-UP","spec":null,"method":null},{"seq":"55","testcd":"PLAT","test":"Platelets","cat":"HEMATOLOGY","orres":"140.13","orresu":"10^9/L","stresc":"140.13","stresn":"140.13","stresu":"10^9/L","stnrlo":"150","stnrhi":"400","nrind":"LOW","fast":null,"dtc":"2028-03-20","dy":"1450","visit":"FINAL VISIT","visitnum":"10.0","epoch":"FOLLOW-UP","spec":null,"method":null},{"seq":"56","testcd":"WBC","test":"Leukocytes","cat":"HEMATOLOGY","orres":"2.41","orresu":"10^9/L","stresc":"2.41","stresn":"2.41","stresu":"10^9/L","stnrlo":"4.0","stnrhi":"11.0","nrind":"LOW","fast":null,"dtc":"2028-03-20","dy":"1450","visit":"FINAL VISIT","visitnum":"10.0","epoch":"FOLLOW-UP","spec":null,"method":null}]},"section_9_vital_signs":{"summary":{"total_records":80},"trends":{"BMI":[{"visit":"ENROLLMENT","visitnum":"1.0","dtc":"2024-04-01","value":"27.5","unit":"kg/m2"},{"visit":"VISIT 2","visitnum":"2.0","dtc":"2024-06-24","value":"28.1","unit":"kg/m2"},{"visit":"VISIT 3","visitnum":"3.0","dtc":"2024-10-03","value":"27.3","unit":"kg/m2"},{"visit":"VISIT 4","visitnum":"4.0","dtc":"2025-01-07","value":"26.9","unit":"kg/m2"},{"visit":"VISIT 5","visitnum":"5.0","dtc":"2025-04-04","value":"28.3","unit":"kg/m2"},{"visit":"VISIT 6","visitnum":"6.0","dtc":"2025-10-01","value":"29.5","unit":"kg/m2"},{"visit":"VISIT 7","visitnum":"7.0","dtc":"2026-03-24","value":"29.5","unit":"kg/m2"},{"visit":"VISIT 8","visitnum":"8.0","dtc":"2027-03-28","value":"28.8","unit":"kg/m2"},{"visit":"VISIT 9","visitnum":"9.0","dtc":"2028-02-03","value":"28.6","unit":"kg/m2"},{"visit":"FINAL VISIT","visitnum":"10.0","dtc":"2028-03-20","value":"29.1","unit":"kg/m2"}],"DIABP":[{"visit":"ENROLLMENT","visitnum":"1.0","dtc":"2024-04-01","value":"90.1","unit":"mmHg"},{"visit":"VISIT 2","visitnum":"2.0","dtc":"2024-06-24","value":"90.4","unit":"mmHg"},{"visit":"VISIT 3","visitnum":"3.0","dtc":"2024-10-03","value":"90.8","unit":"mmHg"},{"visit":"VISIT 4","visitnum":"4.0","dtc":"2025-01-07","value":"89.5","unit":"mmHg"},{"visit":"VISIT 5","visitnum":"5.0","dtc":"2025-04-04","value":"90.1","unit":"mmHg"},{"visit":"VISIT 6","visitnum":"6.0","dtc":"2025-10-01","value":"89.3","unit":"mmHg"},{"visit":"VISIT 7","visitnum":"7.0","dtc":"2026-03-24","value":"89.1","unit":"mmHg"},{"visit":"VISIT 8","visitnum":"8.0","dtc":"2027-03-28","value":"91.3","unit":"mmHg"},{"visit":"VISIT 9","visitnum":"9.0","dtc":"2028-02-03","value":"90.6","unit":"mmHg"},{"visit":"FINAL VISIT","visitnum":"10.0","dtc":"2028-03-20","value":"90.9","unit":"mmHg"}],"HEIGHT":[{"visit":"ENROLLMENT","visitnum":"1.0","dtc":"2024-04-01","value":"163.3","unit":"cm"},{"visit":"VISIT 2","visitnum":"2.0","dtc":"2024-06-24","value":"163.6","unit":"cm"},{"visit":"VISIT 3","visitnum":"3.0","dtc":"2024-10-03","value":"163.8","unit":"cm"},{"visit":"VISIT 4","visitnum":"4.0","dtc":"2025-01-07","value":"163.7","unit":"cm"},{"visit":"VISIT 5","visitnum":"5.0","dtc":"2025-04-04","value":"162.9","unit":"cm"},{"visit":"VISIT 6","visitnum":"6.0","dtc":"2025-10-01","value":"162.9","unit":"cm"},{"visit":"VISIT 7","visitnum":"7.0","dtc":"2026-03-24","value":"162.6","unit":"cm"},{"visit":"VISIT 8","visitnum":"8.0","dtc":"2027-03-28","value":"162.6","unit":"cm"},{"visit":"VISIT 9","visitnum":"9.0","dtc":"2028-02-03","value":"162.8","unit":"cm"},{"visit":"FINAL VISIT","visitnum":"10.0","dtc":"2028-03-20","value":"162.4","unit":"cm"}],"PULSE":[{"visit":"ENROLLMENT","visitnum":"1.0","dtc":"2024-04-01","value":"54.4","unit":"beats/min"},{"visit":"VISIT 2","visitnum":"2.0","dtc":"2024-06-24","value":"51.3","unit":"beats/min"},{"visit":"VISIT 3","visitnum":"3.0","dtc":"2024-10-03","value":"48.2","unit":"beats/min"},{"visit":"VISIT 4","visitnum":"4.0","dtc":"2025-01-07","value":"47.2","unit":"beats/min"},{"visit":"VISIT 5","visitnum":"5.0","dtc":"2025-04-04","value":"59.7","unit":"beats/min"},{"visit":"VISIT 6","visitnum":"6.0","dtc":"2025-10-01","value":"54.2","unit":"beats/min"},{"visit":"VISIT 7","visitnum":"7.0","dtc":"2026-03-24","value":"58.8","unit":"beats/min"},{"visit":"VISIT 8","visitnum":"8.0","dtc":"2027-03-28","value":"64.8","unit":"beats/min"},{"visit":"VISIT 9","visitnum":"9.0","dtc":"2028-02-03","value":"62.0","unit":"beats/min"},{"visit":"FINAL VISIT","visitnum":"10.0","dtc":"2028-03-20","value":"60.7","unit":"beats/min"}],"RESP":[{"visit":"ENROLLMENT","visitnum":"1.0","dtc":"2024-04-01","value":"15.4","unit":"breaths/min"},{"visit":"VISIT 2","visitnum":"2.0","dtc":"2024-06-24","value":"15.1","unit":"breaths/min"},{"visit":"VISIT 3","visitnum":"3.0","dtc":"2024-10-03","value":"17.6","unit":"breaths/min"},{"visit":"VISIT 4","visitnum":"4.0","dtc":"2025-01-07","value":"16.3","unit":"breaths/min"},{"visit":"VISIT 5","visitnum":"5.0","dtc":"2025-04-04","value":"16.4","unit":"breaths/min"},{"visit":"VISIT 6","visitnum":"6.0","dtc":"2025-10-01","value":"16.4","unit":"breaths/min"},{"visit":"VISIT 7","visitnum":"7.0","dtc":"2026-03-24","value":"16.8","unit":"breaths/min"},{"visit":"VISIT 8","visitnum":"8.0","dtc":"2027-03-28","value":"16.0","unit":"breaths/min"},{"visit":"VISIT 9","visitnum":"9.0","dtc":"2028-02-03","value":"16.1","unit":"breaths/min"},{"visit":"FINAL VISIT","visitnum":"10.0","dtc":"2028-03-20","value":"16.4","unit":"breaths/min"}],"SYSBP":[{"visit":"ENROLLMENT","visitnum":"1.0","dtc":"2024-04-01","value":"107.9","unit":"mmHg"},{"visit":"VISIT 2","visitnum":"2.0","dtc":"2024-06-24","value":"107.5","unit":"mmHg"},{"visit":"VISIT 3","visitnum":"3.0","dtc":"2024-10-03","value":"106.9","unit":"mmHg"},{"visit":"VISIT 4","visitnum":"4.0","dtc":"2025-01-07","value":"105.5","unit":"mmHg"},{"visit":"VISIT 5","visitnum":"5.0","dtc":"2025-04-04","value":"108.2","unit":"mmHg"},{"visit":"VISIT 6","visitnum":"6.0","dtc":"2025-10-01","value":"107.4","unit":"mmHg"},{"visit":"VISIT 7","visitnum":"7.0","dtc":"2026-03-24","value":"107.6","unit":"mmHg"},{"visit":"VISIT 8","visitnum":"8.0","dtc":"2027-03-28","value":"108.0","unit":"mmHg"},{"visit":"VISIT 9","visitnum":"9.0","dtc":"2028-02-03","value":"107.6","unit":"mmHg"},{"visit":"FINAL VISIT","visitnum":"10.0","dtc":"2028-03-20","value":"107.5","unit":"mmHg"}],"TEMP":[{"visit":"ENROLLMENT","visitnum":"1.0","dtc":"2024-04-01","value":"36.1","unit":"C"},{"visit":"VISIT 2","visitnum":"2.0","dtc":"2024-06-24","value":"36.1","unit":"C"},{"visit":"VISIT 3","visitnum":"3.0","dtc":"2024-10-03","value":"36.1","unit":"C"},{"visit":"VISIT 4","visitnum":"4.0","dtc":"2025-01-07","value":"36.0","unit":"C"},{"visit":"VISIT 5","visitnum":"5.0","dtc":"2025-04-04","value":"35.7","unit":"C"},{"visit":"VISIT 6","visitnum":"6.0","dtc":"2025-10-01","value":"35.9","unit":"C"},{"visit":"VISIT 7","visitnum":"7.0","dtc":"2026-03-24","value":"36.4","unit":"C"},{"visit":"VISIT 8","visitnum":"8.0","dtc":"2027-03-28","value":"36.1","unit":"C"},{"visit":"VISIT 9","visitnum":"9.0","dtc":"2028-02-03","value":"36.2","unit":"C"},{"visit":"FINAL VISIT","visitnum":"10.0","dtc":"2028-03-20","value":"36.1","unit":"C"}],"WEIGHT":[{"visit":"ENROLLMENT","visitnum":"1.0","dtc":"2024-04-01","value":"73.4","unit":"kg"},{"visit":"VISIT 2","visitnum":"2.0","dtc":"2024-06-24","value":"75.1","unit":"kg"},{"visit":"VISIT 3","visitnum":"3.0","dtc":"2024-10-03","value":"73.3","unit":"kg"},{"visit":"VISIT 4","visitnum":"4.0","dtc":"2025-01-07","value":"72.0","unit":"kg"},{"visit":"VISIT 5","visitnum":"5.0","dtc":"2025-04-04","value":"75.1","unit":"kg"},{"visit":"VISIT 6","visitnum":"6.0","dtc":"2025-10-01","value":"78.2","unit":"kg"},{"visit":"VISIT 7","visitnum":"7.0","dtc":"2026-03-24","value":"78.0","unit":"kg"},{"visit":"VISIT 8","visitnum":"8.0","dtc":"2027-03-28","value":"76.2","unit":"kg"},{"visit":"VISIT 9","visitnum":"9.0","dtc":"2028-02-03","value":"75.7","unit":"kg"},{"visit":"FINAL VISIT","visitnum":"10.0","dtc":"2028-03-20","value":"76.7","unit":"kg"}]},"results":[{"seq":"1","testcd":"BMI","test":"BMI","cat":null,"orres":null,"orresu":null,"stresc":"27.5","stresn":"27.5","stresu":"kg/m2","stnrlo":null,"stnrhi":null,"nrind":null,"pos":null,"loc":null,"dtc":"2024-04-01","dy":"1","visit":"ENROLLMENT","visitnum":"1.0","epoch":"SCREENING"},{"seq":"2","testcd":"DIABP","test":"Diastolic Blood Pressure","cat":null,"orres":"90.1","orresu":"mmHg","stresc":"90.1","stresn":"90.1","stresu":"mmHg","stnrlo":null,"stnrhi":null,"nrind":null,"pos":null,"loc":null,"dtc":"2024-04-01","dy":"1","visit":"ENROLLMENT","visitnum":"1.0","epoch":"SCREENING"},{"seq":"3","testcd":"HEIGHT","test":"Height","cat":null,"orres":"163.3","orresu":"cm","stresc":"163.3","stresn":"163.3","stresu":"cm","stnrlo":null,"stnrhi":null,"nrind":null,"pos":null,"loc":null,"dtc":"2024-04-01","dy":"1","visit":"ENROLLMENT","visitnum":"1.0","epoch":"SCREENING"},{"seq":"4","testcd":"PULSE","test":"Pulse Rate","cat":null,"orres":"54.4","orresu":"beats/min","stresc":"54.4","stresn":"54.4","stresu":"beats/min","stnrlo":null,"stnrhi":null,"nrind":null,"pos":null,"loc":null,"dtc":"2024-04-01","dy":"1","visit":"ENROLLMENT","visitnum":"1.0","epoch":"SCREENING"},{"seq":"5","testcd":"RESP","test":"Respiratory Rate","cat":null,"orres":"15.4","orresu":"breaths/min","stresc":"15.4","stresn":"15.4","stresu":"breaths/min","stnrlo":null,"stnrhi":null,"nrind":null,"pos":null,"loc":null,"dtc":"2024-04-01","dy":"1","visit":"ENROLLMENT","visitnum":"1.0","epoch":"SCREENING"},{"seq":"6","testcd":"SYSBP","test":"Systolic Blood Pressure","cat":null,"orres":"107.9","orresu":"mmHg","stresc":"107.9","stresn":"107.9","stresu":"mmHg","stnrlo":null,"stnrhi":null,"nrind":null,"pos":null,"loc":null,"dtc":"2024-04-01","dy":"1","visit":"ENROLLMENT","visitnum":"1.0","epoch":"SCREENING"},{"seq":"7","testcd":"TEMP","test":"Temperature","cat":null,"orres":"36.1","orresu":"C","stresc":"36.1","stresn":"36.1","stresu":"C","stnrlo":null,"stnrhi":null,"nrind":null,"pos":null,"loc":null,"dtc":"2024-04-01","dy":"1","visit":"ENROLLMENT","visitnum":"1.0","epoch":"SCREENING"},{"seq":"8","testcd":"WEIGHT","test":"Weight","cat":null,"orres":"73.4","orresu":"kg","stresc":"73.4","stresn":"73.4","stresu":"kg","stnrlo":null,"stnrhi":null,"nrind":null,"pos":null,"loc":null,"dtc":"2024-04-01","dy":"1","visit":"ENROLLMENT","visitnum":"1.0","epoch":"SCREENING"},{"seq":"9","testcd":"BMI","test":"BMI","cat":null,"orres":null,"orresu":null,"stresc":"28.1","stresn":"28.1","stresu":"kg/m2","stnrlo":null,"stnrhi":null,"nrind":null,"pos":null,"loc":null,"dtc":"2024-06-24","dy":"85","visit":"VISIT 2","visitnum":"2.0","epoch":"TREATMENT"},{"seq":"10","testcd":"DIABP","test":"Diastolic Blood Pressure","cat":null,"orres":"90.4","orresu":"mmHg","stresc":"90.4","stresn":"90.4","stresu":"mmHg","stnrlo":null,"stnrhi":null,"nrind":null,"pos":null,"loc":null,"dtc":"2024-06-24","dy":"85","visit":"VISIT 2","visitnum":"2.0","epoch":"TREATMENT"},{"seq":"11","testcd":"HEIGHT","test":"Height","cat":null,"orres":"163.6","orresu":"cm","stresc":"163.6","stresn":"163.6","stresu":"cm","stnrlo":null,"stnrhi":null,"nrind":null,"pos":null,"loc":null,"dtc":"2024-06-24","dy":"85","visit":"VISIT 2","visitnum":"2.0","epoch":"TREATMENT"},{"seq":"12","testcd":"PULSE","test":"Pulse Rate","cat":null,"orres":"51.3","orresu":"beats/min","stresc":"51.3","stresn":"51.3","stresu":"beats/min","stnrlo":null,"stnrhi":null,"nrind":null,"pos":null,"loc":null,"dtc":"2024-06-24","dy":"85","visit":"VISIT 2","visitnum":"2.0","epoch":"TREATMENT"},{"seq":"13","testcd":"RESP","test":"Respiratory Rate","cat":null,"orres":"15.1","orresu":"breaths/min","stresc":"15.1","stresn":"15.1","stresu":"breaths/min","stnrlo":null,"stnrhi":null,"nrind":null,"pos":null,"loc":null,"dtc":"2024-06-24","dy":"85","visit":"VISIT 2","visitnum":"2.0","epoch":"TREATMENT"},{"seq":"14","testcd":"SYSBP","test":"Systolic Blood Pressure","cat":null,"orres":"107.5","orresu":"mmHg","stresc":"107.5","stresn":"107.5","stresu":"mmHg","stnrlo":null,"stnrhi":null,"nrind":null,"pos":null,"loc":null,"dtc":"2024-06-24","dy":"85","visit":"VISIT 2","visitnum":"2.0","epoch":"TREATMENT"},{"seq":"15","testcd":"TEMP","test":"Temperature","cat":null,"orres":"36.1","orresu":"C","stresc":"36.1","stresn":"36.1","stresu":"C","stnrlo":null,"stnrhi":null,"nrind":null,"pos":null,"loc":null,"dtc":"2024-06-24","dy":"85","visit":"VISIT 2","visitnum":"2.0","epoch":"TREATMENT"},{"seq":"16","testcd":"WEIGHT","test":"Weight","cat":null,"orres":"75.1","orresu":"kg","stresc":"75.1","stresn":"75.1","stresu":"kg","stnrlo":null,"stnrhi":null,"nrind":null,"pos":null,"loc":null,"dtc":"2024-06-24","dy":"85","visit":"VISIT 2","visitnum":"2.0","epoch":"TREATMENT"},{"seq":"17","testcd":"BMI","test":"BMI","cat":null,"orres":null,"orresu":null,"stresc":"27.3","stresn":"27.3","stresu":"kg/m2","stnrlo":null,"stnrhi":null,"nrind":null,"pos":null,"loc":null,"dtc":"2024-10-03","dy":"186","visit":"VISIT 3","visitnum":"3.0","epoch":"TREATMENT"},{"seq":"18","testcd":"DIABP","test":"Diastolic Blood Pressure","cat":null,"orres":"90.8","orresu":"mmHg","stresc":"90.8","stresn":"90.8","stresu":"mmHg","stnrlo":null,"stnrhi":null,"nrind":null,"pos":null,"loc":null,"dtc":"2024-10-03","dy":"186","visit":"VISIT 3","visitnum":"3.0","epoch":"TREATMENT"},{"seq":"19","testcd":"HEIGHT","test":"Height","cat":null,"orres":"163.8","orresu":"cm","stresc":"163.8","stresn":"163.8","stresu":"cm","stnrlo":null,"stnrhi":null,"nrind":null,"pos":null,"loc":null,"dtc":"2024-10-03","dy":"186","visit":"VISIT 3","visitnum":"3.0","epoch":"TREATMENT"},{"seq":"20","testcd":"PULSE","test":"Pulse Rate","cat":null,"orres":"48.2","orresu":"beats/min","stresc":"48.2","stresn":"48.2","stresu":"beats/min","stnrlo":null,"stnrhi":null,"nrind":null,"pos":null,"loc":null,"dtc":"2024-10-03","dy":"186","visit":"VISIT 3","visitnum":"3.0","epoch":"TREATMENT"},{"seq":"21","testcd":"RESP","test":"Respiratory Rate","cat":null,"orres":"17.6","orresu":"breaths/min","stresc":"17.6","stresn":"17.6","stresu":"breaths/min","stnrlo":null,"stnrhi":null,"nrind":null,"pos":null,"loc":null,"dtc":"2024-10-03","dy":"186","visit":"VISIT 3","visitnum":"3.0","epoch":"TREATMENT"},{"seq":"22","testcd":"SYSBP","test":"Systolic Blood Pressure","cat":null,"orres":"106.9","orresu":"mmHg","stresc":"106.9","stresn":"106.9","stresu":"mmHg","stnrlo":null,"stnrhi":null,"nrind":null,"pos":null,"loc":null,"dtc":"2024-10-03","dy":"186","visit":"VISIT 3","visitnum":"3.0","epoch":"TREATMENT"},{"seq":"23","testcd":"TEMP","test":"Temperature","cat":null,"orres":"36.1","orresu":"C","stresc":"36.1","stresn":"36.1","stresu":"C","stnrlo":null,"stnrhi":null,"nrind":null,"pos":null,"loc":null,"dtc":"2024-10-03","dy":"186","visit":"VISIT 3","visitnum":"3.0","epoch":"TREATMENT"},{"seq":"24","testcd":"WEIGHT","test":"Weight","cat":null,"orres":"73.3","orresu":"kg","stresc":"73.3","stresn":"73.3","stresu":"kg","stnrlo":null,"stnrhi":null,"nrind":null,"pos":null,"loc":null,"dtc":"2024-10-03","dy":"186","visit":"VISIT 3","visitnum":"3.0","epoch":"TREATMENT"},{"seq":"25","testcd":"BMI","test":"BMI","cat":null,"orres":null,"orresu":null,"stresc":"26.9","stresn":"26.9","stresu":"kg/m2","stnrlo":null,"stnrhi":null,"nrind":null,"pos":null,"loc":null,"dtc":"2025-01-07","dy":"282","visit":"VISIT 4","visitnum":"4.0","epoch":"TREATMENT"},{"seq":"26","testcd":"DIABP","test":"Diastolic Blood Pressure","cat":null,"orres":"89.5","orresu":"mmHg","stresc":"89.5","stresn":"89.5","stresu":"mmHg","stnrlo":null,"stnrhi":null,"nrind":null,"pos":null,"loc":null,"dtc":"2025-01-07","dy":"282","visit":"VISIT 4","visitnum":"4.0","epoch":"TREATMENT"},{"seq":"27","testcd":"HEIGHT","test":"Height","cat":null,"orres":"163.7","orresu":"cm","stresc":"163.7","stresn":"163.7","stresu":"cm","stnrlo":null,"stnrhi":null,"nrind":null,"pos":null,"loc":null,"dtc":"2025-01-07","dy":"282","visit":"VISIT 4","visitnum":"4.0","epoch":"TREATMENT"},{"seq":"28","testcd":"PULSE","test":"Pulse Rate","cat":null,"orres":"47.2","orresu":"beats/min","stresc":"47.2","stresn":"47.2","stresu":"beats/min","stnrlo":null,"stnrhi":null,"nrind":null,"pos":null,"loc":null,"dtc":"2025-01-07","dy":"282","visit":"VISIT 4","visitnum":"4.0","epoch":"TREATMENT"},{"seq":"29","testcd":"RESP","test":"Respiratory Rate","cat":null,"orres":"16.3","orresu":"breaths/min","stresc":"16.3","stresn":"16.3","stresu":"breaths/min","stnrlo":null,"stnrhi":null,"nrind":null,"pos":null,"loc":null,"dtc":"2025-01-07","dy":"282","visit":"VISIT 4","visitnum":"4.0","epoch":"TREATMENT"},{"seq":"30","testcd":"SYSBP","test":"Systolic Blood Pressure","cat":null,"orres":"105.5","orresu":"mmHg","stresc":"105.5","stresn":"105.5","stresu":"mmHg","stnrlo":null,"stnrhi":null,"nrind":null,"pos":null,"loc":null,"dtc":"2025-01-07","dy":"282","visit":"VISIT 4","visitnum":"4.0","epoch":"TREATMENT"},{"seq":"31","testcd":"TEMP","test":"Temperature","cat":null,"orres":"36.0","orresu":"C","stresc":"36.0","stresn":"36.0","stresu":"C","stnrlo":null,"stnrhi":null,"nrind":null,"pos":null,"loc":null,"dtc":"2025-01-07","dy":"282","visit":"VISIT 4","visitnum":"4.0","epoch":"TREATMENT"},{"seq":"32","testcd":"WEIGHT","test":"Weight","cat":null,"orres":"72.0","orresu":"kg","stresc":"72.0","stresn":"72.0","stresu":"kg","stnrlo":null,"stnrhi":null,"nrind":null,"pos":null,"loc":null,"dtc":"2025-01-07","dy":"282","visit":"VISIT 4","visitnum":"4.0","epoch":"TREATMENT"},{"seq":"33","testcd":"BMI","test":"BMI","cat":null,"orres":null,"orresu":null,"stresc":"28.3","stresn":"28.3","stresu":"kg/m2","stnrlo":null,"stnrhi":null,"nrind":null,"pos":null,"loc":null,"dtc":"2025-04-04","dy":"369","visit":"VISIT 5","visitnum":"5.0","epoch":"TREATMENT"},{"seq":"34","testcd":"DIABP","test":"Diastolic Blood Pressure","cat":null,"orres":"90.1","orresu":"mmHg","stresc":"90.1","stresn":"90.1","stresu":"mmHg","stnrlo":null,"stnrhi":null,"nrind":null,"pos":null,"loc":null,"dtc":"2025-04-04","dy":"369","visit":"VISIT 5","visitnum":"5.0","epoch":"TREATMENT"},{"seq":"35","testcd":"HEIGHT","test":"Height","cat":null,"orres":"162.9","orresu":"cm","stresc":"162.9","stresn":"162.9","stresu":"cm","stnrlo":null,"stnrhi":null,"nrind":null,"pos":null,"loc":null,"dtc":"2025-04-04","dy":"369","visit":"VISIT 5","visitnum":"5.0","epoch":"TREATMENT"},{"seq":"36","testcd":"PULSE","test":"Pulse Rate","cat":null,"orres":"59.7","orresu":"beats/min","stresc":"59.7","stresn":"59.7","stresu":"beats/min","stnrlo":null,"stnrhi":null,"nrind":null,"pos":null,"loc":null,"dtc":"2025-04-04","dy":"369","visit":"VISIT 5","visitnum":"5.0","epoch":"TREATMENT"},{"seq":"37","testcd":"RESP","test":"Respiratory Rate","cat":null,"orres":"16.4","orresu":"breaths/min","stresc":"16.4","stresn":"16.4","stresu":"breaths/min","stnrlo":null,"stnrhi":null,"nrind":null,"pos":null,"loc":null,"dtc":"2025-04-04","dy":"369","visit":"VISIT 5","visitnum":"5.0","epoch":"TREATMENT"},{"seq":"38","testcd":"SYSBP","test":"Systolic Blood Pressure","cat":null,"orres":"108.2","orresu":"mmHg","stresc":"108.2","stresn":"108.2","stresu":"mmHg","stnrlo":null,"stnrhi":null,"nrind":null,"pos":null,"loc":null,"dtc":"2025-04-04","dy":"369","visit":"VISIT 5","visitnum":"5.0","epoch":"TREATMENT"},{"seq":"39","testcd":"TEMP","test":"Temperature","cat":null,"orres":"35.7","orresu":"C","stresc":"35.7","stresn":"35.7","stresu":"C","stnrlo":null,"stnrhi":null,"nrind":null,"pos":null,"loc":null,"dtc":"2025-04-04","dy":"369","visit":"VISIT 5","visitnum":"5.0","epoch":"TREATMENT"},{"seq":"40","testcd":"WEIGHT","test":"Weight","cat":null,"orres":"75.1","orresu":"kg","stresc":"75.1","stresn":"75.1","stresu":"kg","stnrlo":null,"stnrhi":null,"nrind":null,"pos":null,"loc":null,"dtc":"2025-04-04","dy":"369","visit":"VISIT 5","visitnum":"5.0","epoch":"TREATMENT"},{"seq":"41","testcd":"BMI","test":"BMI","cat":null,"orres":null,"orresu":null,"stresc":"29.5","stresn":"29.5","stresu":"kg/m2","stnrlo":null,"stnrhi":null,"nrind":null,"pos":null,"loc":null,"dtc":"2025-10-01","dy":"549","visit":"VISIT 6","visitnum":"6.0","epoch":"TREATMENT"},{"seq":"42","testcd":"DIABP","test":"Diastolic Blood Pressure","cat":null,"orres":"89.3","orresu":"mmHg","stresc":"89.3","stresn":"89.3","stresu":"mmHg","stnrlo":null,"stnrhi":null,"nrind":null,"pos":null,"loc":null,"dtc":"2025-10-01","dy":"549","visit":"VISIT 6","visitnum":"6.0","epoch":"TREATMENT"},{"seq":"43","testcd":"HEIGHT","test":"Height","cat":null,"orres":"162.9","orresu":"cm","stresc":"162.9","stresn":"162.9","stresu":"cm","stnrlo":null,"stnrhi":null,"nrind":null,"pos":null,"loc":null,"dtc":"2025-10-01","dy":"549","visit":"VISIT 6","visitnum":"6.0","epoch":"TREATMENT"},{"seq":"44","testcd":"PULSE","test":"Pulse Rate","cat":null,"orres":"54.2","orresu":"beats/min","stresc":"54.2","stresn":"54.2","stresu":"beats/min","stnrlo":null,"stnrhi":null,"nrind":null,"pos":null,"loc":null,"dtc":"2025-10-01","dy":"549","visit":"VISIT 6","visitnum":"6.0","epoch":"TREATMENT"},{"seq":"45","testcd":"RESP","test":"Respiratory Rate","cat":null,"orres":"16.4","orresu":"breaths/min","stresc":"16.4","stresn":"16.4","stresu":"breaths/min","stnrlo":null,"stnrhi":null,"nrind":null,"pos":null,"loc":null,"dtc":"2025-10-01","dy":"549","visit":"VISIT 6","visitnum":"6.0","epoch":"TREATMENT"},{"seq":"46","testcd":"SYSBP","test":"Systolic Blood Pressure","cat":null,"orres":"107.4","orresu":"mmHg","stresc":"107.4","stresn":"107.4","stresu":"mmHg","stnrlo":null,"stnrhi":null,"nrind":null,"pos":null,"loc":null,"dtc":"2025-10-01","dy":"549","visit":"VISIT 6","visitnum":"6.0","epoch":"TREATMENT"},{"seq":"47","testcd":"TEMP","test":"Temperature","cat":null,"orres":"35.9","orresu":"C","stresc":"35.9","stresn":"35.9","stresu":"C","stnrlo":null,"stnrhi":null,"nrind":null,"pos":null,"loc":null,"dtc":"2025-10-01","dy":"549","visit":"VISIT 6","visitnum":"6.0","epoch":"TREATMENT"},{"seq":"48","testcd":"WEIGHT","test":"Weight","cat":null,"orres":"78.2","orresu":"kg","stresc":"78.2","stresn":"78.2","stresu":"kg","stnrlo":null,"stnrhi":null,"nrind":null,"pos":null,"loc":null,"dtc":"2025-10-01","dy":"549","visit":"VISIT 6","visitnum":"6.0","epoch":"TREATMENT"},{"seq":"49","testcd":"BMI","test":"BMI","cat":null,"orres":null,"orresu":null,"stresc":"29.5","stresn":"29.5","stresu":"kg/m2","stnrlo":null,"stnrhi":null,"nrind":null,"pos":null,"loc":null,"dtc":"2026-03-24","dy":"723","visit":"VISIT 7","visitnum":"7.0","epoch":"TREATMENT"},{"seq":"50","testcd":"DIABP","test":"Diastolic Blood Pressure","cat":null,"orres":"89.1","orresu":"mmHg","stresc":"89.1","stresn":"89.1","stresu":"mmHg","stnrlo":null,"stnrhi":null,"nrind":null,"pos":null,"loc":null,"dtc":"2026-03-24","dy":"723","visit":"VISIT 7","visitnum":"7.0","epoch":"TREATMENT"},{"seq":"51","testcd":"HEIGHT","test":"Height","cat":null,"orres":"162.6","orresu":"cm","stresc":"162.6","stresn":"162.6","stresu":"cm","stnrlo":null,"stnrhi":null,"nrind":null,"pos":null,"loc":null,"dtc":"2026-03-24","dy":"723","visit":"VISIT 7","visitnum":"7.0","epoch":"TREATMENT"},{"seq":"52","testcd":"PULSE","test":"Pulse Rate","cat":null,"orres":"58.8","orresu":"beats/min","stresc":"58.8","stresn":"58.8","stresu":"beats/min","stnrlo":null,"stnrhi":null,"nrind":null,"pos":null,"loc":null,"dtc":"2026-03-24","dy":"723","visit":"VISIT 7","visitnum":"7.0","epoch":"TREATMENT"},{"seq":"53","testcd":"RESP","test":"Respiratory Rate","cat":null,"orres":"16.8","orresu":"breaths/min","stresc":"16.8","stresn":"16.8","stresu":"breaths/min","stnrlo":null,"stnrhi":null,"nrind":null,"pos":null,"loc":null,"dtc":"2026-03-24","dy":"723","visit":"VISIT 7","visitnum":"7.0","epoch":"TREATMENT"},{"seq":"54","testcd":"SYSBP","test":"Systolic Blood Pressure","cat":null,"orres":"107.6","orresu":"mmHg","stresc":"107.6","stresn":"107.6","stresu":"mmHg","stnrlo":null,"stnrhi":null,"nrind":null,"pos":null,"loc":null,"dtc":"2026-03-24","dy":"723","visit":"VISIT 7","visitnum":"7.0","epoch":"TREATMENT"},{"seq":"55","testcd":"TEMP","test":"Temperature","cat":null,"orres":"36.4","orresu":"C","stresc":"36.4","stresn":"36.4","stresu":"C","stnrlo":null,"stnrhi":null,"nrind":null,"pos":null,"loc":null,"dtc":"2026-03-24","dy":"723","visit":"VISIT 7","visitnum":"7.0","epoch":"TREATMENT"},{"seq":"56","testcd":"WEIGHT","test":"Weight","cat":null,"orres":"78.0","orresu":"kg","stresc":"78.0","stresn":"78.0","stresu":"kg","stnrlo":null,"stnrhi":null,"nrind":null,"pos":null,"loc":null,"dtc":"2026-03-24","dy":"723","visit":"VISIT 7","visitnum":"7.0","epoch":"TREATMENT"},{"seq":"57","testcd":"BMI","test":"BMI","cat":null,"orres":null,"orresu":null,"stresc":"28.8","stresn":"28.8","stresu":"kg/m2","stnrlo":null,"stnrhi":null,"nrind":null,"pos":null,"loc":null,"dtc":"2027-03-28","dy":"1092","visit":"VISIT 8","visitnum":"8.0","epoch":"TREATMENT"},{"seq":"58","testcd":"DIABP","test":"Diastolic Blood Pressure","cat":null,"orres":"91.3","orresu":"mmHg","stresc":"91.3","stresn":"91.3","stresu":"mmHg","stnrlo":null,"stnrhi":null,"nrind":null,"pos":null,"loc":null,"dtc":"2027-03-28","dy":"1092","visit":"VISIT 8","visitnum":"8.0","epoch":"TREATMENT"},{"seq":"59","testcd":"HEIGHT","test":"Height","cat":null,"orres":"162.6","orresu":"cm","stresc":"162.6","stresn":"162.6","stresu":"cm","stnrlo":null,"stnrhi":null,"nrind":null,"pos":null,"loc":null,"dtc":"2027-03-28","dy":"1092","visit":"VISIT 8","visitnum":"8.0","epoch":"TREATMENT"},{"seq":"60","testcd":"PULSE","test":"Pulse Rate","cat":null,"orres":"64.8","orresu":"beats/min","stresc":"64.8","stresn":"64.8","stresu":"beats/min","stnrlo":null,"stnrhi":null,"nrind":null,"pos":null,"loc":null,"dtc":"2027-03-28","dy":"1092","visit":"VISIT 8","visitnum":"8.0","epoch":"TREATMENT"},{"seq":"61","testcd":"RESP","test":"Respiratory Rate","cat":null,"orres":"16.0","orresu":"breaths/min","stresc":"16.0","stresn":"16.0","stresu":"breaths/min","stnrlo":null,"stnrhi":null,"nrind":null,"pos":null,"loc":null,"dtc":"2027-03-28","dy":"1092","visit":"VISIT 8","visitnum":"8.0","epoch":"TREATMENT"},{"seq":"62","testcd":"SYSBP","test":"Systolic Blood Pressure","cat":null,"orres":"108.0","orresu":"mmHg","stresc":"108.0","stresn":"108.0","stresu":"mmHg","stnrlo":null,"stnrhi":null,"nrind":null,"pos":null,"loc":null,"dtc":"2027-03-28","dy":"1092","visit":"VISIT 8","visitnum":"8.0","epoch":"TREATMENT"},{"seq":"63","testcd":"TEMP","test":"Temperature","cat":null,"orres":"36.1","orresu":"C","stresc":"36.1","stresn":"36.1","stresu":"C","stnrlo":null,"stnrhi":null,"nrind":null,"pos":null,"loc":null,"dtc":"2027-03-28","dy":"1092","visit":"VISIT 8","visitnum":"8.0","epoch":"TREATMENT"},{"seq":"64","testcd":"WEIGHT","test":"Weight","cat":null,"orres":"76.2","orresu":"kg","stresc":"76.2","stresn":"76.2","stresu":"kg","stnrlo":null,"stnrhi":null,"nrind":null,"pos":null,"loc":null,"dtc":"2027-03-28","dy":"1092","visit":"VISIT 8","visitnum":"8.0","epoch":"TREATMENT"},{"seq":"65","testcd":"BMI","test":"BMI","cat":null,"orres":null,"orresu":null,"stresc":"28.6","stresn":"28.6","stresu":"kg/m2","stnrlo":null,"stnrhi":null,"nrind":null,"pos":null,"loc":null,"dtc":"2028-02-03","dy":"1404","visit":"VISIT 9","visitnum":"9.0","epoch":"TREATMENT"},{"seq":"66","testcd":"DIABP","test":"Diastolic Blood Pressure","cat":null,"orres":"90.6","orresu":"mmHg","stresc":"90.6","stresn":"90.6","stresu":"mmHg","stnrlo":null,"stnrhi":null,"nrind":null,"pos":null,"loc":null,"dtc":"2028-02-03","dy":"1404","visit":"VISIT 9","visitnum":"9.0","epoch":"TREATMENT"},{"seq":"67","testcd":"HEIGHT","test":"Height","cat":null,"orres":"162.8","orresu":"cm","stresc":"162.8","stresn":"162.8","stresu":"cm","stnrlo":null,"stnrhi":null,"nrind":null,"pos":null,"loc":null,"dtc":"2028-02-03","dy":"1404","visit":"VISIT 9","visitnum":"9.0","epoch":"TREATMENT"},{"seq":"68","testcd":"PULSE","test":"Pulse Rate","cat":null,"orres":"62.0","orresu":"beats/min","stresc":"62.0","stresn":"62.0","stresu":"beats/min","stnrlo":null,"stnrhi":null,"nrind":null,"pos":null,"loc":null,"dtc":"2028-02-03","dy":"1404","visit":"VISIT 9","visitnum":"9.0","epoch":"TREATMENT"},{"seq":"69","testcd":"RESP","test":"Respiratory Rate","cat":null,"orres":"16.1","orresu":"breaths/min","stresc":"16.1","stresn":"16.1","stresu":"breaths/min","stnrlo":null,"stnrhi":null,"nrind":null,"pos":null,"loc":null,"dtc":"2028-02-03","dy":"1404","visit":"VISIT 9","visitnum":"9.0","epoch":"TREATMENT"},{"seq":"70","testcd":"SYSBP","test":"Systolic Blood Pressure","cat":null,"orres":"107.6","orresu":"mmHg","stresc":"107.6","stresn":"107.6","stresu":"mmHg","stnrlo":null,"stnrhi":null,"nrind":null,"pos":null,"loc":null,"dtc":"2028-02-03","dy":"1404","visit":"VISIT 9","visitnum":"9.0","epoch":"TREATMENT"},{"seq":"71","testcd":"TEMP","test":"Temperature","cat":null,"orres":"36.2","orresu":"C","stresc":"36.2","stresn":"36.2","stresu":"C","stnrlo":null,"stnrhi":null,"nrind":null,"pos":null,"loc":null,"dtc":"2028-02-03","dy":"1404","visit":"VISIT 9","visitnum":"9.0","epoch":"TREATMENT"},{"seq":"72","testcd":"WEIGHT","test":"Weight","cat":null,"orres":"75.7","orresu":"kg","stresc":"75.7","stresn":"75.7","stresu":"kg","stnrlo":null,"stnrhi":null,"nrind":null,"pos":null,"loc":null,"dtc":"2028-02-03","dy":"1404","visit":"VISIT 9","visitnum":"9.0","epoch":"TREATMENT"},{"seq":"73","testcd":"BMI","test":"BMI","cat":null,"orres":null,"orresu":null,"stresc":"29.1","stresn":"29.1","stresu":"kg/m2","stnrlo":null,"stnrhi":null,"nrind":null,"pos":null,"loc":null,"dtc":"2028-03-20","dy":"1450","visit":"FINAL VISIT","visitnum":"10.0","epoch":"FOLLOW-UP"},{"seq":"74","testcd":"DIABP","test":"Diastolic Blood Pressure","cat":null,"orres":"90.9","orresu":"mmHg","stresc":"90.9","stresn":"90.9","stresu":"mmHg","stnrlo":null,"stnrhi":null,"nrind":null,"pos":null,"loc":null,"dtc":"2028-03-20","dy":"1450","visit":"FINAL VISIT","visitnum":"10.0","epoch":"FOLLOW-UP"},{"seq":"75","testcd":"HEIGHT","test":"Height","cat":null,"orres":"162.4","orresu":"cm","stresc":"162.4","stresn":"162.4","stresu":"cm","stnrlo":null,"stnrhi":null,"nrind":null,"pos":null,"loc":null,"dtc":"2028-03-20","dy":"1450","visit":"FINAL VISIT","visitnum":"10.0","epoch":"FOLLOW-UP"},{"seq":"76","testcd":"PULSE","test":"Pulse Rate","cat":null,"orres":"60.7","orresu":"beats/min","stresc":"60.7","stresn":"60.7","stresu":"beats/min","stnrlo":null,"stnrhi":null,"nrind":null,"pos":null,"loc":null,"dtc":"2028-03-20","dy":"1450","visit":"FINAL VISIT","visitnum":"10.0","epoch":"FOLLOW-UP"},{"seq":"77","testcd":"RESP","test":"Respiratory Rate","cat":null,"orres":"16.4","orresu":"breaths/min","stresc":"16.4","stresn":"16.4","stresu":"breaths/min","stnrlo":null,"stnrhi":null,"nrind":null,"pos":null,"loc":null,"dtc":"2028-03-20","dy":"1450","visit":"FINAL VISIT","visitnum":"10.0","epoch":"FOLLOW-UP"},{"seq":"78","testcd":"SYSBP","test":"Systolic Blood Pressure","cat":null,"orres":"107.5","orresu":"mmHg","stresc":"107.5","stresn":"107.5","stresu":"mmHg","stnrlo":null,"stnrhi":null,"nrind":null,"pos":null,"loc":null,"dtc":"2028-03-20","dy":"1450","visit":"FINAL VISIT","visitnum":"10.0","epoch":"FOLLOW-UP"},{"seq":"79","testcd":"TEMP","test":"Temperature","cat":null,"orres":"36.1","orresu":"C","stresc":"36.1","stresn":"36.1","stresu":"C","stnrlo":null,"stnrhi":null,"nrind":null,"pos":null,"loc":null,"dtc":"2028-03-20","dy":"1450","visit":"FINAL VISIT","visitnum":"10.0","epoch":"FOLLOW-UP"},{"seq":"80","testcd":"WEIGHT","test":"Weight","cat":null,"orres":"76.7","orresu":"kg","stresc":"76.7","stresn":"76.7","stresu":"kg","stnrlo":null,"stnrhi":null,"nrind":null,"pos":null,"loc":null,"dtc":"2028-03-20","dy":"1450","visit":"FINAL VISIT","visitnum":"10.0","epoch":"FOLLOW-UP"}]},"section_10_questionnaires_and_scores":{"questionnaires":[],"findings_about":[]},"section_11_protocol_deviations":{"deviations":[{"seq":"1","term":"Visit VISIT 3 occurred 6 days late (Day 186 vs planned Day 180)","decod":"VISIT OCCURRED OUTSIDE VISIT WINDOW","cat":"MINOR","scat":"VISIT WINDOW","start_dtc":"2024-10-03","end_dtc":null,"visit":null},{"seq":"2","term":"Missed MIDAZOLAM dose on 2025-07-21","decod":"MISSED DOSE","cat":"MINOR","scat":"DOSING","start_dtc":"2025-07-21","end_dtc":null,"visit":null},{"seq":"3","term":"Visit VISIT 6 occurred 9 days late (Day 549 vs planned Day 540)","decod":"VISIT OCCURRED OUTSIDE VISIT WINDOW","cat":"MINOR","scat":"VISIT WINDOW","start_dtc":"2025-10-01","end_dtc":null,"visit":null},{"seq":"4","term":"Visit VISIT 7 occurred 7 days early (Day 723 vs planned Day 730)","decod":"VISIT OCCURRED OUTSIDE VISIT WINDOW","cat":"MINOR","scat":"VISIT WINDOW","start_dtc":"2026-03-24","end_dtc":null,"visit":null}],"total":4},"section_12_disposition":{"completion_status":"COMPLETED","disposition_records":[{"seq":"1","term":"INFORMED CONSENT OBTAINED","decod":"INFORMED CONSENT OBTAINED","cat":"PROTOCOL MILESTONE","scat":null,"dtc":"2024-03-01","dy":null,"visit":null,"epoch":"SCREENING"},{"seq":"2","term":"RANDOMIZED","decod":"RANDOMIZED","cat":"PROTOCOL MILESTONE","scat":null,"dtc":"2024-04-01","dy":null,"visit":null,"epoch":"TREATMENT"},{"seq":"3","term":"COMPLETED","decod":"COMPLETED","cat":"DISPOSITION EVENT","scat":null,"dtc":"2028-03-30","dy":null,"visit":null,"epoch":"FOLLOW-UP"}],"death":null},"section_13_hospitalizations":{"items":[{"seq":"1","term":"Headache","decod":"Headache","cat":"HOSPITALIZATION","start_dtc":"2025-01-18","end_dtc":"2025-01-21","epoch":"TREATMENT"},{"seq":"2","term":"Nasal discomfort","decod":"Nasal discomfort","cat":"HOSPITALIZATION","start_dtc":"2026-07-24","end_dtc":"2026-08-04","epoch":"TREATMENT"},{"seq":"3","term":"Somnolence","decod":"Somnolence","cat":"HOSPITALIZATION","start_dtc":"2027-05-22","end_dtc":"2027-05-29","epoch":"TREATMENT"},{"seq":"4","term":"Fatigue","decod":"Fatigue","cat":"HOSPITALIZATION","start_dtc":"2027-05-29","end_dtc":"2027-06-11","epoch":"TREATMENT"}],"total":4},"section_14_substance_use":{"items":[{"seq":"1","substance":"BEER/WINE/SPIRITS","decod":"ETHANOL","cat":"ALCOHOL","scat":null,"usage":"Y","dose":"5.0","dosu":"DRINKS/WEEK","freq":"QW","start_dtc":"2022-03-02","end_dtc":null},{"seq":"2","substance":"COFFEE","decod":"COFFEE","cat":"CAFFEINE","scat":null,"usage":"Y","dose":"4.0","dosu":"CUPS/DAY","freq":"QD","start_dtc":"2012-03-04","end_dtc":null},{"seq":"3","substance":"CIGARETTES","decod":"CIGARETTES","cat":"TOBACCO","scat":null,"usage":"N","dose":null,"dosu":null,"freq":null,"start_dtc":null,"end_dtc":null}],"total":3},"section_15_subject_status":{"items":[{"seq":"1","testcd":"SURVSTAT","test":"Survival Status","orres":"ALIVE","stresc":"ALIVE","dtc":"2028-03-30","visit":null,"epoch":"FOLLOW-UP"}],"total":1}}