STUDYID,DOMAIN,RDOMAIN,USUBJID,COSEQ,IDVAR,IDVARVAL,COREF,COVAL,COVAL1,COEVAL,COEVALID,VISIT,TAETORD,CODTC,CODY
CL01,CO,,SD-001,1,,,VISIT 1,Comment Text,,PRINCIPAL INVESTIGATOR,CERTIFIED ASSESSOR 1,1,1,2025-01-29,-3
CL01,CO,AE,SD-001,2,AESEQ,1,PAGE 650,First 200 characters,Next 200 characters,PRINCIPAL INVESTIGATOR,CERTIFIED ASSESSOR 1,,,,
CL01,CO,,SD-002,1,,,VISIT 1,Comment Text,,PRINCIPAL INVESTIGATOR,CERTIFIED ASSESSOR 1,1,1,2025-01-29,-3
CL01,CO,AE,SD-002,2,AESEQ,1,PAGE 650,First 200 characters,Next 200 characters,PRINCIPAL INVESTIGATOR,CERTIFIED ASSESSOR 1,,,,
CL01,CO,,SD-002,1,,,VISIT 1,Comment Text,,PRINCIPAL INVESTIGATOR,CERTIFIED ASSESSOR 1,1,1,2025-01-29,-3
CL01,CO,CM,SD-002,2,AESEQ,1,PAGE 650,First 200 characters,Next 200 characters,PRINCIPAL INVESTIGATOR,CERTIFIED ASSESSOR 1,,,,
CL01,CO,,SD-005,1,,,VISIT 1,Comment Text,,PRINCIPAL INVESTIGATOR,CERTIFIED ASSESSOR 1,1,1,2025-01-29,-3
CL01,CO,CM,SD-005,2,AESEQ,1,PAGE 650,First 200 characters,Next 200 characters,PRINCIPAL INVESTIGATOR,CERTIFIED ASSESSOR 1,,,,