STUDYID,DOMAIN,USUBJID,TRSEQ,TRGRPID,TRREFID,TRSPID,TRLNKID,TRLNKGRP,TRTESTCD,TRTEST,TRORRES,TRORRESU,TRSTRESC,TRSTRESN,TRSTRESU,TRSTAT,TRREASND,TRNAM,TRMETHOD,TRLOBXFL,TRBLFL,TREVAL,TREVALID,TRACPTFL,VISITNUM,VISIT,VISITDY,TAETORD,EPOCH,TRDTC,TRDY
CL01,TR,SD-001,1,TR-G1,TR-B-01,TR-SP1,TR-L001,LNK-G001,DIAMETER,Diameter,17,mm,POSITIVE,,,,,ABC,CT SCAN,Y,Y,ONCOLOGIST,ONCOLOGIST 1,Y,4,FOLLOW-UP,36,4,FOLLOW-UP,2025-03-08,36
CL01,TR,SD-002,1,TR-G2,TR-A-02,TR-SP2,TR-L002,LNK-G001,DIAMETER,Diameter,18,mm,POSITIVE,,,,,ABC,CT SCAN,,Y,ONCOLOGIST,ONCOLOGIST 2,Y,4,FOLLOW-UP,36,4,FOLLOW-UP,2025-03-08,36
CL01,TR,SD-003,1,TR-G3,TR-P-03,TR-SP3,TR-L003,LNK-G001,DIAMETER,Diameter,15,mm,POSITIVE,,,,,ABC,MRI,,Y,ONCOLOGIST,ONCOLOGIST 1,Y,4,FOLLOW-UP,36,4,FOLLOW-UP,2025-03-08,36
CL01,TR,SD-004,1,TR-G4,TR-B-04,TR-SP4,TR-L004,LNK-G001,DIAMETER,Diameter,14,mm,POSITIVE,,,,,ABC,PHOTOGRAPHY,,Y,ONCOLOGIST,ONCOLOGIST 1,Y,4,FOLLOW-UP,36,4,FOLLOW-UP,2025-03-08,36
CL01,TR,SD-005,1,TR-G5,TR-A-05,TR-SP5,TR-L005,LNK-G001,DIAMETER,Diameter,0,mm,POSITIVE,,,,,ABC,CT SCAN,,Y,ONCOLOGIST,ONCOLOGIST 1,Y,4,FOLLOW-UP,36,4,FOLLOW-UP,2025-03-08,36
CL01,TR,SD-006,1,TR-G6,TR-B-06,TR-SP6,TR-L006,LNK-G001,DIAMETER,Diameter,TOO SMALL TO MEASURE,mm,POSITIVE,,,,,ABC,CT SCAN,,Y,ONCOLOGIST,ONCOLOGIST 2,Y,4,FOLLOW-UP,36,4,FOLLOW-UP,2025-03-08,36
CL01,TR,SD-007,1,TR-G7,TR-P-07,TR-SP7,TR-L007,LNK-G001,DIAMETER,Diameter,12,mm,POSITIVE,,,,,ABC,MRI,,Y,ONCOLOGIST,ONCOLOGIST 1,Y,4,FOLLOW-UP,36,4,FOLLOW-UP,2025-03-08,36
CL01,TR,SD-008,1,TR-G8,TR-A-08,TR-SP8,TR-L008,LNK-G001,DIAMETER,Diameter,6,mm,POSITIVE,,,,,ABC,MRI,,Y,ONCOLOGIST,ONCOLOGIST 1,Y,4,FOLLOW-UP,36,4,FOLLOW-UP,2025-03-08,36
CL01,TR,SD-010,1,TR-G10,TR-B-10,TR-SP10,TR-L010,LNK-G001,DIAMETER,Diameter,7,mm,POSITIVE,,,,,ABC,CT SCAN,,Y,,,,3,TREATMENT,36,3,TREATMENT,2025-03-08,36