{"subject_id":"P261-402-USL261-USA_SITE01-0007","study_id":"P261-402-USL261","generated_at":"2026-07-07T06:00:31.838654+00:00","sdtmig_version":"3.4","flags":{"has_serious_ae":true,"has_fatal_ae":false,"has_protocol_deviation":true,"n_protocol_deviations":1,"n_adverse_events":33,"n_concomitant_meds":13,"max_ae_severity":"SEVERE","screen_failure":false,"discontinued_early":true,"discontinuation_reason":"ADVERSE EVENT","death":false,"exposure_days":706},"timeline":[{"dtc":"2024-03-24","dy":"-25","event":"INFORMED CONSENT OBTAINED","domain":"DS","category":"milestone"},{"dtc":"2024-04-18","dy":"1","event":"RANDOMIZED","domain":"DS","category":"milestone"},{"dtc":"2024-04-18","dy":"1","event":"VISIT: ENROLLMENT","domain":"SV","category":"visit"},{"dtc":"2024-04-21","dy":"4","event":"AE: Headache (MODERATE)","domain":"AE","category":"adverse_event"},{"dtc":"2024-04-21","dy":"4","event":"CM START: IBUPROFEN","domain":"CM","category":"concomitant_med"},{"dtc":"2024-07-02","dy":"76","event":"AE: Lacrimation increased (MODERATE)","domain":"AE","category":"adverse_event"},{"dtc":"2024-07-16","dy":"90","event":"VISIT: VISIT 2","domain":"SV","category":"visit"},{"dtc":"2024-07-28","dy":"102","event":"FIRST DOSE: MIDAZOLAM","domain":"EX","category":"exposure"},{"dtc":"2024-07-31","dy":"105","event":"AE: Nasal discomfort (MODERATE)","domain":"AE","category":"adverse_event"},{"dtc":"2024-07-31","dy":"105","event":"CM START: PARACETAMOL","domain":"CM","category":"concomitant_med"},{"dtc":"2024-10-04","dy":"170","event":"AE: Lacrimation increased (MILD)","domain":"AE","category":"adverse_event"},{"dtc":"2024-10-04","dy":"170","event":"CM START: IBUPROFEN","domain":"CM","category":"concomitant_med"},{"dtc":"2024-10-11","dy":"177","event":"VISIT: VISIT 3","domain":"SV","category":"visit"},{"dtc":"2024-10-12","dy":"178","event":"AE: Somnolence (MODERATE)","domain":"AE","category":"adverse_event"},{"dtc":"2024-10-13","dy":"179","event":"AE: Fatigue (MODERATE)","domain":"AE","category":"adverse_event"},{"dtc":"2024-10-26","dy":"192","event":"AE: Somnolence (MILD)","domain":"AE","category":"adverse_event"},{"dtc":"2024-12-03","dy":"230","event":"AE: Dizziness (SEVERE) [SERIOUS]","domain":"AE","category":"adverse_event"},{"dtc":"2024-12-03","dy":"230","event":"CM START: MECLIZINE","domain":"CM","category":"concomitant_med"},{"dtc":"2024-12-05","dy":"232","event":"AE: Rhinorrhoea (MODERATE)","domain":"AE","category":"adverse_event"},{"dtc":"2024-12-05","dy":"232","event":"CM START: IBUPROFEN","domain":"CM","category":"concomitant_med"},{"dtc":"2024-12-30","dy":"257","event":"VISIT: VISIT 4","domain":"SV","category":"visit"},{"dtc":"2025-03-26","dy":"343","event":"AE: Somnolence (SEVERE) [SERIOUS]","domain":"AE","category":"adverse_event"},{"dtc":"2025-04-10","dy":"358","event":"VISIT: VISIT 5","domain":"SV","category":"visit"},{"dtc":"2025-06-01","dy":"410","event":"AE: Dizziness (MODERATE)","domain":"AE","category":"adverse_event"},{"dtc":"2025-06-03","dy":"412","event":"AE: Somnolence (MODERATE)","domain":"AE","category":"adverse_event"},{"dtc":"2025-06-09","dy":"418","event":"AE: Headache (MILD)","domain":"AE","category":"adverse_event"},{"dtc":"2025-06-18","dy":"427","event":"AE: Headache (MODERATE)","domain":"AE","category":"adverse_event"},{"dtc":"2025-06-18","dy":"427","event":"CM START: PARACETAMOL","domain":"CM","category":"concomitant_med"},{"dtc":"2025-06-20","dy":"429","event":"AE: Somnolence (MODERATE)","domain":"AE","category":"adverse_event"},{"dtc":"2025-07-02","dy":"441","event":"AE: Nasal discomfort (MODERATE)","domain":"AE","category":"adverse_event"},{"dtc":"2025-07-16","dy":"455","event":"AE: Lacrimation increased (MILD)","domain":"AE","category":"adverse_event"},{"dtc":"2025-07-16","dy":"455","event":"CM START: IBUPROFEN","domain":"CM","category":"concomitant_med"},{"dtc":"2025-08-15","dy":"485","event":"AE: Rhinorrhoea (SEVERE) [SERIOUS]","domain":"AE","category":"adverse_event"},{"dtc":"2025-08-15","dy":"485","event":"AE: Somnolence (MODERATE)","domain":"AE","category":"adverse_event"},{"dtc":"2025-08-15","dy":"485","event":"CM START: PARACETAMOL","domain":"CM","category":"concomitant_med"},{"dtc":"2025-09-06","dy":"507","event":"AE: Somnolence (MODERATE)","domain":"AE","category":"adverse_event"},{"dtc":"2025-09-11","dy":"512","event":"AE: Rhinorrhoea (MILD)","domain":"AE","category":"adverse_event"},{"dtc":"2025-09-11","dy":"512","event":"CM START: PARACETAMOL","domain":"CM","category":"concomitant_med"},{"dtc":"2025-10-06","dy":"537","event":"VISIT: VISIT 6","domain":"SV","category":"visit"},{"dtc":"2025-11-20","dy":"582","event":"AE: Nasal discomfort (MILD)","domain":"AE","category":"adverse_event"},{"dtc":"2025-12-04","dy":"596","event":"AE: Nasal discomfort (MODERATE)","domain":"AE","category":"adverse_event"},{"dtc":"2025-12-04","dy":"596","event":"CM START: IBUPROFEN","domain":"CM","category":"concomitant_med"},{"dtc":"2025-12-06","dy":"598","event":"AE: Somnolence (MILD)","domain":"AE","category":"adverse_event"},{"dtc":"2025-12-11","dy":"603","event":"AE: Dizziness (MODERATE)","domain":"AE","category":"adverse_event"},{"dtc":"2025-12-11","dy":"603","event":"CM START: MECLIZINE","domain":"CM","category":"concomitant_med"},{"dtc":"2025-12-19","dy":"611","event":"AE: Fatigue (MILD)","domain":"AE","category":"adverse_event"},{"dtc":"2025-12-27","dy":"619","event":"AE: Convulsion (MILD)","domain":"AE","category":"adverse_event"},{"dtc":"2026-01-14","dy":"637","event":"AE: Fatigue (SEVERE) [SERIOUS]","domain":"AE","category":"adverse_event"},{"dtc":"2026-04-03","dy":"716","event":"DEVIATION: VISIT OCCURRED OUTSIDE VISIT WINDOW","domain":"DV","category":"deviation"},{"dtc":"2026-04-03","dy":"716","event":"VISIT: VISIT 7","domain":"SV","category":"visit"},{"dtc":"2026-05-01","dy":"744","event":"AE: Somnolence (MILD)","domain":"AE","category":"adverse_event"},{"dtc":"2026-05-30","dy":"773","event":"AE: Headache (MODERATE)","domain":"AE","category":"adverse_event"},{"dtc":"2026-05-30","dy":"773","event":"CM START: PARACETAMOL","domain":"CM","category":"concomitant_med"},{"dtc":"2026-06-02","dy":"776","event":"AE: Somnolence (MODERATE)","domain":"AE","category":"adverse_event"},{"dtc":"2026-07-04","dy":"808","event":"LAST DOSE: MIDAZOLAM","domain":"EX","category":"exposure"},{"dtc":"2026-08-15","dy":"850","event":"CM START: METFORMIN","domain":"CM","category":"concomitant_med"},{"dtc":"2026-09-15","dy":"881","event":"AE: Nasal discomfort (MODERATE)","domain":"AE","category":"adverse_event"},{"dtc":"2026-10-13","dy":"909","event":"ADVERSE EVENT","domain":"DS","category":"milestone"},{"dtc":"2026-10-13","dy":"909","event":"AE: Somnolence (SEVERE) [SERIOUS]","domain":"AE","category":"adverse_event"}],"section_1_demographics":{"usubjid":"P261-402-USL261-USA_SITE01-0007","subjid":"0007","siteid":"USA_SITE01","age":"56","ageu":"YEARS","sex":"F","race":"BLACK OR AFRICAN AMERICAN","ethnicity":"NOT HISPANIC OR LATINO","country":"USA","arm":"USL261 5 mg intranasal PRN per seizure cluster","armcd":"USL261","actarm":"USL261 5 mg intranasal PRN per seizure cluster","actarmcd":"USL261","randomization_date":null,"informed_consent_date":"2024-03-24","reference_start_date":"2024-04-18","reference_end_date":"2026-10-13","screen_failure":false,"death_flag":null,"death_date":null,"subject_characteristics":[{"testcd":"ALCUSE","test":"Alcohol Use","orres":"NON-DRINKER","stresc":"NON-DRINKER","visit":null,"dtc":"2024-03-24"},{"testcd":"BMI","test":"Body Mass Index","orres":"30.4","stresc":"30.4","visit":null,"dtc":"2024-03-24"},{"testcd":"DURDIS","test":"Duration of Disease","orres":"316 months","stresc":"316","visit":null,"dtc":"2024-03-24"},{"testcd":"TOBPKYR","test":"Tobacco Pack-Years","orres":"20","stresc":"20","visit":null,"dtc":"2024-03-24"},{"testcd":"TOBUSE","test":"Tobacco Use","orres":"FORMER SMOKER","stresc":"FORMER SMOKER","visit":null,"dtc":"2024-03-24"}]},"section_2_medical_history":{"items":[{"seq":"1","term":"HYPERTENSION","decod":"HYPERTENSION","cat":"CARDIOVASCULAR","scat":null,"presp":null,"occur":null,"status":null,"onset_dtc":"1998-03-31","end_dtc":"2005-01-03","visit":null}]},"section_3_inclusion_exclusion":{"criteria":[]},"section_4_trial_participation":{"visits":[{"visitnum":"1.0","visit":"ENROLLMENT","start_dtc":"2024-04-18","end_dtc":"2024-04-18","updes":null},{"visitnum":"2.0","visit":"VISIT 2","start_dtc":"2024-07-16","end_dtc":"2024-07-16","updes":null},{"visitnum":"3.0","visit":"VISIT 3","start_dtc":"2024-10-11","end_dtc":"2024-10-11","updes":null},{"visitnum":"4.0","visit":"VISIT 4","start_dtc":"2024-12-30","end_dtc":"2024-12-30","updes":null},{"visitnum":"5.0","visit":"VISIT 5","start_dtc":"2025-04-10","end_dtc":"2025-04-10","updes":null},{"visitnum":"6.0","visit":"VISIT 6","start_dtc":"2025-10-06","end_dtc":"2025-10-06","updes":null},{"visitnum":"7.0","visit":"VISIT 7","start_dtc":"2026-04-03","end_dtc":"2026-04-03","updes":null}],"epochs":[{"seq":"1","etcd":"SCRN","element":"Enrollment (post P261-401)","start_dtc":"2024-04-04","end_dtc":"2024-04-18","updes":null},{"seq":"2","etcd":"TRT","element":"Treatment (long-term)","start_dtc":"2024-04-18","end_dtc":"2026-10-13","updes":null}],"visit_count":7},"section_5_concomitant_medications":{"medications":[{"seq":"1","trt":"IBUPROFEN","decod":"IBUPROFEN","cat":"CONCOMITANT","dose":"400","doseu":null,"dosef":"PRN","route":"ORAL","indication":"HEADACHE","start_dtc":"2024-04-21","end_dtc":"2024-05-09","ongoing":null,"visit":null},{"seq":"2","trt":"PARACETAMOL","decod":"PARACETAMOL","cat":"CONCOMITANT","dose":"500","doseu":null,"dosef":"PRN","route":"ORAL","indication":"NASAL DISCOMFORT","start_dtc":"2024-07-31","end_dtc":"2024-08-22","ongoing":null,"visit":null},{"seq":"3","trt":"IBUPROFEN","decod":"IBUPROFEN","cat":"CONCOMITANT","dose":"400","doseu":null,"dosef":"PRN","route":"ORAL","indication":"LACRIMATION INCREASED","start_dtc":"2024-10-04","end_dtc":"2024-10-24","ongoing":null,"visit":null},{"seq":"4","trt":"MECLIZINE","decod":"MECLIZINE","cat":"CONCOMITANT","dose":"25","doseu":null,"dosef":"PRN","route":"ORAL","indication":"DIZZINESS","start_dtc":"2024-12-03","end_dtc":"2024-12-20","ongoing":null,"visit":null},{"seq":"5","trt":"IBUPROFEN","decod":"IBUPROFEN","cat":"CONCOMITANT","dose":"400","doseu":null,"dosef":"PRN","route":"ORAL","indication":"RHINORRHOEA","start_dtc":"2024-12-05","end_dtc":"2024-12-23","ongoing":null,"visit":null},{"seq":"6","trt":"PARACETAMOL","decod":"PARACETAMOL","cat":"CONCOMITANT","dose":"500","doseu":null,"dosef":"PRN","route":"ORAL","indication":"HEADACHE","start_dtc":"2025-06-18","end_dtc":"2025-06-23","ongoing":null,"visit":null},{"seq":"7","trt":"IBUPROFEN","decod":"IBUPROFEN","cat":"CONCOMITANT","dose":"400","doseu":null,"dosef":"PRN","route":"ORAL","indication":"LACRIMATION INCREASED","start_dtc":"2025-07-16","end_dtc":"2025-07-20","ongoing":null,"visit":null},{"seq":"8","trt":"PARACETAMOL","decod":"PARACETAMOL","cat":"CONCOMITANT","dose":"500","doseu":null,"dosef":"PRN","route":"ORAL","indication":"RHINORRHOEA","start_dtc":"2025-08-15","end_dtc":"2025-08-29","ongoing":null,"visit":null},{"seq":"9","trt":"PARACETAMOL","decod":"PARACETAMOL","cat":"CONCOMITANT","dose":"500","doseu":null,"dosef":"PRN","route":"ORAL","indication":"RHINORRHOEA","start_dtc":"2025-09-11","end_dtc":"2025-09-25","ongoing":null,"visit":null},{"seq":"10","trt":"IBUPROFEN","decod":"IBUPROFEN","cat":"CONCOMITANT","dose":"400","doseu":null,"dosef":"PRN","route":"ORAL","indication":"NASAL DISCOMFORT","start_dtc":"2025-12-04","end_dtc":"2025-12-22","ongoing":null,"visit":null},{"seq":"11","trt":"MECLIZINE","decod":"MECLIZINE","cat":"CONCOMITANT","dose":"25","doseu":null,"dosef":"PRN","route":"ORAL","indication":"DIZZINESS","start_dtc":"2025-12-11","end_dtc":"2026-01-09","ongoing":null,"visit":null},{"seq":"12","trt":"PARACETAMOL","decod":"PARACETAMOL","cat":"CONCOMITANT","dose":"500","doseu":null,"dosef":"PRN","route":"ORAL","indication":"HEADACHE","start_dtc":"2026-05-30","end_dtc":"2026-06-03","ongoing":null,"visit":null},{"seq":"13","trt":"METFORMIN","decod":"METFORMIN","cat":"CONCOMITANT","dose":null,"doseu":null,"dosef":"BID","route":"ORAL","indication":null,"start_dtc":"2026-08-15","end_dtc":"2026-10-13","ongoing":null,"visit":null}]},"section_6_exposure":{"exposure_as_administered":[{"seq":"1","trt":"MIDAZOLAM","dose":"5.0","doseu":null,"dosef":"PRN","route":"NASAL","lot":null,"start_dtc":"2024-07-28","end_dtc":"2024-07-28","start_dy":"102","end_dy":"102","epoch":"TREATMENT","visit":null},{"seq":"2","trt":"MIDAZOLAM","dose":"5.0","doseu":null,"dosef":"PRN","route":"NASAL","lot":null,"start_dtc":"2024-11-06","end_dtc":"2024-11-06","start_dy":"203","end_dy":"203","epoch":"TREATMENT","visit":null},{"seq":"3","trt":"MIDAZOLAM","dose":"5.0","doseu":null,"dosef":"PRN","route":"NASAL","lot":null,"start_dtc":"2025-02-15","end_dtc":"2025-02-15","start_dy":"304","end_dy":"304","epoch":"TREATMENT","visit":null},{"seq":"4","trt":"MIDAZOLAM","dose":"5.0","doseu":null,"dosef":"PRN","route":"NASAL","lot":null,"start_dtc":"2025-05-27","end_dtc":"2025-05-27","start_dy":"405","end_dy":"405","epoch":"TREATMENT","visit":null},{"seq":"5","trt":"MIDAZOLAM","dose":"5.0","doseu":null,"dosef":"PRN","route":"NASAL","lot":null,"start_dtc":"2025-09-04","end_dtc":"2025-09-04","start_dy":"505","end_dy":"505","epoch":"TREATMENT","visit":null},{"seq":"6","trt":"MIDAZOLAM","dose":"5.0","doseu":null,"dosef":"PRN","route":"NASAL","lot":null,"start_dtc":"2025-12-14","end_dtc":"2025-12-14","start_dy":"606","end_dy":"606","epoch":"TREATMENT","visit":null},{"seq":"7","trt":"MIDAZOLAM","dose":"5.0","doseu":null,"dosef":"PRN","route":"NASAL","lot":null,"start_dtc":"2026-03-25","end_dtc":"2026-03-25","start_dy":"707","end_dy":"707","epoch":"TREATMENT","visit":null},{"seq":"8","trt":"MIDAZOLAM","dose":"5.0","doseu":null,"dosef":"PRN","route":"NASAL","lot":null,"start_dtc":"2026-07-04","end_dtc":"2026-07-04","start_dy":"808","end_dy":"808","epoch":"TREATMENT","visit":null}],"exposure_as_collected":[{"seq":"1","trt":"MIDAZOLAM","dose":"5.0","doseu":null,"dosef":"PRN","route":"NASAL","start_dtc":"2024-07-28","end_dtc":"2024-07-28","visit":null},{"seq":"2","trt":"MIDAZOLAM","dose":"5.0","doseu":null,"dosef":"PRN","route":"NASAL","start_dtc":"2024-11-06","end_dtc":"2024-11-06","visit":null},{"seq":"3","trt":"MIDAZOLAM","dose":"5.0","doseu":null,"dosef":"PRN","route":"NASAL","start_dtc":"2025-02-15","end_dtc":"2025-02-15","visit":null},{"seq":"4","trt":"MIDAZOLAM","dose":"5.0","doseu":null,"dosef":"PRN","route":"NASAL","start_dtc":"2025-05-27","end_dtc":"2025-05-27","visit":null},{"seq":"5","trt":"MIDAZOLAM","dose":"5.0","doseu":null,"dosef":"PRN","route":"NASAL","start_dtc":"2025-09-04","end_dtc":"2025-09-04","visit":null},{"seq":"6","trt":"MIDAZOLAM","dose":"5.0","doseu":null,"dosef":"PRN","route":"NASAL","start_dtc":"2025-12-14","end_dtc":"2025-12-14","visit":null},{"seq":"7","trt":"MIDAZOLAM","dose":"5.0","doseu":null,"dosef":"PRN","route":"NASAL","start_dtc":"2026-03-25","end_dtc":"2026-03-25","visit":null},{"seq":"8","trt":"MIDAZOLAM","dose":"5.0","doseu":null,"dosef":"PRN","route":"NASAL","start_dtc":"2026-07-04","end_dtc":"2026-07-04","visit":null}]},"section_7_adverse_events":{"summary":{"total_aes":33,"serious_aes":5,"fatal_aes":0,"by_severity":{"MODERATE":18,"MILD":10,"SEVERE":5},"by_soc":{"Nervous system disorders":19,"Eye disorders":3,"Respiratory, thoracic and mediastinal disorders":8,"General disorders and administration site conditions":3}},"events":[{"seq":"1","term":"HEADACHE","decod":"Headache","llt":"Headache","hlt":"Headaches NEC","hlgt":"Headaches","soc":"Nervous system disorders","bodsys":"Nervous system disorders","severity":"MODERATE","serious":"N","causality":"NOT RELATED","action_taken":"DOSE NOT CHANGED","outcome":"RECOVERING/RESOLVING","fatal":"N","hospitalization":"N","life_threatening":"N","onset_dtc":"2024-04-21","end_dtc":"2024-04-24","onset_dy":"4","end_dy":"7","duration":null,"epoch":"TREATMENT","visit":null,"supplemental":{"AETRTEM":"Y"}},{"seq":"2","term":"LACRIMATION INCREASED","decod":"Lacrimation increased","llt":"Lacrimation increased","hlt":"Ocular disorders NEC","hlgt":"Ocular disorders NEC","soc":"Eye disorders","bodsys":"Eye disorders","severity":"MODERATE","serious":"N","causality":"UNLIKELY RELATED","action_taken":"DOSE NOT CHANGED","outcome":"RECOVERED/RESOLVED","fatal":"N","hospitalization":"N","life_threatening":"N","onset_dtc":"2024-07-02","end_dtc":"2024-07-19","onset_dy":"76","end_dy":"93","duration":null,"epoch":"TREATMENT","visit":null,"supplemental":{"AETRTEM":"Y"}},{"seq":"3","term":"NASAL DISCOMFORT","decod":"Nasal discomfort","llt":"Nasal discomfort","hlt":"Nasal disorders NEC","hlgt":"Respiratory tract signs and symptoms","soc":"Respiratory, thoracic and mediastinal disorders","bodsys":"Respiratory, thoracic and mediastinal disorders","severity":"MODERATE","serious":"N","causality":"UNLIKELY RELATED","action_taken":"DOSE NOT CHANGED","outcome":"RECOVERING/RESOLVING","fatal":"N","hospitalization":"N","life_threatening":"N","onset_dtc":"2024-07-31","end_dtc":"2024-08-12","onset_dy":"105","end_dy":"117","duration":null,"epoch":"TREATMENT","visit":null,"supplemental":{"AETRTEM":"Y"}},{"seq":"4","term":"LACRIMATION INCREASED","decod":"Lacrimation increased","llt":"Lacrimation increased","hlt":"Ocular disorders NEC","hlgt":"Ocular disorders NEC","soc":"Eye disorders","bodsys":"Eye disorders","severity":"MILD","serious":"N","causality":"NOT RELATED","action_taken":"DOSE NOT CHANGED","outcome":"RECOVERING/RESOLVING","fatal":"N","hospitalization":"N","life_threatening":"N","onset_dtc":"2024-10-04","end_dtc":"2024-10-05","onset_dy":"170","end_dy":"171","duration":null,"epoch":"TREATMENT","visit":null,"supplemental":{"AETRTEM":"Y"}},{"seq":"5","term":"SOMNOLENCE","decod":"Somnolence","llt":"Somnolence","hlt":"Disturbances in consciousness NEC","hlgt":"Neurological signs and symptoms NEC","soc":"Nervous system disorders","bodsys":"Nervous system disorders","severity":"MODERATE","serious":"N","causality":"NOT RELATED","action_taken":"DOSE NOT CHANGED","outcome":"RECOVERED/RESOLVED","fatal":"N","hospitalization":"N","life_threatening":"N","onset_dtc":"2024-10-12","end_dtc":"2024-10-20","onset_dy":"178","end_dy":"186","duration":null,"epoch":"TREATMENT","visit":null,"supplemental":{"AETRTEM":"Y"}},{"seq":"6","term":"FATIGUE","decod":"Fatigue","llt":"Fatigue","hlt":"Asthenic conditions","hlgt":"General system disorders NEC","soc":"General disorders and administration site conditions","bodsys":"General disorders and administration site conditions","severity":"MODERATE","serious":"N","causality":"NOT RELATED","action_taken":"DOSE NOT CHANGED","outcome":"RECOVERED/RESOLVED","fatal":"N","hospitalization":"N","life_threatening":"N","onset_dtc":"2024-10-13","end_dtc":"2024-11-03","onset_dy":"179","end_dy":"200","duration":null,"epoch":"TREATMENT","visit":null,"supplemental":{"AETRTEM":"Y"}},{"seq":"7","term":"SOMNOLENCE","decod":"Somnolence","llt":"Somnolence","hlt":"Disturbances in consciousness NEC","hlgt":"Neurological signs and symptoms NEC","soc":"Nervous system disorders","bodsys":"Nervous system disorders","severity":"MILD","serious":"N","causality":"NOT RELATED","action_taken":"DOSE NOT CHANGED","outcome":"RECOVERED/RESOLVED","fatal":"N","hospitalization":"N","life_threatening":"N","onset_dtc":"2024-10-26","end_dtc":"2024-11-03","onset_dy":"192","end_dy":"200","duration":null,"epoch":"TREATMENT","visit":null,"supplemental":{"AETRTEM":"Y"}},{"seq":"8","term":"DIZZINESS","decod":"Dizziness","llt":"Dizziness","hlt":"Dizziness and vertigo symptoms","hlgt":"Neurological signs and symptoms NEC","soc":"Nervous system disorders","bodsys":"Nervous system disorders","severity":"SEVERE","serious":"Y","causality":"UNLIKELY RELATED","action_taken":"DOSE NOT CHANGED","outcome":"RECOVERED/RESOLVED","fatal":"N","hospitalization":"Y","life_threatening":"N","onset_dtc":"2024-12-03","end_dtc":"2024-12-21","onset_dy":"230","end_dy":"248","duration":null,"epoch":"TREATMENT","visit":null,"supplemental":{"AETRTEM":"Y"}},{"seq":"9","term":"RHINORRHOEA","decod":"Rhinorrhoea","llt":"Rhinorrhoea","hlt":"Nasal disorders NEC","hlgt":"Respiratory tract signs and symptoms","soc":"Respiratory, thoracic and mediastinal disorders","bodsys":"Respiratory, thoracic and mediastinal disorders","severity":"MODERATE","serious":"N","causality":"UNLIKELY RELATED","action_taken":"DOSE NOT CHANGED","outcome":"RECOVERED/RESOLVED","fatal":"N","hospitalization":"N","life_threatening":"N","onset_dtc":"2024-12-05","end_dtc":"2024-12-09","onset_dy":"232","end_dy":"236","duration":null,"epoch":"TREATMENT","visit":null,"supplemental":{"AETRTEM":"Y"}},{"seq":"10","term":"SOMNOLENCE","decod":"Somnolence","llt":"Somnolence","hlt":"Disturbances in consciousness NEC","hlgt":"Neurological signs and symptoms NEC","soc":"Nervous system disorders","bodsys":"Nervous system disorders","severity":"SEVERE","serious":"Y","causality":"NOT RELATED","action_taken":"DOSE NOT CHANGED","outcome":"RECOVERED/RESOLVED","fatal":"N","hospitalization":"N","life_threatening":"N","onset_dtc":"2025-03-26","end_dtc":"2025-05-14","onset_dy":"343","end_dy":"392","duration":null,"epoch":"TREATMENT","visit":null,"supplemental":{"AETRTEM":"Y"}},{"seq":"11","term":"DIZZINESS","decod":"Dizziness","llt":"Dizziness","hlt":"Dizziness and vertigo symptoms","hlgt":"Neurological signs and symptoms NEC","soc":"Nervous system disorders","bodsys":"Nervous system disorders","severity":"MODERATE","serious":"N","causality":"NOT RELATED","action_taken":"DOSE NOT CHANGED","outcome":"RECOVERED/RESOLVED","fatal":"N","hospitalization":"N","life_threatening":"N","onset_dtc":"2025-06-01","end_dtc":"2025-06-18","onset_dy":"410","end_dy":"427","duration":null,"epoch":"TREATMENT","visit":null,"supplemental":{"AETRTEM":"Y"}},{"seq":"12","term":"SOMNOLENCE","decod":"Somnolence","llt":"Somnolence","hlt":"Disturbances in consciousness NEC","hlgt":"Neurological signs and symptoms NEC","soc":"Nervous system disorders","bodsys":"Nervous system disorders","severity":"MODERATE","serious":"N","causality":"POSSIBLY RELATED","action_taken":"DRUG INTERRUPTED","outcome":"RECOVERED/RESOLVED","fatal":"N","hospitalization":"N","life_threatening":"N","onset_dtc":"2025-06-03","end_dtc":"2025-06-08","onset_dy":"412","end_dy":"417","duration":null,"epoch":"TREATMENT","visit":null,"supplemental":{"AETRTEM":"Y"}},{"seq":"13","term":"HEADACHE","decod":"Headache","llt":"Headache","hlt":"Headaches NEC","hlgt":"Headaches","soc":"Nervous system disorders","bodsys":"Nervous system disorders","severity":"MILD","serious":"N","causality":"NOT RELATED","action_taken":"DOSE NOT CHANGED","outcome":"UNKNOWN","fatal":"N","hospitalization":"N","life_threatening":"N","onset_dtc":"2025-06-09","end_dtc":"2025-06-11","onset_dy":"418","end_dy":"420","duration":null,"epoch":"TREATMENT","visit":null,"supplemental":{"AETRTEM":"Y"}},{"seq":"14","term":"HEADACHE","decod":"Headache","llt":"Headache","hlt":"Headaches NEC","hlgt":"Headaches","soc":"Nervous system disorders","bodsys":"Nervous system disorders","severity":"MODERATE","serious":"N","causality":"NOT RELATED","action_taken":"DOSE NOT CHANGED","outcome":"RECOVERED/RESOLVED","fatal":"N","hospitalization":"N","life_threatening":"N","onset_dtc":"2025-06-18","end_dtc":"2025-06-20","onset_dy":"427","end_dy":"429","duration":null,"epoch":"TREATMENT","visit":null,"supplemental":{"AETRTEM":"Y"}},{"seq":"15","term":"SOMNOLENCE","decod":"Somnolence","llt":"Somnolence","hlt":"Disturbances in consciousness NEC","hlgt":"Neurological signs and symptoms NEC","soc":"Nervous system disorders","bodsys":"Nervous system disorders","severity":"MODERATE","serious":"N","causality":"UNLIKELY RELATED","action_taken":"DOSE NOT CHANGED","outcome":"RECOVERING/RESOLVING","fatal":"N","hospitalization":"N","life_threatening":"N","onset_dtc":"2025-06-20","end_dtc":"2025-06-27","onset_dy":"429","end_dy":"436","duration":null,"epoch":"TREATMENT","visit":null,"supplemental":{"AETRTEM":"Y"}},{"seq":"16","term":"NASAL DISCOMFORT","decod":"Nasal discomfort","llt":"Nasal discomfort","hlt":"Nasal disorders NEC","hlgt":"Respiratory tract signs and symptoms","soc":"Respiratory, thoracic and mediastinal disorders","bodsys":"Respiratory, thoracic and mediastinal disorders","severity":"MODERATE","serious":"N","causality":"NOT RELATED","action_taken":"DOSE NOT CHANGED","outcome":"RECOVERING/RESOLVING","fatal":"N","hospitalization":"N","life_threatening":"N","onset_dtc":"2025-07-02","end_dtc":"2025-07-06","onset_dy":"441","end_dy":"445","duration":null,"epoch":"TREATMENT","visit":null,"supplemental":{"AETRTEM":"Y"}},{"seq":"17","term":"LACRIMATION INCREASED","decod":"Lacrimation increased","llt":"Lacrimation increased","hlt":"Ocular disorders NEC","hlgt":"Ocular disorders NEC","soc":"Eye disorders","bodsys":"Eye disorders","severity":"MILD","serious":"N","causality":"NOT RELATED","action_taken":"DOSE NOT CHANGED","outcome":"RECOVERING/RESOLVING","fatal":"N","hospitalization":"N","life_threatening":"N","onset_dtc":"2025-07-16","end_dtc":"2025-07-25","onset_dy":"455","end_dy":"464","duration":null,"epoch":"TREATMENT","visit":null,"supplemental":{"AETRTEM":"Y"}},{"seq":"18","term":"RHINORRHOEA","decod":"Rhinorrhoea","llt":"Rhinorrhoea","hlt":"Nasal disorders NEC","hlgt":"Respiratory tract signs and symptoms","soc":"Respiratory, thoracic and mediastinal disorders","bodsys":"Respiratory, thoracic and mediastinal disorders","severity":"SEVERE","serious":"Y","causality":"NOT RELATED","action_taken":"DOSE NOT CHANGED","outcome":"RECOVERING/RESOLVING","fatal":"N","hospitalization":"Y","life_threatening":"N","onset_dtc":"2025-08-15","end_dtc":"2025-09-02","onset_dy":"485","end_dy":"503","duration":null,"epoch":"TREATMENT","visit":null,"supplemental":{"AETRTEM":"Y"}},{"seq":"19","term":"SOMNOLENCE","decod":"Somnolence","llt":"Somnolence","hlt":"Disturbances in consciousness NEC","hlgt":"Neurological signs and symptoms NEC","soc":"Nervous system disorders","bodsys":"Nervous system disorders","severity":"MODERATE","serious":"N","causality":"NOT RELATED","action_taken":"DOSE NOT CHANGED","outcome":"RECOVERED/RESOLVED","fatal":"N","hospitalization":"N","life_threatening":"N","onset_dtc":"2025-08-15","end_dtc":"2025-09-09","onset_dy":"485","end_dy":"510","duration":null,"epoch":"TREATMENT","visit":null,"supplemental":{"AETRTEM":"Y"}},{"seq":"20","term":"SOMNOLENCE","decod":"Somnolence","llt":"Somnolence","hlt":"Disturbances in consciousness NEC","hlgt":"Neurological signs and symptoms NEC","soc":"Nervous system disorders","bodsys":"Nervous system disorders","severity":"MODERATE","serious":"N","causality":"NOT RELATED","action_taken":"DOSE NOT CHANGED","outcome":"RECOVERED/RESOLVED","fatal":"N","hospitalization":"N","life_threatening":"N","onset_dtc":"2025-09-06","end_dtc":"2025-10-05","onset_dy":"507","end_dy":"536","duration":null,"epoch":"TREATMENT","visit":null,"supplemental":{"AETRTEM":"Y"}},{"seq":"21","term":"RHINORRHOEA","decod":"Rhinorrhoea","llt":"Rhinorrhoea","hlt":"Nasal disorders NEC","hlgt":"Respiratory tract signs and symptoms","soc":"Respiratory, thoracic and mediastinal disorders","bodsys":"Respiratory, thoracic and mediastinal disorders","severity":"MILD","serious":"N","causality":"POSSIBLY RELATED","action_taken":"DOSE NOT CHANGED","outcome":"RECOVERED/RESOLVED","fatal":"N","hospitalization":"N","life_threatening":"N","onset_dtc":"2025-09-11","end_dtc":"2025-09-17","onset_dy":"512","end_dy":"518","duration":null,"epoch":"TREATMENT","visit":null,"supplemental":{"AETRTEM":"Y"}},{"seq":"22","term":"NASAL DISCOMFORT","decod":"Nasal discomfort","llt":"Nasal discomfort","hlt":"Nasal disorders NEC","hlgt":"Respiratory tract signs and symptoms","soc":"Respiratory, thoracic and mediastinal disorders","bodsys":"Respiratory, thoracic and mediastinal disorders","severity":"MILD","serious":"N","causality":"UNLIKELY RELATED","action_taken":"DOSE NOT CHANGED","outcome":"RECOVERED/RESOLVED","fatal":"N","hospitalization":"N","life_threatening":"N","onset_dtc":"2025-11-20","end_dtc":"2025-11-22","onset_dy":"582","end_dy":"584","duration":null,"epoch":"TREATMENT","visit":null,"supplemental":{"AETRTEM":"Y"}},{"seq":"23","term":"NASAL DISCOMFORT","decod":"Nasal discomfort","llt":"Nasal discomfort","hlt":"Nasal disorders NEC","hlgt":"Respiratory tract signs and symptoms","soc":"Respiratory, thoracic and mediastinal disorders","bodsys":"Respiratory, thoracic and mediastinal disorders","severity":"MODERATE","serious":"N","causality":"NOT RELATED","action_taken":"DOSE NOT CHANGED","outcome":"RECOVERED/RESOLVED","fatal":"N","hospitalization":"N","life_threatening":"N","onset_dtc":"2025-12-04","end_dtc":"2025-12-08","onset_dy":"596","end_dy":"600","duration":null,"epoch":"TREATMENT","visit":null,"supplemental":{"AETRTEM":"Y"}},{"seq":"24","term":"SOMNOLENCE","decod":"Somnolence","llt":"Somnolence","hlt":"Disturbances in consciousness NEC","hlgt":"Neurological signs and symptoms NEC","soc":"Nervous system disorders","bodsys":"Nervous system disorders","severity":"MILD","serious":"N","causality":"NOT RELATED","action_taken":"DOSE NOT CHANGED","outcome":"RECOVERED/RESOLVED","fatal":"N","hospitalization":"N","life_threatening":"N","onset_dtc":"2025-12-06","end_dtc":"2025-12-14","onset_dy":"598","end_dy":"606","duration":null,"epoch":"TREATMENT","visit":null,"supplemental":{"AETRTEM":"Y"}},{"seq":"25","term":"DIZZINESS","decod":"Dizziness","llt":"Dizziness","hlt":"Dizziness and vertigo symptoms","hlgt":"Neurological signs and symptoms NEC","soc":"Nervous system disorders","bodsys":"Nervous system disorders","severity":"MODERATE","serious":"N","causality":"NOT RELATED","action_taken":"DOSE NOT CHANGED","outcome":"RECOVERED/RESOLVED WITH SEQUELAE","fatal":"N","hospitalization":"N","life_threatening":"N","onset_dtc":"2025-12-11","end_dtc":"2025-12-22","onset_dy":"603","end_dy":"614","duration":null,"epoch":"TREATMENT","visit":null,"supplemental":{"AETRTEM":"Y"}},{"seq":"26","term":"FATIGUE","decod":"Fatigue","llt":"Fatigue","hlt":"Asthenic conditions","hlgt":"General system disorders NEC","soc":"General disorders and administration site conditions","bodsys":"General disorders and administration site conditions","severity":"MILD","serious":"N","causality":"UNLIKELY RELATED","action_taken":"DOSE NOT CHANGED","outcome":"RECOVERED/RESOLVED","fatal":"N","hospitalization":"N","life_threatening":"N","onset_dtc":"2025-12-19","end_dtc":"2025-12-22","onset_dy":"611","end_dy":"614","duration":null,"epoch":"TREATMENT","visit":null,"supplemental":{"AETRTEM":"Y"}},{"seq":"27","term":"CONVULSION","decod":"Convulsion","llt":"Convulsion","hlt":"Seizures and seizure disorders NEC","hlgt":"Seizures (incl subtypes)","soc":"Nervous system disorders","bodsys":"Nervous system disorders","severity":"MILD","serious":"N","causality":"NOT RELATED","action_taken":"DOSE NOT CHANGED","outcome":"RECOVERED/RESOLVED","fatal":"N","hospitalization":"N","life_threatening":"N","onset_dtc":"2025-12-27","end_dtc":"2026-01-03","onset_dy":"619","end_dy":"626","duration":null,"epoch":"TREATMENT","visit":null,"supplemental":{"AETRTEM":"Y"}},{"seq":"28","term":"FATIGUE","decod":"Fatigue","llt":"Fatigue","hlt":"Asthenic conditions","hlgt":"General system disorders NEC","soc":"General disorders and administration site conditions","bodsys":"General disorders and administration site conditions","severity":"SEVERE","serious":"Y","causality":"NOT RELATED","action_taken":"DOSE NOT CHANGED","outcome":"RECOVERING/RESOLVING","fatal":"N","hospitalization":"N","life_threatening":"N","onset_dtc":"2026-01-14","end_dtc":"2026-02-14","onset_dy":"637","end_dy":"668","duration":null,"epoch":"TREATMENT","visit":null,"supplemental":{"AETRTEM":"Y"}},{"seq":"29","term":"SOMNOLENCE","decod":"Somnolence","llt":"Somnolence","hlt":"Disturbances in consciousness NEC","hlgt":"Neurological signs and symptoms NEC","soc":"Nervous system disorders","bodsys":"Nervous system disorders","severity":"MILD","serious":"N","causality":"NOT RELATED","action_taken":"DOSE NOT CHANGED","outcome":"RECOVERING/RESOLVING","fatal":"N","hospitalization":"N","life_threatening":"N","onset_dtc":"2026-05-01","end_dtc":"2026-05-05","onset_dy":"744","end_dy":"748","duration":null,"epoch":"TREATMENT","visit":null,"supplemental":{"AETRTEM":"Y"}},{"seq":"30","term":"HEADACHE","decod":"Headache","llt":"Headache","hlt":"Headaches NEC","hlgt":"Headaches","soc":"Nervous system disorders","bodsys":"Nervous system disorders","severity":"MODERATE","serious":"N","causality":"NOT RELATED","action_taken":"DOSE NOT CHANGED","outcome":"RECOVERED/RESOLVED","fatal":"N","hospitalization":"N","life_threatening":"N","onset_dtc":"2026-05-30","end_dtc":"2026-06-05","onset_dy":"773","end_dy":"779","duration":null,"epoch":"TREATMENT","visit":null,"supplemental":{"AETRTEM":"Y"}},{"seq":"31","term":"SOMNOLENCE","decod":"Somnolence","llt":"Somnolence","hlt":"Disturbances in consciousness NEC","hlgt":"Neurological signs and symptoms NEC","soc":"Nervous system disorders","bodsys":"Nervous system disorders","severity":"MODERATE","serious":"N","causality":"UNLIKELY RELATED","action_taken":"DOSE NOT CHANGED","outcome":"RECOVERED/RESOLVED","fatal":"N","hospitalization":"N","life_threatening":"N","onset_dtc":"2026-06-02","end_dtc":"2026-06-14","onset_dy":"776","end_dy":"788","duration":null,"epoch":"TREATMENT","visit":null,"supplemental":{"AETRTEM":"Y"}},{"seq":"32","term":"NASAL DISCOMFORT","decod":"Nasal discomfort","llt":"Nasal discomfort","hlt":"Nasal disorders NEC","hlgt":"Respiratory tract signs and symptoms","soc":"Respiratory, thoracic and mediastinal disorders","bodsys":"Respiratory, thoracic and mediastinal disorders","severity":"MODERATE","serious":"N","causality":"NOT RELATED","action_taken":"DOSE NOT CHANGED","outcome":"RECOVERED/RESOLVED","fatal":"N","hospitalization":"N","life_threatening":"N","onset_dtc":"2026-09-15","end_dtc":"2026-09-18","onset_dy":"881","end_dy":"884","duration":null,"epoch":"TREATMENT","visit":null,"supplemental":{"AETRTEM":"Y"}},{"seq":"33","term":"SOMNOLENCE","decod":"Somnolence","llt":"Somnolence","hlt":"Disturbances in consciousness NEC","hlgt":"Neurological signs and symptoms NEC","soc":"Nervous system disorders","bodsys":"Nervous system disorders","severity":"SEVERE","serious":"Y","causality":"NOT RELATED","action_taken":"DOSE NOT CHANGED","outcome":"RECOVERING/RESOLVING","fatal":"N","hospitalization":"Y","life_threatening":"N","onset_dtc":"2026-10-13","end_dtc":"2026-10-13","onset_dy":"909","end_dy":"909","duration":null,"epoch":"TREATMENT","visit":null,"supplemental":{"AETRTEM":"Y"}}]},"section_8_laboratory_results":{"summary":{"total_records":49,"abnormal_count":14,"abnormal_pct":28.6},"shift_summary":[{"testcd":"ALT","baseline_value":33.92,"baseline_nrind":"NORMAL","worst_post_baseline_value":37.05,"worst_post_baseline_nrind":"NORMAL","worst_visit":"VISIT 2"},{"testcd":"AST","baseline_value":13.13,"baseline_nrind":"NORMAL","worst_post_baseline_value":17.68,"worst_post_baseline_nrind":"NORMAL","worst_visit":"VISIT 3"},{"testcd":"CREAT","baseline_value":72.34,"baseline_nrind":"NORMAL","worst_post_baseline_value":76.74,"worst_post_baseline_nrind":"NORMAL","worst_visit":"VISIT 3"},{"testcd":"GLUC","baseline_value":4.18,"baseline_nrind":"NORMAL","worst_post_baseline_value":4.08,"worst_post_baseline_nrind":"NORMAL","worst_visit":"VISIT 7"},{"testcd":"HGB","baseline_value":110.18,"baseline_nrind":"LOW","worst_post_baseline_value":106.55,"worst_post_baseline_nrind":"LOW","worst_visit":"VISIT 7"},{"testcd":"PLAT","baseline_value":87.43,"baseline_nrind":"LOW","worst_post_baseline_value":116.52,"worst_post_baseline_nrind":"LOW","worst_visit":"VISIT 7"},{"testcd":"WBC","baseline_value":6.23,"baseline_nrind":"NORMAL","worst_post_baseline_value":6.85,"worst_post_baseline_nrind":"NORMAL","worst_visit":"VISIT 2"}],"results":[{"seq":"1","testcd":"ALT","test":"Alanine Aminotransferase","cat":"CHEMISTRY","orres":"33.92","orresu":"U/L","stresc":"33.92","stresn":"33.92","stresu":"U/L","stnrlo":"7","stnrhi":"56","nrind":"NORMAL","fast":null,"dtc":"2024-04-18","dy":"1","visit":"ENROLLMENT","visitnum":"1.0","epoch":"SCREENING","spec":null,"method":null},{"seq":"2","testcd":"AST","test":"Aspartate Aminotransferase","cat":"CHEMISTRY","orres":"13.13","orresu":"U/L","stresc":"13.13","stresn":"13.13","stresu":"U/L","stnrlo":"10","stnrhi":"40","nrind":"NORMAL","fast":null,"dtc":"2024-04-18","dy":"1","visit":"ENROLLMENT","visitnum":"1.0","epoch":"SCREENING","spec":null,"method":null},{"seq":"3","testcd":"CREAT","test":"Creatinine","cat":"CHEMISTRY","orres":"72.34","orresu":"umol/L","stresc":"72.34","stresn":"72.34","stresu":"umol/L","stnrlo":"44","stnrhi":"80","nrind":"NORMAL","fast":null,"dtc":"2024-04-18","dy":"1","visit":"ENROLLMENT","visitnum":"1.0","epoch":"SCREENING","spec":null,"method":null},{"seq":"4","testcd":"GLUC","test":"Glucose","cat":"CHEMISTRY","orres":"4.18","orresu":"mmol/L","stresc":"4.18","stresn":"4.18","stresu":"mmol/L","stnrlo":"3.9","stnrhi":"5.6","nrind":"NORMAL","fast":null,"dtc":"2024-04-18","dy":"1","visit":"ENROLLMENT","visitnum":"1.0","epoch":"SCREENING","spec":null,"method":null},{"seq":"5","testcd":"HGB","test":"Hemoglobin","cat":"HEMATOLOGY","orres":"110.18","orresu":"g/L","stresc":"110.18","stresn":"110.18","stresu":"g/L","stnrlo":"120","stnrhi":"155","nrind":"LOW","fast":null,"dtc":"2024-04-18","dy":"1","visit":"ENROLLMENT","visitnum":"1.0","epoch":"SCREENING","spec":null,"method":null},{"seq":"6","testcd":"PLAT","test":"Platelets","cat":"HEMATOLOGY","orres":"87.43","orresu":"10^9/L","stresc":"87.43","stresn":"87.43","stresu":"10^9/L","stnrlo":"150","stnrhi":"400","nrind":"LOW","fast":null,"dtc":"2024-04-18","dy":"1","visit":"ENROLLMENT","visitnum":"1.0","epoch":"SCREENING","spec":null,"method":null},{"seq":"7","testcd":"WBC","test":"Leukocytes","cat":"HEMATOLOGY","orres":"6.23","orresu":"10^9/L","stresc":"6.23","stresn":"6.23","stresu":"10^9/L","stnrlo":"4.0","stnrhi":"11.0","nrind":"NORMAL","fast":null,"dtc":"2024-04-18","dy":"1","visit":"ENROLLMENT","visitnum":"1.0","epoch":"SCREENING","spec":null,"method":null},{"seq":"8","testcd":"ALT","test":"Alanine Aminotransferase","cat":"CHEMISTRY","orres":"37.05","orresu":"U/L","stresc":"37.05","stresn":"37.05","stresu":"U/L","stnrlo":"7","stnrhi":"56","nrind":"NORMAL","fast":null,"dtc":"2024-07-16","dy":"90","visit":"VISIT 2","visitnum":"2.0","epoch":"TREATMENT","spec":null,"method":null},{"seq":"9","testcd":"AST","test":"Aspartate Aminotransferase","cat":"CHEMISTRY","orres":"15.09","orresu":"U/L","stresc":"15.09","stresn":"15.09","stresu":"U/L","stnrlo":"10","stnrhi":"40","nrind":"NORMAL","fast":null,"dtc":"2024-07-16","dy":"90","visit":"VISIT 2","visitnum":"2.0","epoch":"TREATMENT","spec":null,"method":null},{"seq":"10","testcd":"CREAT","test":"Creatinine","cat":"CHEMISTRY","orres":"74.25","orresu":"umol/L","stresc":"74.25","stresn":"74.25","stresu":"umol/L","stnrlo":"44","stnrhi":"80","nrind":"NORMAL","fast":null,"dtc":"2024-07-16","dy":"90","visit":"VISIT 2","visitnum":"2.0","epoch":"TREATMENT","spec":null,"method":null},{"seq":"11","testcd":"GLUC","test":"Glucose","cat":"CHEMISTRY","orres":"3.9","orresu":"mmol/L","stresc":"3.9","stresn":"3.9","stresu":"mmol/L","stnrlo":"3.9","stnrhi":"5.6","nrind":"NORMAL","fast":null,"dtc":"2024-07-16","dy":"90","visit":"VISIT 2","visitnum":"2.0","epoch":"TREATMENT","spec":null,"method":null},{"seq":"12","testcd":"HGB","test":"Hemoglobin","cat":"HEMATOLOGY","orres":"110.83","orresu":"g/L","stresc":"110.83","stresn":"110.83","stresu":"g/L","stnrlo":"120","stnrhi":"155","nrind":"LOW","fast":null,"dtc":"2024-07-16","dy":"90","visit":"VISIT 2","visitnum":"2.0","epoch":"TREATMENT","spec":null,"method":null},{"seq":"13","testcd":"PLAT","test":"Platelets","cat":"HEMATOLOGY","orres":"89.13","orresu":"10^9/L","stresc":"89.13","stresn":"89.13","stresu":"10^9/L","stnrlo":"150","stnrhi":"400","nrind":"LOW","fast":null,"dtc":"2024-07-16","dy":"90","visit":"VISIT 2","visitnum":"2.0","epoch":"TREATMENT","spec":null,"method":null},{"seq":"14","testcd":"WBC","test":"Leukocytes","cat":"HEMATOLOGY","orres":"6.85","orresu":"10^9/L","stresc":"6.85","stresn":"6.85","stresu":"10^9/L","stnrlo":"4.0","stnrhi":"11.0","nrind":"NORMAL","fast":null,"dtc":"2024-07-16","dy":"90","visit":"VISIT 2","visitnum":"2.0","epoch":"TREATMENT","spec":null,"method":null},{"seq":"15","testcd":"ALT","test":"Alanine Aminotransferase","cat":"CHEMISTRY","orres":"34.4","orresu":"U/L","stresc":"34.4","stresn":"34.4","stresu":"U/L","stnrlo":"7","stnrhi":"56","nrind":"NORMAL","fast":null,"dtc":"2024-10-11","dy":"177","visit":"VISIT 3","visitnum":"3.0","epoch":"TREATMENT","spec":null,"method":null},{"seq":"16","testcd":"AST","test":"Aspartate Aminotransferase","cat":"CHEMISTRY","orres":"17.68","orresu":"U/L","stresc":"17.68","stresn":"17.68","stresu":"U/L","stnrlo":"10","stnrhi":"40","nrind":"NORMAL","fast":null,"dtc":"2024-10-11","dy":"177","visit":"VISIT 3","visitnum":"3.0","epoch":"TREATMENT","spec":null,"method":null},{"seq":"17","testcd":"CREAT","test":"Creatinine","cat":"CHEMISTRY","orres":"76.74","orresu":"umol/L","stresc":"76.74","stresn":"76.74","stresu":"umol/L","stnrlo":"44","stnrhi":"80","nrind":"NORMAL","fast":null,"dtc":"2024-10-11","dy":"177","visit":"VISIT 3","visitnum":"3.0","epoch":"TREATMENT","spec":null,"method":null},{"seq":"18","testcd":"GLUC","test":"Glucose","cat":"CHEMISTRY","orres":"4.07","orresu":"mmol/L","stresc":"4.07","stresn":"4.07","stresu":"mmol/L","stnrlo":"3.9","stnrhi":"5.6","nrind":"NORMAL","fast":null,"dtc":"2024-10-11","dy":"177","visit":"VISIT 3","visitnum":"3.0","epoch":"TREATMENT","spec":null,"method":null},{"seq":"19","testcd":"HGB","test":"Hemoglobin","cat":"HEMATOLOGY","orres":"108.51","orresu":"g/L","stresc":"108.51","stresn":"108.51","stresu":"g/L","stnrlo":"120","stnrhi":"155","nrind":"LOW","fast":null,"dtc":"2024-10-11","dy":"177","visit":"VISIT 3","visitnum":"3.0","epoch":"TREATMENT","spec":null,"method":null},{"seq":"20","testcd":"PLAT","test":"Platelets","cat":"HEMATOLOGY","orres":"77.54","orresu":"10^9/L","stresc":"77.54","stresn":"77.54","stresu":"10^9/L","stnrlo":"150","stnrhi":"400","nrind":"LOW","fast":null,"dtc":"2024-10-11","dy":"177","visit":"VISIT 3","visitnum":"3.0","epoch":"TREATMENT","spec":null,"method":null},{"seq":"21","testcd":"WBC","test":"Leukocytes","cat":"HEMATOLOGY","orres":"6.43","orresu":"10^9/L","stresc":"6.43","stresn":"6.43","stresu":"10^9/L","stnrlo":"4.0","stnrhi":"11.0","nrind":"NORMAL","fast":null,"dtc":"2024-10-11","dy":"177","visit":"VISIT 3","visitnum":"3.0","epoch":"TREATMENT","spec":null,"method":null},{"seq":"22","testcd":"ALT","test":"Alanine Aminotransferase","cat":"CHEMISTRY","orres":"34.9","orresu":"U/L","stresc":"34.9","stresn":"34.9","stresu":"U/L","stnrlo":"7","stnrhi":"56","nrind":"NORMAL","fast":null,"dtc":"2024-12-30","dy":"257","visit":"VISIT 4","visitnum":"4.0","epoch":"TREATMENT","spec":null,"method":null},{"seq":"23","testcd":"AST","test":"Aspartate Aminotransferase","cat":"CHEMISTRY","orres":"16.75","orresu":"U/L","stresc":"16.75","stresn":"16.75","stresu":"U/L","stnrlo":"10","stnrhi":"40","nrind":"NORMAL","fast":null,"dtc":"2024-12-30","dy":"257","visit":"VISIT 4","visitnum":"4.0","epoch":"TREATMENT","spec":null,"method":null},{"seq":"24","testcd":"CREAT","test":"Creatinine","cat":"CHEMISTRY","orres":"75.82","orresu":"umol/L","stresc":"75.82","stresn":"75.82","stresu":"umol/L","stnrlo":"44","stnrhi":"80","nrind":"NORMAL","fast":null,"dtc":"2024-12-30","dy":"257","visit":"VISIT 4","visitnum":"4.0","epoch":"TREATMENT","spec":null,"method":null},{"seq":"25","testcd":"GLUC","test":"Glucose","cat":"CHEMISTRY","orres":"3.95","orresu":"mmol/L","stresc":"3.95","stresn":"3.95","stresu":"mmol/L","stnrlo":"3.9","stnrhi":"5.6","nrind":"NORMAL","fast":null,"dtc":"2024-12-30","dy":"257","visit":"VISIT 4","visitnum":"4.0","epoch":"TREATMENT","spec":null,"method":null},{"seq":"26","testcd":"HGB","test":"Hemoglobin","cat":"HEMATOLOGY","orres":"109.26","orresu":"g/L","stresc":"109.26","stresn":"109.26","stresu":"g/L","stnrlo":"120","stnrhi":"155","nrind":"LOW","fast":null,"dtc":"2024-12-30","dy":"257","visit":"VISIT 4","visitnum":"4.0","epoch":"TREATMENT","spec":null,"method":null},{"seq":"27","testcd":"PLAT","test":"Platelets","cat":"HEMATOLOGY","orres":"63.97","orresu":"10^9/L","stresc":"63.97","stresn":"63.97","stresu":"10^9/L","stnrlo":"150","stnrhi":"400","nrind":"LOW","fast":null,"dtc":"2024-12-30","dy":"257","visit":"VISIT 4","visitnum":"4.0","epoch":"TREATMENT","spec":null,"method":null},{"seq":"28","testcd":"WBC","test":"Leukocytes","cat":"HEMATOLOGY","orres":"6.34","orresu":"10^9/L","stresc":"6.34","stresn":"6.34","stresu":"10^9/L","stnrlo":"4.0","stnrhi":"11.0","nrind":"NORMAL","fast":null,"dtc":"2024-12-30","dy":"257","visit":"VISIT 4","visitnum":"4.0","epoch":"TREATMENT","spec":null,"method":null},{"seq":"29","testcd":"ALT","test":"Alanine Aminotransferase","cat":"CHEMISTRY","orres":"31.99","orresu":"U/L","stresc":"31.99","stresn":"31.99","stresu":"U/L","stnrlo":"7","stnrhi":"56","nrind":"NORMAL","fast":null,"dtc":"2025-04-10","dy":"358","visit":"VISIT 5","visitnum":"5.0","epoch":"TREATMENT","spec":null,"method":null},{"seq":"30","testcd":"AST","test":"Aspartate Aminotransferase","cat":"CHEMISTRY","orres":"13.8","orresu":"U/L","stresc":"13.8","stresn":"13.8","stresu":"U/L","stnrlo":"10","stnrhi":"40","nrind":"NORMAL","fast":null,"dtc":"2025-04-10","dy":"358","visit":"VISIT 5","visitnum":"5.0","epoch":"TREATMENT","spec":null,"method":null},{"seq":"31","testcd":"CREAT","test":"Creatinine","cat":"CHEMISTRY","orres":"70.79","orresu":"umol/L","stresc":"70.79","stresn":"70.79","stresu":"umol/L","stnrlo":"44","stnrhi":"80","nrind":"NORMAL","fast":null,"dtc":"2025-04-10","dy":"358","visit":"VISIT 5","visitnum":"5.0","epoch":"TREATMENT","spec":null,"method":null},{"seq":"32","testcd":"GLUC","test":"Glucose","cat":"CHEMISTRY","orres":"3.96","orresu":"mmol/L","stresc":"3.96","stresn":"3.96","stresu":"mmol/L","stnrlo":"3.9","stnrhi":"5.6","nrind":"NORMAL","fast":null,"dtc":"2025-04-10","dy":"358","visit":"VISIT 5","visitnum":"5.0","epoch":"TREATMENT","spec":null,"method":null},{"seq":"33","testcd":"HGB","test":"Hemoglobin","cat":"HEMATOLOGY","orres":"107.2","orresu":"g/L","stresc":"107.2","stresn":"107.2","stresu":"g/L","stnrlo":"120","stnrhi":"155","nrind":"LOW","fast":null,"dtc":"2025-04-10","dy":"358","visit":"VISIT 5","visitnum":"5.0","epoch":"TREATMENT","spec":null,"method":null},{"seq":"34","testcd":"PLAT","test":"Platelets","cat":"HEMATOLOGY","orres":"93.1","orresu":"10^9/L","stresc":"93.1","stresn":"93.1","stresu":"10^9/L","stnrlo":"150","stnrhi":"400","nrind":"LOW","fast":null,"dtc":"2025-04-10","dy":"358","visit":"VISIT 5","visitnum":"5.0","epoch":"TREATMENT","spec":null,"method":null},{"seq":"35","testcd":"WBC","test":"Leukocytes","cat":"HEMATOLOGY","orres":"6.5","orresu":"10^9/L","stresc":"6.5","stresn":"6.5","stresu":"10^9/L","stnrlo":"4.0","stnrhi":"11.0","nrind":"NORMAL","fast":null,"dtc":"2025-04-10","dy":"358","visit":"VISIT 5","visitnum":"5.0","epoch":"TREATMENT","spec":null,"method":null},{"seq":"36","testcd":"ALT","test":"Alanine Aminotransferase","cat":"CHEMISTRY","orres":"31.93","orresu":"U/L","stresc":"31.93","stresn":"31.93","stresu":"U/L","stnrlo":"7","stnrhi":"56","nrind":"NORMAL","fast":null,"dtc":"2025-10-06","dy":"537","visit":"VISIT 6","visitnum":"6.0","epoch":"TREATMENT","spec":null,"method":null},{"seq":"37","testcd":"AST","test":"Aspartate Aminotransferase","cat":"CHEMISTRY","orres":"13.05","orresu":"U/L","stresc":"13.05","stresn":"13.05","stresu":"U/L","stnrlo":"10","stnrhi":"40","nrind":"NORMAL","fast":null,"dtc":"2025-10-06","dy":"537","visit":"VISIT 6","visitnum":"6.0","epoch":"TREATMENT","spec":null,"method":null},{"seq":"38","testcd":"CREAT","test":"Creatinine","cat":"CHEMISTRY","orres":"74.12","orresu":"umol/L","stresc":"74.12","stresn":"74.12","stresu":"umol/L","stnrlo":"44","stnrhi":"80","nrind":"NORMAL","fast":null,"dtc":"2025-10-06","dy":"537","visit":"VISIT 6","visitnum":"6.0","epoch":"TREATMENT","spec":null,"method":null},{"seq":"39","testcd":"GLUC","test":"Glucose","cat":"CHEMISTRY","orres":"4.02","orresu":"mmol/L","stresc":"4.02","stresn":"4.02","stresu":"mmol/L","stnrlo":"3.9","stnrhi":"5.6","nrind":"NORMAL","fast":null,"dtc":"2025-10-06","dy":"537","visit":"VISIT 6","visitnum":"6.0","epoch":"TREATMENT","spec":null,"method":null},{"seq":"40","testcd":"HGB","test":"Hemoglobin","cat":"HEMATOLOGY","orres":"107.98","orresu":"g/L","stresc":"107.98","stresn":"107.98","stresu":"g/L","stnrlo":"120","stnrhi":"155","nrind":"LOW","fast":null,"dtc":"2025-10-06","dy":"537","visit":"VISIT 6","visitnum":"6.0","epoch":"TREATMENT","spec":null,"method":null},{"seq":"41","testcd":"PLAT","test":"Platelets","cat":"HEMATOLOGY","orres":"115.98","orresu":"10^9/L","stresc":"115.98","stresn":"115.98","stresu":"10^9/L","stnrlo":"150","stnrhi":"400","nrind":"LOW","fast":null,"dtc":"2025-10-06","dy":"537","visit":"VISIT 6","visitnum":"6.0","epoch":"TREATMENT","spec":null,"method":null},{"seq":"42","testcd":"WBC","test":"Leukocytes","cat":"HEMATOLOGY","orres":"5.9","orresu":"10^9/L","stresc":"5.9","stresn":"5.9","stresu":"10^9/L","stnrlo":"4.0","stnrhi":"11.0","nrind":"NORMAL","fast":null,"dtc":"2025-10-06","dy":"537","visit":"VISIT 6","visitnum":"6.0","epoch":"TREATMENT","spec":null,"method":null},{"seq":"43","testcd":"ALT","test":"Alanine Aminotransferase","cat":"CHEMISTRY","orres":"32.07","orresu":"U/L","stresc":"32.07","stresn":"32.07","stresu":"U/L","stnrlo":"7","stnrhi":"56","nrind":"NORMAL","fast":null,"dtc":"2026-04-03","dy":"716","visit":"VISIT 7","visitnum":"7.0","epoch":"TREATMENT","spec":null,"method":null},{"seq":"44","testcd":"AST","test":"Aspartate Aminotransferase","cat":"CHEMISTRY","orres":"11.81","orresu":"U/L","stresc":"11.81","stresn":"11.81","stresu":"U/L","stnrlo":"10","stnrhi":"40","nrind":"NORMAL","fast":null,"dtc":"2026-04-03","dy":"716","visit":"VISIT 7","visitnum":"7.0","epoch":"TREATMENT","spec":null,"method":null},{"seq":"45","testcd":"CREAT","test":"Creatinine","cat":"CHEMISTRY","orres":"75.21","orresu":"umol/L","stresc":"75.21","stresn":"75.21","stresu":"umol/L","stnrlo":"44","stnrhi":"80","nrind":"NORMAL","fast":null,"dtc":"2026-04-03","dy":"716","visit":"VISIT 7","visitnum":"7.0","epoch":"TREATMENT","spec":null,"method":null},{"seq":"46","testcd":"GLUC","test":"Glucose","cat":"CHEMISTRY","orres":"4.08","orresu":"mmol/L","stresc":"4.08","stresn":"4.08","stresu":"mmol/L","stnrlo":"3.9","stnrhi":"5.6","nrind":"NORMAL","fast":null,"dtc":"2026-04-03","dy":"716","visit":"VISIT 7","visitnum":"7.0","epoch":"TREATMENT","spec":null,"method":null},{"seq":"47","testcd":"HGB","test":"Hemoglobin","cat":"HEMATOLOGY","orres":"106.55","orresu":"g/L","stresc":"106.55","stresn":"106.55","stresu":"g/L","stnrlo":"120","stnrhi":"155","nrind":"LOW","fast":null,"dtc":"2026-04-03","dy":"716","visit":"VISIT 7","visitnum":"7.0","epoch":"TREATMENT","spec":null,"method":null},{"seq":"48","testcd":"PLAT","test":"Platelets","cat":"HEMATOLOGY","orres":"116.52","orresu":"10^9/L","stresc":"116.52","stresn":"116.52","stresu":"10^9/L","stnrlo":"150","stnrhi":"400","nrind":"LOW","fast":null,"dtc":"2026-04-03","dy":"716","visit":"VISIT 7","visitnum":"7.0","epoch":"TREATMENT","spec":null,"method":null},{"seq":"49","testcd":"WBC","test":"Leukocytes","cat":"HEMATOLOGY","orres":null,"orresu":null,"stresc":null,"stresn":null,"stresu":null,"stnrlo":null,"stnrhi":null,"nrind":null,"fast":null,"dtc":"2026-04-03","dy":"716","visit":"VISIT 7","visitnum":"7.0","epoch":"TREATMENT","spec":null,"method":null}]},"section_9_vital_signs":{"summary":{"total_records":56},"trends":{"BMI":[{"visit":"ENROLLMENT","visitnum":"1.0","dtc":"2024-04-18","value":"30.4","unit":"kg/m2"},{"visit":"VISIT 2","visitnum":"2.0","dtc":"2024-07-16","value":"29.0","unit":"kg/m2"},{"visit":"VISIT 3","visitnum":"3.0","dtc":"2024-10-11","value":"31.5","unit":"kg/m2"},{"visit":"VISIT 4","visitnum":"4.0","dtc":"2024-12-30","value":"30.9","unit":"kg/m2"},{"visit":"VISIT 5","visitnum":"5.0","dtc":"2025-04-10","value":"30.6","unit":"kg/m2"},{"visit":"VISIT 6","visitnum":"6.0","dtc":"2025-10-06","value":"31.8","unit":"kg/m2"},{"visit":"VISIT 7","visitnum":"7.0","dtc":"2026-04-03","value":"31.6","unit":"kg/m2"}],"DIABP":[{"visit":"ENROLLMENT","visitnum":"1.0","dtc":"2024-04-18","value":"93.0","unit":"mmHg"},{"visit":"VISIT 2","visitnum":"2.0","dtc":"2024-07-16","value":"92.4","unit":"mmHg"},{"visit":"VISIT 3","visitnum":"3.0","dtc":"2024-10-11","value":"95.2","unit":"mmHg"},{"visit":"VISIT 4","visitnum":"4.0","dtc":"2024-12-30","value":"94.4","unit":"mmHg"},{"visit":"VISIT 6","visitnum":"6.0","dtc":"2025-10-06","value":"93.4","unit":"mmHg"},{"visit":"VISIT 7","visitnum":"7.0","dtc":"2026-04-03","value":"92.9","unit":"mmHg"}],"HEIGHT":[{"visit":"ENROLLMENT","visitnum":"1.0","dtc":"2024-04-18","value":"153.7","unit":"cm"},{"visit":"VISIT 2","visitnum":"2.0","dtc":"2024-07-16","value":"153.4","unit":"cm"},{"visit":"VISIT 3","visitnum":"3.0","dtc":"2024-10-11","value":"153.1","unit":"cm"},{"visit":"VISIT 4","visitnum":"4.0","dtc":"2024-12-30","value":"152.8","unit":"cm"},{"visit":"VISIT 5","visitnum":"5.0","dtc":"2025-04-10","value":"152.5","unit":"cm"},{"visit":"VISIT 6","visitnum":"6.0","dtc":"2025-10-06","value":"151.5","unit":"cm"},{"visit":"VISIT 7","visitnum":"7.0","dtc":"2026-04-03","value":"151.9","unit":"cm"}],"PULSE":[{"visit":"ENROLLMENT","visitnum":"1.0","dtc":"2024-04-18","value":"64.7","unit":"beats/min"},{"visit":"VISIT 2","visitnum":"2.0","dtc":"2024-07-16","value":"61.7","unit":"beats/min"},{"visit":"VISIT 3","visitnum":"3.0","dtc":"2024-10-11","value":"63.0","unit":"beats/min"},{"visit":"VISIT 4","visitnum":"4.0","dtc":"2024-12-30","value":"69.5","unit":"beats/min"},{"visit":"VISIT 5","visitnum":"5.0","dtc":"2025-04-10","value":"68.4","unit":"beats/min"},{"visit":"VISIT 6","visitnum":"6.0","dtc":"2025-10-06","value":"72.6","unit":"beats/min"},{"visit":"VISIT 7","visitnum":"7.0","dtc":"2026-04-03","value":"75.4","unit":"beats/min"}],"RESP":[{"visit":"ENROLLMENT","visitnum":"1.0","dtc":"2024-04-18","value":"18.6","unit":"breaths/min"},{"visit":"VISIT 2","visitnum":"2.0","dtc":"2024-07-16","value":"18.6","unit":"breaths/min"},{"visit":"VISIT 3","visitnum":"3.0","dtc":"2024-10-11","value":"16.4","unit":"breaths/min"},{"visit":"VISIT 4","visitnum":"4.0","dtc":"2024-12-30","value":"18.3","unit":"breaths/min"},{"visit":"VISIT 5","visitnum":"5.0","dtc":"2025-04-10","value":"19.5","unit":"breaths/min"},{"visit":"VISIT 6","visitnum":"6.0","dtc":"2025-10-06","value":"18.5","unit":"breaths/min"},{"visit":"VISIT 7","visitnum":"7.0","dtc":"2026-04-03","value":"18.5","unit":"breaths/min"}],"SYSBP":[{"visit":"ENROLLMENT","visitnum":"1.0","dtc":"2024-04-18","value":"151.8","unit":"mmHg"},{"visit":"VISIT 2","visitnum":"2.0","dtc":"2024-07-16","value":"150.1","unit":"mmHg"},{"visit":"VISIT 3","visitnum":"3.0","dtc":"2024-10-11","value":"152.4","unit":"mmHg"},{"visit":"VISIT 4","visitnum":"4.0","dtc":"2024-12-30","value":"151.8","unit":"mmHg"},{"visit":"VISIT 5","visitnum":"5.0","dtc":"2025-04-10","value":"149.1","unit":"mmHg"},{"visit":"VISIT 6","visitnum":"6.0","dtc":"2025-10-06","value":"149.4","unit":"mmHg"},{"visit":"VISIT 7","visitnum":"7.0","dtc":"2026-04-03","value":"150.2","unit":"mmHg"}],"TEMP":[{"visit":"ENROLLMENT","visitnum":"1.0","dtc":"2024-04-18","value":"36.0","unit":"C"},{"visit":"VISIT 2","visitnum":"2.0","dtc":"2024-07-16","value":"36.0","unit":"C"},{"visit":"VISIT 3","visitnum":"3.0","dtc":"2024-10-11","value":"36.2","unit":"C"},{"visit":"VISIT 4","visitnum":"4.0","dtc":"2024-12-30","value":"35.9","unit":"C"},{"visit":"VISIT 5","visitnum":"5.0","dtc":"2025-04-10","value":"35.9","unit":"C"},{"visit":"VISIT 6","visitnum":"6.0","dtc":"2025-10-06","value":"35.8","unit":"C"},{"visit":"VISIT 7","visitnum":"7.0","dtc":"2026-04-03","value":"35.8","unit":"C"}],"WEIGHT":[{"visit":"ENROLLMENT","visitnum":"1.0","dtc":"2024-04-18","value":"71.7","unit":"kg"},{"visit":"VISIT 2","visitnum":"2.0","dtc":"2024-07-16","value":"68.2","unit":"kg"},{"visit":"VISIT 3","visitnum":"3.0","dtc":"2024-10-11","value":"73.9","unit":"kg"},{"visit":"VISIT 4","visitnum":"4.0","dtc":"2024-12-30","value":"72.2","unit":"kg"},{"visit":"VISIT 5","visitnum":"5.0","dtc":"2025-04-10","value":"71.2","unit":"kg"},{"visit":"VISIT 6","visitnum":"6.0","dtc":"2025-10-06","value":"73.1","unit":"kg"},{"visit":"VISIT 7","visitnum":"7.0","dtc":"2026-04-03","value":"73.0","unit":"kg"}]},"results":[{"seq":"1","testcd":"BMI","test":"BMI","cat":null,"orres":null,"orresu":null,"stresc":"30.4","stresn":"30.4","stresu":"kg/m2","stnrlo":null,"stnrhi":null,"nrind":null,"pos":null,"loc":null,"dtc":"2024-04-18","dy":"1","visit":"ENROLLMENT","visitnum":"1.0","epoch":"SCREENING"},{"seq":"2","testcd":"DIABP","test":"Diastolic Blood Pressure","cat":null,"orres":"93.0","orresu":"mmHg","stresc":"93.0","stresn":"93.0","stresu":"mmHg","stnrlo":null,"stnrhi":null,"nrind":null,"pos":null,"loc":null,"dtc":"2024-04-18","dy":"1","visit":"ENROLLMENT","visitnum":"1.0","epoch":"SCREENING"},{"seq":"3","testcd":"HEIGHT","test":"Height","cat":null,"orres":"153.7","orresu":"cm","stresc":"153.7","stresn":"153.7","stresu":"cm","stnrlo":null,"stnrhi":null,"nrind":null,"pos":null,"loc":null,"dtc":"2024-04-18","dy":"1","visit":"ENROLLMENT","visitnum":"1.0","epoch":"SCREENING"},{"seq":"4","testcd":"PULSE","test":"Pulse Rate","cat":null,"orres":"64.7","orresu":"beats/min","stresc":"64.7","stresn":"64.7","stresu":"beats/min","stnrlo":null,"stnrhi":null,"nrind":null,"pos":null,"loc":null,"dtc":"2024-04-18","dy":"1","visit":"ENROLLMENT","visitnum":"1.0","epoch":"SCREENING"},{"seq":"5","testcd":"RESP","test":"Respiratory Rate","cat":null,"orres":"18.6","orresu":"breaths/min","stresc":"18.6","stresn":"18.6","stresu":"breaths/min","stnrlo":null,"stnrhi":null,"nrind":null,"pos":null,"loc":null,"dtc":"2024-04-18","dy":"1","visit":"ENROLLMENT","visitnum":"1.0","epoch":"SCREENING"},{"seq":"6","testcd":"SYSBP","test":"Systolic Blood Pressure","cat":null,"orres":"151.8","orresu":"mmHg","stresc":"151.8","stresn":"151.8","stresu":"mmHg","stnrlo":null,"stnrhi":null,"nrind":null,"pos":null,"loc":null,"dtc":"2024-04-18","dy":"1","visit":"ENROLLMENT","visitnum":"1.0","epoch":"SCREENING"},{"seq":"7","testcd":"TEMP","test":"Temperature","cat":null,"orres":"36.0","orresu":"C","stresc":"36.0","stresn":"36.0","stresu":"C","stnrlo":null,"stnrhi":null,"nrind":null,"pos":null,"loc":null,"dtc":"2024-04-18","dy":"1","visit":"ENROLLMENT","visitnum":"1.0","epoch":"SCREENING"},{"seq":"8","testcd":"WEIGHT","test":"Weight","cat":null,"orres":"71.7","orresu":"kg","stresc":"71.7","stresn":"71.7","stresu":"kg","stnrlo":null,"stnrhi":null,"nrind":null,"pos":null,"loc":null,"dtc":"2024-04-18","dy":"1","visit":"ENROLLMENT","visitnum":"1.0","epoch":"SCREENING"},{"seq":"9","testcd":"BMI","test":"BMI","cat":null,"orres":null,"orresu":null,"stresc":"29.0","stresn":"29.0","stresu":"kg/m2","stnrlo":null,"stnrhi":null,"nrind":null,"pos":null,"loc":null,"dtc":"2024-07-16","dy":"90","visit":"VISIT 2","visitnum":"2.0","epoch":"TREATMENT"},{"seq":"10","testcd":"DIABP","test":"Diastolic Blood Pressure","cat":null,"orres":"92.4","orresu":"mmHg","stresc":"92.4","stresn":"92.4","stresu":"mmHg","stnrlo":null,"stnrhi":null,"nrind":null,"pos":null,"loc":null,"dtc":"2024-07-16","dy":"90","visit":"VISIT 2","visitnum":"2.0","epoch":"TREATMENT"},{"seq":"11","testcd":"HEIGHT","test":"Height","cat":null,"orres":"153.4","orresu":"cm","stresc":"153.4","stresn":"153.4","stresu":"cm","stnrlo":null,"stnrhi":null,"nrind":null,"pos":null,"loc":null,"dtc":"2024-07-16","dy":"90","visit":"VISIT 2","visitnum":"2.0","epoch":"TREATMENT"},{"seq":"12","testcd":"PULSE","test":"Pulse Rate","cat":null,"orres":"61.7","orresu":"beats/min","stresc":"61.7","stresn":"61.7","stresu":"beats/min","stnrlo":null,"stnrhi":null,"nrind":null,"pos":null,"loc":null,"dtc":"2024-07-16","dy":"90","visit":"VISIT 2","visitnum":"2.0","epoch":"TREATMENT"},{"seq":"13","testcd":"RESP","test":"Respiratory Rate","cat":null,"orres":"18.6","orresu":"breaths/min","stresc":"18.6","stresn":"18.6","stresu":"breaths/min","stnrlo":null,"stnrhi":null,"nrind":null,"pos":null,"loc":null,"dtc":"2024-07-16","dy":"90","visit":"VISIT 2","visitnum":"2.0","epoch":"TREATMENT"},{"seq":"14","testcd":"SYSBP","test":"Systolic Blood Pressure","cat":null,"orres":"150.1","orresu":"mmHg","stresc":"150.1","stresn":"150.1","stresu":"mmHg","stnrlo":null,"stnrhi":null,"nrind":null,"pos":null,"loc":null,"dtc":"2024-07-16","dy":"90","visit":"VISIT 2","visitnum":"2.0","epoch":"TREATMENT"},{"seq":"15","testcd":"TEMP","test":"Temperature","cat":null,"orres":"36.0","orresu":"C","stresc":"36.0","stresn":"36.0","stresu":"C","stnrlo":null,"stnrhi":null,"nrind":null,"pos":null,"loc":null,"dtc":"2024-07-16","dy":"90","visit":"VISIT 2","visitnum":"2.0","epoch":"TREATMENT"},{"seq":"16","testcd":"WEIGHT","test":"Weight","cat":null,"orres":"68.2","orresu":"kg","stresc":"68.2","stresn":"68.2","stresu":"kg","stnrlo":null,"stnrhi":null,"nrind":null,"pos":null,"loc":null,"dtc":"2024-07-16","dy":"90","visit":"VISIT 2","visitnum":"2.0","epoch":"TREATMENT"},{"seq":"17","testcd":"BMI","test":"BMI","cat":null,"orres":null,"orresu":null,"stresc":"31.5","stresn":"31.5","stresu":"kg/m2","stnrlo":null,"stnrhi":null,"nrind":null,"pos":null,"loc":null,"dtc":"2024-10-11","dy":"177","visit":"VISIT 3","visitnum":"3.0","epoch":"TREATMENT"},{"seq":"18","testcd":"DIABP","test":"Diastolic Blood Pressure","cat":null,"orres":"95.2","orresu":"mmHg","stresc":"95.2","stresn":"95.2","stresu":"mmHg","stnrlo":null,"stnrhi":null,"nrind":null,"pos":null,"loc":null,"dtc":"2024-10-11","dy":"177","visit":"VISIT 3","visitnum":"3.0","epoch":"TREATMENT"},{"seq":"19","testcd":"HEIGHT","test":"Height","cat":null,"orres":"153.1","orresu":"cm","stresc":"153.1","stresn":"153.1","stresu":"cm","stnrlo":null,"stnrhi":null,"nrind":null,"pos":null,"loc":null,"dtc":"2024-10-11","dy":"177","visit":"VISIT 3","visitnum":"3.0","epoch":"TREATMENT"},{"seq":"20","testcd":"PULSE","test":"Pulse Rate","cat":null,"orres":"63.0","orresu":"beats/min","stresc":"63.0","stresn":"63.0","stresu":"beats/min","stnrlo":null,"stnrhi":null,"nrind":null,"pos":null,"loc":null,"dtc":"2024-10-11","dy":"177","visit":"VISIT 3","visitnum":"3.0","epoch":"TREATMENT"},{"seq":"21","testcd":"RESP","test":"Respiratory Rate","cat":null,"orres":"16.4","orresu":"breaths/min","stresc":"16.4","stresn":"16.4","stresu":"breaths/min","stnrlo":null,"stnrhi":null,"nrind":null,"pos":null,"loc":null,"dtc":"2024-10-11","dy":"177","visit":"VISIT 3","visitnum":"3.0","epoch":"TREATMENT"},{"seq":"22","testcd":"SYSBP","test":"Systolic Blood Pressure","cat":null,"orres":"152.4","orresu":"mmHg","stresc":"152.4","stresn":"152.4","stresu":"mmHg","stnrlo":null,"stnrhi":null,"nrind":null,"pos":null,"loc":null,"dtc":"2024-10-11","dy":"177","visit":"VISIT 3","visitnum":"3.0","epoch":"TREATMENT"},{"seq":"23","testcd":"TEMP","test":"Temperature","cat":null,"orres":"36.2","orresu":"C","stresc":"36.2","stresn":"36.2","stresu":"C","stnrlo":null,"stnrhi":null,"nrind":null,"pos":null,"loc":null,"dtc":"2024-10-11","dy":"177","visit":"VISIT 3","visitnum":"3.0","epoch":"TREATMENT"},{"seq":"24","testcd":"WEIGHT","test":"Weight","cat":null,"orres":"73.9","orresu":"kg","stresc":"73.9","stresn":"73.9","stresu":"kg","stnrlo":null,"stnrhi":null,"nrind":null,"pos":null,"loc":null,"dtc":"2024-10-11","dy":"177","visit":"VISIT 3","visitnum":"3.0","epoch":"TREATMENT"},{"seq":"25","testcd":"BMI","test":"BMI","cat":null,"orres":null,"orresu":null,"stresc":"30.9","stresn":"30.9","stresu":"kg/m2","stnrlo":null,"stnrhi":null,"nrind":null,"pos":null,"loc":null,"dtc":"2024-12-30","dy":"257","visit":"VISIT 4","visitnum":"4.0","epoch":"TREATMENT"},{"seq":"26","testcd":"DIABP","test":"Diastolic Blood Pressure","cat":null,"orres":"94.4","orresu":"mmHg","stresc":"94.4","stresn":"94.4","stresu":"mmHg","stnrlo":null,"stnrhi":null,"nrind":null,"pos":null,"loc":null,"dtc":"2024-12-30","dy":"257","visit":"VISIT 4","visitnum":"4.0","epoch":"TREATMENT"},{"seq":"27","testcd":"HEIGHT","test":"Height","cat":null,"orres":"152.8","orresu":"cm","stresc":"152.8","stresn":"152.8","stresu":"cm","stnrlo":null,"stnrhi":null,"nrind":null,"pos":null,"loc":null,"dtc":"2024-12-30","dy":"257","visit":"VISIT 4","visitnum":"4.0","epoch":"TREATMENT"},{"seq":"28","testcd":"PULSE","test":"Pulse Rate","cat":null,"orres":"69.5","orresu":"beats/min","stresc":"69.5","stresn":"69.5","stresu":"beats/min","stnrlo":null,"stnrhi":null,"nrind":null,"pos":null,"loc":null,"dtc":"2024-12-30","dy":"257","visit":"VISIT 4","visitnum":"4.0","epoch":"TREATMENT"},{"seq":"29","testcd":"RESP","test":"Respiratory Rate","cat":null,"orres":"18.3","orresu":"breaths/min","stresc":"18.3","stresn":"18.3","stresu":"breaths/min","stnrlo":null,"stnrhi":null,"nrind":null,"pos":null,"loc":null,"dtc":"2024-12-30","dy":"257","visit":"VISIT 4","visitnum":"4.0","epoch":"TREATMENT"},{"seq":"30","testcd":"SYSBP","test":"Systolic Blood Pressure","cat":null,"orres":"151.8","orresu":"mmHg","stresc":"151.8","stresn":"151.8","stresu":"mmHg","stnrlo":null,"stnrhi":null,"nrind":null,"pos":null,"loc":null,"dtc":"2024-12-30","dy":"257","visit":"VISIT 4","visitnum":"4.0","epoch":"TREATMENT"},{"seq":"31","testcd":"TEMP","test":"Temperature","cat":null,"orres":"35.9","orresu":"C","stresc":"35.9","stresn":"35.9","stresu":"C","stnrlo":null,"stnrhi":null,"nrind":null,"pos":null,"loc":null,"dtc":"2024-12-30","dy":"257","visit":"VISIT 4","visitnum":"4.0","epoch":"TREATMENT"},{"seq":"32","testcd":"WEIGHT","test":"Weight","cat":null,"orres":"72.2","orresu":"kg","stresc":"72.2","stresn":"72.2","stresu":"kg","stnrlo":null,"stnrhi":null,"nrind":null,"pos":null,"loc":null,"dtc":"2024-12-30","dy":"257","visit":"VISIT 4","visitnum":"4.0","epoch":"TREATMENT"},{"seq":"33","testcd":"BMI","test":"BMI","cat":null,"orres":null,"orresu":null,"stresc":"30.6","stresn":"30.6","stresu":"kg/m2","stnrlo":null,"stnrhi":null,"nrind":null,"pos":null,"loc":null,"dtc":"2025-04-10","dy":"358","visit":"VISIT 5","visitnum":"5.0","epoch":"TREATMENT"},{"seq":"34","testcd":"DIABP","test":"Diastolic Blood Pressure","cat":null,"orres":null,"orresu":null,"stresc":null,"stresn":null,"stresu":null,"stnrlo":null,"stnrhi":null,"nrind":null,"pos":null,"loc":null,"dtc":"2025-04-10","dy":"358","visit":"VISIT 5","visitnum":"5.0","epoch":"TREATMENT"},{"seq":"35","testcd":"HEIGHT","test":"Height","cat":null,"orres":"152.5","orresu":"cm","stresc":"152.5","stresn":"152.5","stresu":"cm","stnrlo":null,"stnrhi":null,"nrind":null,"pos":null,"loc":null,"dtc":"2025-04-10","dy":"358","visit":"VISIT 5","visitnum":"5.0","epoch":"TREATMENT"},{"seq":"36","testcd":"PULSE","test":"Pulse Rate","cat":null,"orres":"68.4","orresu":"beats/min","stresc":"68.4","stresn":"68.4","stresu":"beats/min","stnrlo":null,"stnrhi":null,"nrind":null,"pos":null,"loc":null,"dtc":"2025-04-10","dy":"358","visit":"VISIT 5","visitnum":"5.0","epoch":"TREATMENT"},{"seq":"37","testcd":"RESP","test":"Respiratory Rate","cat":null,"orres":"19.5","orresu":"breaths/min","stresc":"19.5","stresn":"19.5","stresu":"breaths/min","stnrlo":null,"stnrhi":null,"nrind":null,"pos":null,"loc":null,"dtc":"2025-04-10","dy":"358","visit":"VISIT 5","visitnum":"5.0","epoch":"TREATMENT"},{"seq":"38","testcd":"SYSBP","test":"Systolic Blood Pressure","cat":null,"orres":"149.1","orresu":"mmHg","stresc":"149.1","stresn":"149.1","stresu":"mmHg","stnrlo":null,"stnrhi":null,"nrind":null,"pos":null,"loc":null,"dtc":"2025-04-10","dy":"358","visit":"VISIT 5","visitnum":"5.0","epoch":"TREATMENT"},{"seq":"39","testcd":"TEMP","test":"Temperature","cat":null,"orres":"35.9","orresu":"C","stresc":"35.9","stresn":"35.9","stresu":"C","stnrlo":null,"stnrhi":null,"nrind":null,"pos":null,"loc":null,"dtc":"2025-04-10","dy":"358","visit":"VISIT 5","visitnum":"5.0","epoch":"TREATMENT"},{"seq":"40","testcd":"WEIGHT","test":"Weight","cat":null,"orres":"71.2","orresu":"kg","stresc":"71.2","stresn":"71.2","stresu":"kg","stnrlo":null,"stnrhi":null,"nrind":null,"pos":null,"loc":null,"dtc":"2025-04-10","dy":"358","visit":"VISIT 5","visitnum":"5.0","epoch":"TREATMENT"},{"seq":"41","testcd":"BMI","test":"BMI","cat":null,"orres":null,"orresu":null,"stresc":"31.8","stresn":"31.8","stresu":"kg/m2","stnrlo":null,"stnrhi":null,"nrind":null,"pos":null,"loc":null,"dtc":"2025-10-06","dy":"537","visit":"VISIT 6","visitnum":"6.0","epoch":"TREATMENT"},{"seq":"42","testcd":"DIABP","test":"Diastolic Blood Pressure","cat":null,"orres":"93.4","orresu":"mmHg","stresc":"93.4","stresn":"93.4","stresu":"mmHg","stnrlo":null,"stnrhi":null,"nrind":null,"pos":null,"loc":null,"dtc":"2025-10-06","dy":"537","visit":"VISIT 6","visitnum":"6.0","epoch":"TREATMENT"},{"seq":"43","testcd":"HEIGHT","test":"Height","cat":null,"orres":"151.5","orresu":"cm","stresc":"151.5","stresn":"151.5","stresu":"cm","stnrlo":null,"stnrhi":null,"nrind":null,"pos":null,"loc":null,"dtc":"2025-10-06","dy":"537","visit":"VISIT 6","visitnum":"6.0","epoch":"TREATMENT"},{"seq":"44","testcd":"PULSE","test":"Pulse Rate","cat":null,"orres":"72.6","orresu":"beats/min","stresc":"72.6","stresn":"72.6","stresu":"beats/min","stnrlo":null,"stnrhi":null,"nrind":null,"pos":null,"loc":null,"dtc":"2025-10-06","dy":"537","visit":"VISIT 6","visitnum":"6.0","epoch":"TREATMENT"},{"seq":"45","testcd":"RESP","test":"Respiratory Rate","cat":null,"orres":"18.5","orresu":"breaths/min","stresc":"18.5","stresn":"18.5","stresu":"breaths/min","stnrlo":null,"stnrhi":null,"nrind":null,"pos":null,"loc":null,"dtc":"2025-10-06","dy":"537","visit":"VISIT 6","visitnum":"6.0","epoch":"TREATMENT"},{"seq":"46","testcd":"SYSBP","test":"Systolic Blood Pressure","cat":null,"orres":"149.4","orresu":"mmHg","stresc":"149.4","stresn":"149.4","stresu":"mmHg","stnrlo":null,"stnrhi":null,"nrind":null,"pos":null,"loc":null,"dtc":"2025-10-06","dy":"537","visit":"VISIT 6","visitnum":"6.0","epoch":"TREATMENT"},{"seq":"47","testcd":"TEMP","test":"Temperature","cat":null,"orres":"35.8","orresu":"C","stresc":"35.8","stresn":"35.8","stresu":"C","stnrlo":null,"stnrhi":null,"nrind":null,"pos":null,"loc":null,"dtc":"2025-10-06","dy":"537","visit":"VISIT 6","visitnum":"6.0","epoch":"TREATMENT"},{"seq":"48","testcd":"WEIGHT","test":"Weight","cat":null,"orres":"73.1","orresu":"kg","stresc":"73.1","stresn":"73.1","stresu":"kg","stnrlo":null,"stnrhi":null,"nrind":null,"pos":null,"loc":null,"dtc":"2025-10-06","dy":"537","visit":"VISIT 6","visitnum":"6.0","epoch":"TREATMENT"},{"seq":"49","testcd":"BMI","test":"BMI","cat":null,"orres":null,"orresu":null,"stresc":"31.6","stresn":"31.6","stresu":"kg/m2","stnrlo":null,"stnrhi":null,"nrind":null,"pos":null,"loc":null,"dtc":"2026-04-03","dy":"716","visit":"VISIT 7","visitnum":"7.0","epoch":"TREATMENT"},{"seq":"50","testcd":"DIABP","test":"Diastolic Blood Pressure","cat":null,"orres":"92.9","orresu":"mmHg","stresc":"92.9","stresn":"92.9","stresu":"mmHg","stnrlo":null,"stnrhi":null,"nrind":null,"pos":null,"loc":null,"dtc":"2026-04-03","dy":"716","visit":"VISIT 7","visitnum":"7.0","epoch":"TREATMENT"},{"seq":"51","testcd":"HEIGHT","test":"Height","cat":null,"orres":"151.9","orresu":"cm","stresc":"151.9","stresn":"151.9","stresu":"cm","stnrlo":null,"stnrhi":null,"nrind":null,"pos":null,"loc":null,"dtc":"2026-04-03","dy":"716","visit":"VISIT 7","visitnum":"7.0","epoch":"TREATMENT"},{"seq":"52","testcd":"PULSE","test":"Pulse Rate","cat":null,"orres":"75.4","orresu":"beats/min","stresc":"75.4","stresn":"75.4","stresu":"beats/min","stnrlo":null,"stnrhi":null,"nrind":null,"pos":null,"loc":null,"dtc":"2026-04-03","dy":"716","visit":"VISIT 7","visitnum":"7.0","epoch":"TREATMENT"},{"seq":"53","testcd":"RESP","test":"Respiratory Rate","cat":null,"orres":"18.5","orresu":"breaths/min","stresc":"18.5","stresn":"18.5","stresu":"breaths/min","stnrlo":null,"stnrhi":null,"nrind":null,"pos":null,"loc":null,"dtc":"2026-04-03","dy":"716","visit":"VISIT 7","visitnum":"7.0","epoch":"TREATMENT"},{"seq":"54","testcd":"SYSBP","test":"Systolic Blood Pressure","cat":null,"orres":"150.2","orresu":"mmHg","stresc":"150.2","stresn":"150.2","stresu":"mmHg","stnrlo":null,"stnrhi":null,"nrind":null,"pos":null,"loc":null,"dtc":"2026-04-03","dy":"716","visit":"VISIT 7","visitnum":"7.0","epoch":"TREATMENT"},{"seq":"55","testcd":"TEMP","test":"Temperature","cat":null,"orres":"35.8","orresu":"C","stresc":"35.8","stresn":"35.8","stresu":"C","stnrlo":null,"stnrhi":null,"nrind":null,"pos":null,"loc":null,"dtc":"2026-04-03","dy":"716","visit":"VISIT 7","visitnum":"7.0","epoch":"TREATMENT"},{"seq":"56","testcd":"WEIGHT","test":"Weight","cat":null,"orres":"73.0","orresu":"kg","stresc":"73.0","stresn":"73.0","stresu":"kg","stnrlo":null,"stnrhi":null,"nrind":null,"pos":null,"loc":null,"dtc":"2026-04-03","dy":"716","visit":"VISIT 7","visitnum":"7.0","epoch":"TREATMENT"}]},"section_10_questionnaires_and_scores":{"questionnaires":[],"findings_about":[]},"section_11_protocol_deviations":{"deviations":[{"seq":"1","term":"Visit VISIT 7 occurred 14 days early (Day 716 vs planned Day 730)","decod":"VISIT OCCURRED OUTSIDE VISIT WINDOW","cat":"MINOR","scat":"VISIT WINDOW","start_dtc":"2026-04-03","end_dtc":null,"visit":null}],"total":1},"section_12_disposition":{"completion_status":"INFORMED CONSENT OBTAINED","disposition_records":[{"seq":"1","term":"INFORMED CONSENT OBTAINED","decod":"INFORMED CONSENT OBTAINED","cat":"PROTOCOL MILESTONE","scat":null,"dtc":"2024-03-24","dy":null,"visit":null,"epoch":"SCREENING"},{"seq":"2","term":"RANDOMIZED","decod":"RANDOMIZED","cat":"PROTOCOL MILESTONE","scat":null,"dtc":"2024-04-18","dy":null,"visit":null,"epoch":"TREATMENT"},{"seq":"3","term":"ADVERSE EVENT","decod":"ADVERSE EVENT","cat":"DISPOSITION EVENT","scat":null,"dtc":"2026-10-13","dy":null,"visit":null,"epoch":"TREATMENT"}],"death":null},"section_13_hospitalizations":{"items":[{"seq":"1","term":"Dizziness","decod":"Dizziness","cat":"HOSPITALIZATION","start_dtc":"2024-12-03","end_dtc":"2024-12-10","epoch":"TREATMENT"},{"seq":"2","term":"Rhinorrhoea","decod":"Rhinorrhoea","cat":"HOSPITALIZATION","start_dtc":"2025-08-15","end_dtc":"2025-08-28","epoch":"TREATMENT"},{"seq":"3","term":"Somnolence","decod":"Somnolence","cat":"HOSPITALIZATION","start_dtc":"2026-10-13","end_dtc":"2026-10-13","epoch":"TREATMENT"}],"total":3},"section_14_substance_use":{"items":[{"seq":"1","substance":"BEER/WINE/SPIRITS","decod":"ETHANOL","cat":"ALCOHOL","scat":null,"usage":"N","dose":null,"dosu":null,"freq":null,"start_dtc":null,"end_dtc":null},{"seq":"2","substance":"COFFEE","decod":"COFFEE","cat":"CAFFEINE","scat":null,"usage":"Y","dose":"4.0","dosu":"CUPS/DAY","freq":"QD","start_dtc":"2008-03-28","end_dtc":null},{"seq":"3","substance":"CIGARETTES","decod":"CIGARETTES","cat":"TOBACCO","scat":null,"usage":"Y","dose":null,"dosu":null,"freq":null,"start_dtc":"2011-03-28","end_dtc":"2017-03-26"}],"total":3},"section_15_subject_status":{"items":[{"seq":"1","testcd":"SURVSTAT","test":"Survival Status","orres":"ALIVE","stresc":"ALIVE","dtc":"2026-10-13","visit":null,"epoch":"FOLLOW-UP"}],"total":1}}