{"subject_id":"P261-402-USL261-USA_SITE06-0005","study_id":"P261-402-USL261","generated_at":"2026-07-07T06:00:32.485437+00:00","sdtmig_version":"3.4","flags":{"has_serious_ae":true,"has_fatal_ae":false,"has_protocol_deviation":true,"n_protocol_deviations":4,"n_adverse_events":20,"n_concomitant_meds":12,"max_ae_severity":"SEVERE","screen_failure":false,"discontinued_early":true,"discontinuation_reason":"ADVERSE EVENT","death":false,"exposure_days":222},"timeline":[{"dtc":"2024-03-24","dy":"-14","event":"INFORMED CONSENT OBTAINED","domain":"DS","category":"milestone"},{"dtc":"2024-04-07","dy":"1","event":"RANDOMIZED","domain":"DS","category":"milestone"},{"dtc":"2024-04-07","dy":"1","event":"VISIT: ENROLLMENT","domain":"SV","category":"visit"},{"dtc":"2024-04-08","dy":"2","event":"AE: Convulsion (SEVERE) [SERIOUS]","domain":"AE","category":"adverse_event"},{"dtc":"2024-04-08","dy":"2","event":"CM START: PARACETAMOL","domain":"CM","category":"concomitant_med"},{"dtc":"2024-04-09","dy":"3","event":"AE: Lacrimation increased (MILD)","domain":"AE","category":"adverse_event"},{"dtc":"2024-04-29","dy":"23","event":"AE: Headache (SEVERE) [SERIOUS]","domain":"AE","category":"adverse_event"},{"dtc":"2024-04-29","dy":"23","event":"AE: Lacrimation increased (MILD)","domain":"AE","category":"adverse_event"},{"dtc":"2024-04-29","dy":"23","event":"CM START: PARACETAMOL","domain":"CM","category":"concomitant_med"},{"dtc":"2024-05-03","dy":"27","event":"AE: Nausea (MILD)","domain":"AE","category":"adverse_event"},{"dtc":"2024-05-03","dy":"27","event":"CM START: METOCLOPRAMIDE","domain":"CM","category":"concomitant_med"},{"dtc":"2024-05-14","dy":"38","event":"FIRST DOSE: MIDAZOLAM","domain":"EX","category":"exposure"},{"dtc":"2024-06-23","dy":"78","event":"AE: Headache (MILD)","domain":"AE","category":"adverse_event"},{"dtc":"2024-06-23","dy":"78","event":"CM START: PARACETAMOL","domain":"CM","category":"concomitant_med"},{"dtc":"2024-06-30","dy":"85","event":"VISIT: VISIT 2","domain":"SV","category":"visit"},{"dtc":"2024-07-27","dy":"112","event":"AE: Nasal discomfort (SEVERE) [SERIOUS]","domain":"AE","category":"adverse_event"},{"dtc":"2024-07-27","dy":"112","event":"CM START: IBUPROFEN","domain":"CM","category":"concomitant_med"},{"dtc":"2024-08-18","dy":"134","event":"AE: Headache (SEVERE) [SERIOUS]","domain":"AE","category":"adverse_event"},{"dtc":"2024-08-18","dy":"134","event":"CM START: IBUPROFEN","domain":"CM","category":"concomitant_med"},{"dtc":"2024-09-25","dy":"172","event":"DEVIATION: VISIT OCCURRED OUTSIDE VISIT WINDOW","domain":"DV","category":"deviation"},{"dtc":"2024-09-25","dy":"172","event":"VISIT: VISIT 3","domain":"SV","category":"visit"},{"dtc":"2024-10-09","dy":"186","event":"AE: Somnolence (MILD)","domain":"AE","category":"adverse_event"},{"dtc":"2024-10-16","dy":"193","event":"AE: Somnolence (MODERATE)","domain":"AE","category":"adverse_event"},{"dtc":"2024-10-20","dy":"197","event":"AE: Rhinorrhoea (MODERATE)","domain":"AE","category":"adverse_event"},{"dtc":"2024-10-20","dy":"197","event":"CM START: PARACETAMOL","domain":"CM","category":"concomitant_med"},{"dtc":"2024-10-31","dy":"208","event":"AE: Dysgeusia (MODERATE)","domain":"AE","category":"adverse_event"},{"dtc":"2024-11-15","dy":"223","event":"DEVIATION: MISSED DOSE","domain":"DV","category":"deviation"},{"dtc":"2024-12-04","dy":"242","event":"AE: Headache (SEVERE) [SERIOUS]","domain":"AE","category":"adverse_event"},{"dtc":"2024-12-04","dy":"242","event":"CM START: IBUPROFEN","domain":"CM","category":"concomitant_med"},{"dtc":"2024-12-22","dy":"260","event":"LAST DOSE: MIDAZOLAM","domain":"EX","category":"exposure"},{"dtc":"2024-12-23","dy":"261","event":"AE: Nausea (MILD)","domain":"AE","category":"adverse_event"},{"dtc":"2024-12-23","dy":"261","event":"CM START: METFORMIN","domain":"CM","category":"concomitant_med"},{"dtc":"2024-12-31","dy":"269","event":"AE: Rhinorrhoea (SEVERE) [SERIOUS]","domain":"AE","category":"adverse_event"},{"dtc":"2024-12-31","dy":"269","event":"CM START: IBUPROFEN","domain":"CM","category":"concomitant_med"},{"dtc":"2025-01-03","dy":"272","event":"DEVIATION: VISIT OCCURRED OUTSIDE VISIT WINDOW","domain":"DV","category":"deviation"},{"dtc":"2025-01-03","dy":"272","event":"VISIT: VISIT 4","domain":"SV","category":"visit"},{"dtc":"2025-01-20","dy":"289","event":"AE: Headache (MILD)","domain":"AE","category":"adverse_event"},{"dtc":"2025-01-20","dy":"289","event":"CM START: IBUPROFEN","domain":"CM","category":"concomitant_med"},{"dtc":"2025-01-28","dy":"297","event":"DEVIATION: MISSED DOSE","domain":"DV","category":"deviation"},{"dtc":"2025-01-29","dy":"298","event":"AE: Fatigue (MODERATE)","domain":"AE","category":"adverse_event"},{"dtc":"2025-02-01","dy":"301","event":"AE: Lacrimation increased (SEVERE) [SERIOUS]","domain":"AE","category":"adverse_event"},{"dtc":"2025-02-04","dy":"304","event":"AE: Convulsion (MILD)","domain":"AE","category":"adverse_event"},{"dtc":"2025-03-06","dy":"334","event":"ADVERSE EVENT","domain":"DS","category":"milestone"},{"dtc":"2025-03-06","dy":"334","event":"AE: Headache (SEVERE) [SERIOUS]","domain":"AE","category":"adverse_event"},{"dtc":"2025-03-06","dy":"334","event":"CM START: IBUPROFEN","domain":"CM","category":"concomitant_med"}],"section_1_demographics":{"usubjid":"P261-402-USL261-USA_SITE06-0005","subjid":"0005","siteid":"USA_SITE06","age":"20","ageu":"YEARS","sex":"F","race":"ASIAN","ethnicity":"HISPANIC OR LATINO","country":"USA","arm":"USL261 5 mg intranasal PRN per seizure cluster","armcd":"USL261","actarm":"USL261 5 mg intranasal PRN per seizure cluster","actarmcd":"USL261","randomization_date":null,"informed_consent_date":"2024-03-24","reference_start_date":"2024-04-07","reference_end_date":"2025-03-06","screen_failure":false,"death_flag":null,"death_date":null,"subject_characteristics":[{"testcd":"ALCUSE","test":"Alcohol Use","orres":"CURRENT DRINKER","stresc":"CURRENT DRINKER","visit":null,"dtc":"2024-03-24"},{"testcd":"BMI","test":"Body Mass Index","orres":"43.7","stresc":"43.7","visit":null,"dtc":"2024-03-24"},{"testcd":"DURDIS","test":"Duration of Disease","orres":"24 months","stresc":"24","visit":null,"dtc":"2024-03-24"},{"testcd":"TOBPKYR","test":"Tobacco Pack-Years","orres":"14","stresc":"14","visit":null,"dtc":"2024-03-24"},{"testcd":"TOBUSE","test":"Tobacco Use","orres":"FORMER SMOKER","stresc":"FORMER SMOKER","visit":null,"dtc":"2024-03-24"}]},"section_2_medical_history":{"items":[{"seq":"1","term":"HYPERLIPIDEMIA","decod":"HYPERLIPIDEMIA","cat":"METABOLIC","scat":null,"presp":null,"occur":null,"status":null,"onset_dtc":"2022-03","end_dtc":null,"visit":null}]},"section_3_inclusion_exclusion":{"criteria":[]},"section_4_trial_participation":{"visits":[{"visitnum":"1.0","visit":"ENROLLMENT","start_dtc":"2024-04-07","end_dtc":"2024-04-07","updes":null},{"visitnum":"2.0","visit":"VISIT 2","start_dtc":"2024-06-30","end_dtc":"2024-06-30","updes":null},{"visitnum":"3.0","visit":"VISIT 3","start_dtc":"2024-09-25","end_dtc":"2024-09-25","updes":null},{"visitnum":"4.0","visit":"VISIT 4","start_dtc":"2025-01-03","end_dtc":"2025-01-03","updes":null}],"epochs":[{"seq":"1","etcd":"SCRN","element":"Enrollment (post P261-401)","start_dtc":"2024-03-24","end_dtc":"2024-04-07","updes":null},{"seq":"2","etcd":"TRT","element":"Treatment (long-term)","start_dtc":"2024-04-07","end_dtc":"2025-03-06","updes":null}],"visit_count":4},"section_5_concomitant_medications":{"medications":[{"seq":"1","trt":"PARACETAMOL","decod":"PARACETAMOL","cat":"CONCOMITANT","dose":"500","doseu":null,"dosef":"PRN","route":"ORAL","indication":"CONVULSION","start_dtc":"2024-04-08","end_dtc":"2024-04-30","ongoing":null,"visit":null},{"seq":"2","trt":"PARACETAMOL","decod":"PARACETAMOL","cat":"CONCOMITANT","dose":"500","doseu":null,"dosef":"PRN","route":"ORAL","indication":"HEADACHE","start_dtc":"2024-04-29","end_dtc":"2024-05-06","ongoing":null,"visit":null},{"seq":"3","trt":"METOCLOPRAMIDE","decod":"METOCLOPRAMIDE","cat":"CONCOMITANT","dose":"10","doseu":null,"dosef":"TID","route":"ORAL","indication":"NAUSEA","start_dtc":"2024-05-03","end_dtc":"2024-05-12","ongoing":null,"visit":null},{"seq":"4","trt":"PARACETAMOL","decod":"PARACETAMOL","cat":"CONCOMITANT","dose":"500","doseu":null,"dosef":"PRN","route":"ORAL","indication":"HEADACHE","start_dtc":"2024-06-23","end_dtc":"2024-07-14","ongoing":null,"visit":null},{"seq":"5","trt":"IBUPROFEN","decod":"IBUPROFEN","cat":"CONCOMITANT","dose":"400","doseu":null,"dosef":"PRN","route":"ORAL","indication":"NASAL DISCOMFORT","start_dtc":"2024-07-27","end_dtc":"2024-08-04","ongoing":null,"visit":null},{"seq":"6","trt":"IBUPROFEN","decod":"IBUPROFEN","cat":"CONCOMITANT","dose":"400","doseu":null,"dosef":"PRN","route":"ORAL","indication":"HEADACHE","start_dtc":"2024-08-18","end_dtc":"2024-08-30","ongoing":null,"visit":null},{"seq":"7","trt":"PARACETAMOL","decod":"PARACETAMOL","cat":"CONCOMITANT","dose":"500","doseu":null,"dosef":"PRN","route":"ORAL","indication":"RHINORRHOEA","start_dtc":"2024-10-20","end_dtc":"2024-11-01","ongoing":null,"visit":null},{"seq":"8","trt":"IBUPROFEN","decod":"IBUPROFEN","cat":"CONCOMITANT","dose":"400","doseu":null,"dosef":"PRN","route":"ORAL","indication":"HEADACHE","start_dtc":"2024-12-04","end_dtc":"2024-12-18","ongoing":null,"visit":null},{"seq":"9","trt":"METFORMIN","decod":"METFORMIN","cat":"CONCOMITANT","dose":null,"doseu":null,"dosef":"BID","route":"ORAL","indication":null,"start_dtc":"2024-12-23","end_dtc":"2025-01-19","ongoing":null,"visit":null},{"seq":"10","trt":"IBUPROFEN","decod":"IBUPROFEN","cat":"CONCOMITANT","dose":"400","doseu":null,"dosef":"PRN","route":"ORAL","indication":"RHINORRHOEA","start_dtc":"2024-12-31","end_dtc":"2025-01-05","ongoing":null,"visit":null},{"seq":"11","trt":"IBUPROFEN","decod":"IBUPROFEN","cat":"CONCOMITANT","dose":"400","doseu":null,"dosef":"PRN","route":"ORAL","indication":"HEADACHE","start_dtc":"2025-01-20","end_dtc":"2025-02-17","ongoing":null,"visit":null},{"seq":"12","trt":"IBUPROFEN","decod":"IBUPROFEN","cat":"CONCOMITANT","dose":"400","doseu":null,"dosef":"PRN","route":"ORAL","indication":"HEADACHE","start_dtc":"2025-03-06","end_dtc":"2025-03-06","ongoing":null,"visit":null}]},"section_6_exposure":{"exposure_as_administered":[{"seq":"1","trt":"MIDAZOLAM","dose":"5.0","doseu":null,"dosef":"PRN","route":"NASAL","lot":null,"start_dtc":"2024-05-14","end_dtc":"2024-05-14","start_dy":"38","end_dy":"38","epoch":"TREATMENT","visit":null},{"seq":"2","trt":"MIDAZOLAM","dose":"5.0","doseu":null,"dosef":"PRN","route":"NASAL","lot":null,"start_dtc":"2024-06-20","end_dtc":"2024-06-20","start_dy":"75","end_dy":"75","epoch":"TREATMENT","visit":null},{"seq":"3","trt":"MIDAZOLAM","dose":"5.0","doseu":null,"dosef":"PRN","route":"NASAL","lot":null,"start_dtc":"2024-07-27","end_dtc":"2024-07-27","start_dy":"112","end_dy":"112","epoch":"TREATMENT","visit":null},{"seq":"4","trt":"MIDAZOLAM","dose":"5.0","doseu":null,"dosef":"PRN","route":"NASAL","lot":null,"start_dtc":"2024-09-02","end_dtc":"2024-09-02","start_dy":"149","end_dy":"149","epoch":"TREATMENT","visit":null},{"seq":"5","trt":"MIDAZOLAM","dose":"5.0","doseu":null,"dosef":"PRN","route":"NASAL","lot":null,"start_dtc":"2024-10-09","end_dtc":"2024-10-09","start_dy":"186","end_dy":"186","epoch":"TREATMENT","visit":null},{"seq":"6","trt":"MIDAZOLAM","dose":"5.0","doseu":null,"dosef":"PRN","route":"NASAL","lot":null,"start_dtc":"2024-12-22","end_dtc":"2024-12-22","start_dy":"260","end_dy":"260","epoch":"TREATMENT","visit":null}],"exposure_as_collected":[{"seq":"1","trt":"MIDAZOLAM","dose":"5.0","doseu":null,"dosef":"PRN","route":"NASAL","start_dtc":"2024-05-14","end_dtc":"2024-05-14","visit":null},{"seq":"2","trt":"MIDAZOLAM","dose":"5.0","doseu":null,"dosef":"PRN","route":"NASAL","start_dtc":"2024-06-20","end_dtc":"2024-06-20","visit":null},{"seq":"3","trt":"MIDAZOLAM","dose":"5.0","doseu":null,"dosef":"PRN","route":"NASAL","start_dtc":"2024-07-27","end_dtc":"2024-07-27","visit":null},{"seq":"4","trt":"MIDAZOLAM","dose":"5.0","doseu":null,"dosef":"PRN","route":"NASAL","start_dtc":"2024-09-02","end_dtc":"2024-09-02","visit":null},{"seq":"5","trt":"MIDAZOLAM","dose":"5.0","doseu":null,"dosef":"PRN","route":"NASAL","start_dtc":"2024-10-09","end_dtc":"2024-10-09","visit":null},{"seq":"6","trt":"MIDAZOLAM","dose":null,"doseu":null,"dosef":"PRN","route":"NASAL","start_dtc":"2024-11-15","end_dtc":"2024-11-15","visit":null},{"seq":"7","trt":"MIDAZOLAM","dose":"5.0","doseu":null,"dosef":"PRN","route":"NASAL","start_dtc":"2024-12-22","end_dtc":"2024-12-22","visit":null},{"seq":"8","trt":"MIDAZOLAM","dose":null,"doseu":null,"dosef":"PRN","route":"NASAL","start_dtc":"2025-01-28","end_dtc":"2025-01-28","visit":null}]},"section_7_adverse_events":{"summary":{"total_aes":20,"serious_aes":8,"fatal_aes":0,"by_severity":{"SEVERE":8,"MILD":8,"MODERATE":4},"by_soc":{"Nervous system disorders":11,"Eye disorders":3,"Gastrointestinal disorders":2,"Respiratory, thoracic and mediastinal disorders":3,"General disorders and administration site conditions":1}},"events":[{"seq":"1","term":"CONVULSION","decod":"Convulsion","llt":"Convulsion","hlt":"Seizures and seizure disorders NEC","hlgt":"Seizures (incl subtypes)","soc":"Nervous system disorders","bodsys":"Nervous system disorders","severity":"SEVERE","serious":"Y","causality":"NOT RELATED","action_taken":"DOSE NOT CHANGED","outcome":"RECOVERED/RESOLVED","fatal":"N","hospitalization":"Y","life_threatening":"N","onset_dtc":"2024-04-08","end_dtc":"2024-05-12","onset_dy":"2","end_dy":"36","duration":null,"epoch":"TREATMENT","visit":null,"supplemental":{"AETRTEM":"Y"}},{"seq":"2","term":"LACRIMATION INCREASED","decod":"Lacrimation increased","llt":"Lacrimation increased","hlt":"Ocular disorders NEC","hlgt":"Ocular disorders NEC","soc":"Eye disorders","bodsys":"Eye disorders","severity":"MILD","serious":"N","causality":"NOT RELATED","action_taken":"DOSE NOT CHANGED","outcome":"RECOVERED/RESOLVED","fatal":"N","hospitalization":"N","life_threatening":"N","onset_dtc":"2024-04-09","end_dtc":"2024-04-20","onset_dy":"3","end_dy":"14","duration":null,"epoch":"TREATMENT","visit":null,"supplemental":{"AETRTEM":"Y"}},{"seq":"3","term":"HEADACHE","decod":"Headache","llt":"Headache","hlt":"Headaches NEC","hlgt":"Headaches","soc":"Nervous system disorders","bodsys":"Nervous system disorders","severity":"SEVERE","serious":"Y","causality":"NOT RELATED","action_taken":"DOSE NOT CHANGED","outcome":"RECOVERED/RESOLVED","fatal":"N","hospitalization":"Y","life_threatening":"N","onset_dtc":"2024-04-29","end_dtc":"2024-05-09","onset_dy":"23","end_dy":"33","duration":null,"epoch":"TREATMENT","visit":null,"supplemental":{"AETRTEM":"Y"}},{"seq":"4","term":"LACRIMATION INCREASED","decod":"Lacrimation increased","llt":"Lacrimation increased","hlt":"Ocular disorders NEC","hlgt":"Ocular disorders NEC","soc":"Eye disorders","bodsys":"Eye disorders","severity":"MILD","serious":"N","causality":"NOT RELATED","action_taken":"DOSE NOT CHANGED","outcome":"RECOVERED/RESOLVED","fatal":"N","hospitalization":"N","life_threatening":"N","onset_dtc":"2024-04-29","end_dtc":"2024-05-09","onset_dy":"23","end_dy":"33","duration":null,"epoch":"TREATMENT","visit":null,"supplemental":{"AETRTEM":"Y"}},{"seq":"5","term":"NAUSEA","decod":"Nausea","llt":"Nausea","hlt":"Nausea and vomiting symptoms","hlgt":"Gastrointestinal signs and symptoms","soc":"Gastrointestinal disorders","bodsys":"Gastrointestinal disorders","severity":"MILD","serious":"N","causality":"NOT RELATED","action_taken":"DOSE NOT CHANGED","outcome":"RECOVERED/RESOLVED","fatal":"N","hospitalization":"N","life_threatening":"N","onset_dtc":"2024-05-03","end_dtc":"2024-05-05","onset_dy":"27","end_dy":"29","duration":null,"epoch":"TREATMENT","visit":null,"supplemental":{"AETRTEM":"Y"}},{"seq":"6","term":"HEADACHE","decod":"Headache","llt":"Headache","hlt":"Headaches NEC","hlgt":"Headaches","soc":"Nervous system disorders","bodsys":"Nervous system disorders","severity":"MILD","serious":"N","causality":"POSSIBLY RELATED","action_taken":"DOSE NOT CHANGED","outcome":"RECOVERED/RESOLVED","fatal":"N","hospitalization":"N","life_threatening":"N","onset_dtc":"2024-06-23","end_dtc":"2024-06-24","onset_dy":"78","end_dy":"79","duration":null,"epoch":"TREATMENT","visit":null,"supplemental":{"AETRTEM":"Y"}},{"seq":"7","term":"NASAL DISCOMFORT","decod":"Nasal discomfort","llt":"Nasal discomfort","hlt":"Nasal disorders NEC","hlgt":"Respiratory tract signs and symptoms","soc":"Respiratory, thoracic and mediastinal disorders","bodsys":"Respiratory, thoracic and mediastinal disorders","severity":"SEVERE","serious":"Y","causality":"UNLIKELY RELATED","action_taken":"DOSE NOT CHANGED","outcome":"RECOVERED/RESOLVED","fatal":"N","hospitalization":"Y","life_threatening":"N","onset_dtc":"2024-07-27","end_dtc":"2024-09-12","onset_dy":"112","end_dy":"159","duration":null,"epoch":"TREATMENT","visit":null,"supplemental":{"AETRTEM":"Y"}},{"seq":"8","term":"HEADACHE","decod":"Headache","llt":"Headache","hlt":"Headaches NEC","hlgt":"Headaches","soc":"Nervous system disorders","bodsys":"Nervous system disorders","severity":"SEVERE","serious":"Y","causality":"NOT RELATED","action_taken":"DOSE NOT CHANGED","outcome":"RECOVERED/RESOLVED","fatal":"N","hospitalization":"N","life_threatening":"N","onset_dtc":"2024-08-18","end_dtc":"2024-09-03","onset_dy":"134","end_dy":"150","duration":null,"epoch":"TREATMENT","visit":null,"supplemental":{"AETRTEM":"Y"}},{"seq":"9","term":"SOMNOLENCE","decod":"Somnolence","llt":"Somnolence","hlt":"Disturbances in consciousness NEC","hlgt":"Neurological signs and symptoms NEC","soc":"Nervous system disorders","bodsys":"Nervous system disorders","severity":"MILD","serious":"N","causality":"POSSIBLY RELATED","action_taken":"DOSE NOT CHANGED","outcome":"RECOVERING/RESOLVING","fatal":"N","hospitalization":"N","life_threatening":"N","onset_dtc":"2024-10-09","end_dtc":"2024-10-10","onset_dy":"186","end_dy":"187","duration":null,"epoch":"TREATMENT","visit":null,"supplemental":{"AETRTEM":"Y"}},{"seq":"10","term":"SOMNOLENCE","decod":"Somnolence","llt":"Somnolence","hlt":"Disturbances in consciousness NEC","hlgt":"Neurological signs and symptoms NEC","soc":"Nervous system disorders","bodsys":"Nervous system disorders","severity":"MODERATE","serious":"N","causality":"POSSIBLY RELATED","action_taken":"DOSE NOT CHANGED","outcome":"RECOVERED/RESOLVED","fatal":"N","hospitalization":"N","life_threatening":"N","onset_dtc":"2024-10-16","end_dtc":"2024-10-29","onset_dy":"193","end_dy":"206","duration":null,"epoch":"TREATMENT","visit":null,"supplemental":{"AETRTEM":"Y"}},{"seq":"11","term":"RHINORRHOEA","decod":"Rhinorrhoea","llt":"Rhinorrhoea","hlt":"Nasal disorders NEC","hlgt":"Respiratory tract signs and symptoms","soc":"Respiratory, thoracic and mediastinal disorders","bodsys":"Respiratory, thoracic and mediastinal disorders","severity":"MODERATE","serious":"N","causality":"NOT RELATED","action_taken":"DOSE NOT CHANGED","outcome":"RECOVERED/RESOLVED","fatal":"N","hospitalization":"N","life_threatening":"N","onset_dtc":"2024-10-20","end_dtc":"2024-10-29","onset_dy":"197","end_dy":"206","duration":null,"epoch":"TREATMENT","visit":null,"supplemental":{"AETRTEM":"Y"}},{"seq":"12","term":"DYSGEUSIA","decod":"Dysgeusia","llt":"Dysgeusia","hlt":"Neurological signs and symptoms NEC","hlgt":"Neurological signs and symptoms NEC","soc":"Nervous system disorders","bodsys":"Nervous system disorders","severity":"MODERATE","serious":"N","causality":"NOT RELATED","action_taken":"DOSE NOT CHANGED","outcome":"RECOVERED/RESOLVED","fatal":"N","hospitalization":"N","life_threatening":"N","onset_dtc":"2024-10-31","end_dtc":"2024-11-02","onset_dy":"208","end_dy":"210","duration":null,"epoch":"TREATMENT","visit":null,"supplemental":{"AETRTEM":"Y"}},{"seq":"13","term":"HEADACHE","decod":"Headache","llt":"Headache","hlt":"Headaches NEC","hlgt":"Headaches","soc":"Nervous system disorders","bodsys":"Nervous system disorders","severity":"SEVERE","serious":"Y","causality":"NOT RELATED","action_taken":"DOSE NOT CHANGED","outcome":"RECOVERED/RESOLVED","fatal":"N","hospitalization":"Y","life_threatening":"N","onset_dtc":"2024-12-04","end_dtc":"2024-12-08","onset_dy":"242","end_dy":"246","duration":null,"epoch":"TREATMENT","visit":null,"supplemental":{"AETRTEM":"Y"}},{"seq":"14","term":"NAUSEA","decod":"Nausea","llt":"Nausea","hlt":"Nausea and vomiting symptoms","hlgt":"Gastrointestinal signs and symptoms","soc":"Gastrointestinal disorders","bodsys":"Gastrointestinal disorders","severity":"MILD","serious":"N","causality":"POSSIBLY RELATED","action_taken":"DOSE NOT CHANGED","outcome":"RECOVERED/RESOLVED","fatal":"N","hospitalization":"N","life_threatening":"N","onset_dtc":"2024-12-23","end_dtc":"2024-12-26","onset_dy":"261","end_dy":"264","duration":null,"epoch":"TREATMENT","visit":null,"supplemental":{"AETRTEM":"Y"}},{"seq":"15","term":"RHINORRHOEA","decod":"Rhinorrhoea","llt":"Rhinorrhoea","hlt":"Nasal disorders NEC","hlgt":"Respiratory tract signs and symptoms","soc":"Respiratory, thoracic and mediastinal disorders","bodsys":"Respiratory, thoracic and mediastinal disorders","severity":"SEVERE","serious":"Y","causality":"NOT RELATED","action_taken":"DOSE NOT CHANGED","outcome":"RECOVERED/RESOLVED","fatal":"N","hospitalization":"Y","life_threatening":"N","onset_dtc":"2024-12-31","end_dtc":"2025-02-17","onset_dy":"269","end_dy":"317","duration":null,"epoch":"TREATMENT","visit":null,"supplemental":{"AETRTEM":"Y"}},{"seq":"16","term":"HEADACHE","decod":"Headache","llt":"Headache","hlt":"Headaches NEC","hlgt":"Headaches","soc":"Nervous system disorders","bodsys":"Nervous system disorders","severity":"MILD","serious":"N","causality":"UNLIKELY RELATED","action_taken":"DOSE NOT CHANGED","outcome":"NOT RECOVERED/NOT RESOLVED","fatal":"N","hospitalization":"N","life_threatening":"N","onset_dtc":"2025-01-20","end_dtc":null,"onset_dy":"289","end_dy":null,"duration":null,"epoch":"TREATMENT","visit":null,"supplemental":{"AETRTEM":"Y"}},{"seq":"17","term":"FATIGUE","decod":"Fatigue","llt":"Fatigue","hlt":"Asthenic conditions","hlgt":"General system disorders NEC","soc":"General disorders and administration site conditions","bodsys":"General disorders and administration site conditions","severity":"MODERATE","serious":"N","causality":"NOT RELATED","action_taken":"DOSE NOT CHANGED","outcome":"RECOVERING/RESOLVING","fatal":"N","hospitalization":"N","life_threatening":"N","onset_dtc":"2025-01-29","end_dtc":"2025-03-03","onset_dy":"298","end_dy":"331","duration":null,"epoch":"TREATMENT","visit":null,"supplemental":{"AETRTEM":"Y"}},{"seq":"18","term":"LACRIMATION INCREASED","decod":"Lacrimation increased","llt":"Lacrimation increased","hlt":"Ocular disorders NEC","hlgt":"Ocular disorders NEC","soc":"Eye disorders","bodsys":"Eye disorders","severity":"SEVERE","serious":"Y","causality":"NOT RELATED","action_taken":"DOSE NOT CHANGED","outcome":"RECOVERED/RESOLVED","fatal":"N","hospitalization":"Y","life_threatening":"N","onset_dtc":"2025-02-01","end_dtc":"2025-02-02","onset_dy":"301","end_dy":"302","duration":null,"epoch":"TREATMENT","visit":null,"supplemental":{"AETRTEM":"Y"}},{"seq":"19","term":"CONVULSION","decod":"Convulsion","llt":"Convulsion","hlt":"Seizures and seizure disorders NEC","hlgt":"Seizures (incl subtypes)","soc":"Nervous system disorders","bodsys":"Nervous system disorders","severity":"MILD","serious":"N","causality":"NOT RELATED","action_taken":"DOSE NOT CHANGED","outcome":"RECOVERED/RESOLVED","fatal":"N","hospitalization":"N","life_threatening":"N","onset_dtc":"2025-02-04","end_dtc":"2025-02-18","onset_dy":"304","end_dy":"318","duration":null,"epoch":"TREATMENT","visit":null,"supplemental":{"AETRTEM":"Y"}},{"seq":"20","term":"HEADACHE","decod":"Headache","llt":"Headache","hlt":"Headaches NEC","hlgt":"Headaches","soc":"Nervous system disorders","bodsys":"Nervous system disorders","severity":"SEVERE","serious":"Y","causality":"NOT RELATED","action_taken":"DOSE NOT CHANGED","outcome":"RECOVERING/RESOLVING","fatal":"N","hospitalization":"N","life_threatening":"N","onset_dtc":"2025-03-06","end_dtc":"2025-03-06","onset_dy":"334","end_dy":"334","duration":null,"epoch":"TREATMENT","visit":null,"supplemental":{"AETRTEM":"Y"}}]},"section_8_laboratory_results":{"summary":{"total_records":28,"abnormal_count":1,"abnormal_pct":3.6},"shift_summary":[{"testcd":"ALT","baseline_value":11.13,"baseline_nrind":"NORMAL","worst_post_baseline_value":10.96,"worst_post_baseline_nrind":"NORMAL","worst_visit":"VISIT 4"},{"testcd":"AST","baseline_value":39.81,"baseline_nrind":"NORMAL","worst_post_baseline_value":40.01,"worst_post_baseline_nrind":"HIGH","worst_visit":"VISIT 2"},{"testcd":"CREAT","baseline_value":73.03,"baseline_nrind":"NORMAL","worst_post_baseline_value":72.83,"worst_post_baseline_nrind":"NORMAL","worst_visit":"VISIT 4"},{"testcd":"GLUC","baseline_value":5.44,"baseline_nrind":"NORMAL","worst_post_baseline_value":5.48,"worst_post_baseline_nrind":"NORMAL","worst_visit":"VISIT 2"},{"testcd":"HGB","baseline_value":123.08,"baseline_nrind":"NORMAL","worst_post_baseline_value":123.75,"worst_post_baseline_nrind":"NORMAL","worst_visit":"VISIT 4"},{"testcd":"PLAT","baseline_value":230.82,"baseline_nrind":"NORMAL","worst_post_baseline_value":257.55,"worst_post_baseline_nrind":"NORMAL","worst_visit":"VISIT 3"},{"testcd":"WBC","baseline_value":8.14,"baseline_nrind":"NORMAL","worst_post_baseline_value":8.78,"worst_post_baseline_nrind":"NORMAL","worst_visit":"VISIT 4"}],"results":[{"seq":"1","testcd":"ALT","test":"Alanine Aminotransferase","cat":"CHEMISTRY","orres":"11.13","orresu":"U/L","stresc":"11.13","stresn":"11.13","stresu":"U/L","stnrlo":"7","stnrhi":"56","nrind":"NORMAL","fast":null,"dtc":"2024-04-07","dy":"1","visit":"ENROLLMENT","visitnum":"1.0","epoch":"SCREENING","spec":null,"method":null},{"seq":"2","testcd":"AST","test":"Aspartate Aminotransferase","cat":"CHEMISTRY","orres":"39.81","orresu":"U/L","stresc":"39.81","stresn":"39.81","stresu":"U/L","stnrlo":"10","stnrhi":"40","nrind":"NORMAL","fast":null,"dtc":"2024-04-07","dy":"1","visit":"ENROLLMENT","visitnum":"1.0","epoch":"SCREENING","spec":null,"method":null},{"seq":"3","testcd":"CREAT","test":"Creatinine","cat":"CHEMISTRY","orres":"73.03","orresu":"umol/L","stresc":"73.03","stresn":"73.03","stresu":"umol/L","stnrlo":"44","stnrhi":"80","nrind":"NORMAL","fast":null,"dtc":"2024-04-07","dy":"1","visit":"ENROLLMENT","visitnum":"1.0","epoch":"SCREENING","spec":null,"method":null},{"seq":"4","testcd":"GLUC","test":"Glucose","cat":"CHEMISTRY","orres":"5.44","orresu":"mmol/L","stresc":"5.44","stresn":"5.44","stresu":"mmol/L","stnrlo":"3.9","stnrhi":"5.6","nrind":"NORMAL","fast":null,"dtc":"2024-04-07","dy":"1","visit":"ENROLLMENT","visitnum":"1.0","epoch":"SCREENING","spec":null,"method":null},{"seq":"5","testcd":"HGB","test":"Hemoglobin","cat":"HEMATOLOGY","orres":"123.08","orresu":"g/L","stresc":"123.08","stresn":"123.08","stresu":"g/L","stnrlo":"120","stnrhi":"155","nrind":"NORMAL","fast":null,"dtc":"2024-04-07","dy":"1","visit":"ENROLLMENT","visitnum":"1.0","epoch":"SCREENING","spec":null,"method":null},{"seq":"6","testcd":"PLAT","test":"Platelets","cat":"HEMATOLOGY","orres":"230.82","orresu":"10^9/L","stresc":"230.82","stresn":"230.82","stresu":"10^9/L","stnrlo":"150","stnrhi":"400","nrind":"NORMAL","fast":null,"dtc":"2024-04-07","dy":"1","visit":"ENROLLMENT","visitnum":"1.0","epoch":"SCREENING","spec":null,"method":null},{"seq":"7","testcd":"WBC","test":"Leukocytes","cat":"HEMATOLOGY","orres":"8.14","orresu":"10^9/L","stresc":"8.14","stresn":"8.14","stresu":"10^9/L","stnrlo":"4.0","stnrhi":"11.0","nrind":"NORMAL","fast":null,"dtc":"2024-04-07","dy":"1","visit":"ENROLLMENT","visitnum":"1.0","epoch":"SCREENING","spec":null,"method":null},{"seq":"8","testcd":"ALT","test":"Alanine Aminotransferase","cat":"CHEMISTRY","orres":"9.03","orresu":"U/L","stresc":"9.03","stresn":"9.03","stresu":"U/L","stnrlo":"7","stnrhi":"56","nrind":"NORMAL","fast":null,"dtc":"2024-06-30","dy":"85","visit":"VISIT 2","visitnum":"2.0","epoch":"TREATMENT","spec":null,"method":null},{"seq":"9","testcd":"AST","test":"Aspartate Aminotransferase","cat":"CHEMISTRY","orres":"40.01","orresu":"U/L","stresc":"40.01","stresn":"40.01","stresu":"U/L","stnrlo":"10","stnrhi":"40","nrind":"HIGH","fast":null,"dtc":"2024-06-30","dy":"85","visit":"VISIT 2","visitnum":"2.0","epoch":"TREATMENT","spec":null,"method":null},{"seq":"10","testcd":"CREAT","test":"Creatinine","cat":"CHEMISTRY","orres":"70.76","orresu":"umol/L","stresc":"70.76","stresn":"70.76","stresu":"umol/L","stnrlo":"44","stnrhi":"80","nrind":"NORMAL","fast":null,"dtc":"2024-06-30","dy":"85","visit":"VISIT 2","visitnum":"2.0","epoch":"TREATMENT","spec":null,"method":null},{"seq":"11","testcd":"GLUC","test":"Glucose","cat":"CHEMISTRY","orres":"5.48","orresu":"mmol/L","stresc":"5.48","stresn":"5.48","stresu":"mmol/L","stnrlo":"3.9","stnrhi":"5.6","nrind":"NORMAL","fast":null,"dtc":"2024-06-30","dy":"85","visit":"VISIT 2","visitnum":"2.0","epoch":"TREATMENT","spec":null,"method":null},{"seq":"12","testcd":"HGB","test":"Hemoglobin","cat":"HEMATOLOGY","orres":"124.02","orresu":"g/L","stresc":"124.02","stresn":"124.02","stresu":"g/L","stnrlo":"120","stnrhi":"155","nrind":"NORMAL","fast":null,"dtc":"2024-06-30","dy":"85","visit":"VISIT 2","visitnum":"2.0","epoch":"TREATMENT","spec":null,"method":null},{"seq":"13","testcd":"PLAT","test":"Platelets","cat":"HEMATOLOGY","orres":"239.79","orresu":"10^9/L","stresc":"239.79","stresn":"239.79","stresu":"10^9/L","stnrlo":"150","stnrhi":"400","nrind":"NORMAL","fast":null,"dtc":"2024-06-30","dy":"85","visit":"VISIT 2","visitnum":"2.0","epoch":"TREATMENT","spec":null,"method":null},{"seq":"14","testcd":"WBC","test":"Leukocytes","cat":"HEMATOLOGY","orres":"8.2","orresu":"10^9/L","stresc":"8.2","stresn":"8.2","stresu":"10^9/L","stnrlo":"4.0","stnrhi":"11.0","nrind":"NORMAL","fast":null,"dtc":"2024-06-30","dy":"85","visit":"VISIT 2","visitnum":"2.0","epoch":"TREATMENT","spec":null,"method":null},{"seq":"15","testcd":"ALT","test":"Alanine Aminotransferase","cat":"CHEMISTRY","orres":"8.78","orresu":"U/L","stresc":"8.78","stresn":"8.78","stresu":"U/L","stnrlo":"7","stnrhi":"56","nrind":"NORMAL","fast":null,"dtc":"2024-09-25","dy":"172","visit":"VISIT 3","visitnum":"3.0","epoch":"TREATMENT","spec":null,"method":null},{"seq":"16","testcd":"AST","test":"Aspartate Aminotransferase","cat":"CHEMISTRY","orres":"39.91","orresu":"U/L","stresc":"39.91","stresn":"39.91","stresu":"U/L","stnrlo":"10","stnrhi":"40","nrind":"NORMAL","fast":null,"dtc":"2024-09-25","dy":"172","visit":"VISIT 3","visitnum":"3.0","epoch":"TREATMENT","spec":null,"method":null},{"seq":"17","testcd":"CREAT","test":"Creatinine","cat":"CHEMISTRY","orres":"68.5","orresu":"umol/L","stresc":"68.5","stresn":"68.5","stresu":"umol/L","stnrlo":"44","stnrhi":"80","nrind":"NORMAL","fast":null,"dtc":"2024-09-25","dy":"172","visit":"VISIT 3","visitnum":"3.0","epoch":"TREATMENT","spec":null,"method":null},{"seq":"18","testcd":"GLUC","test":"Glucose","cat":"CHEMISTRY","orres":"5.36","orresu":"mmol/L","stresc":"5.36","stresn":"5.36","stresu":"mmol/L","stnrlo":"3.9","stnrhi":"5.6","nrind":"NORMAL","fast":null,"dtc":"2024-09-25","dy":"172","visit":"VISIT 3","visitnum":"3.0","epoch":"TREATMENT","spec":null,"method":null},{"seq":"19","testcd":"HGB","test":"Hemoglobin","cat":"HEMATOLOGY","orres":"125.15","orresu":"g/L","stresc":"125.15","stresn":"125.15","stresu":"g/L","stnrlo":"120","stnrhi":"155","nrind":"NORMAL","fast":null,"dtc":"2024-09-25","dy":"172","visit":"VISIT 3","visitnum":"3.0","epoch":"TREATMENT","spec":null,"method":null},{"seq":"20","testcd":"PLAT","test":"Platelets","cat":"HEMATOLOGY","orres":"257.55","orresu":"10^9/L","stresc":"257.55","stresn":"257.55","stresu":"10^9/L","stnrlo":"150","stnrhi":"400","nrind":"NORMAL","fast":null,"dtc":"2024-09-25","dy":"172","visit":"VISIT 3","visitnum":"3.0","epoch":"TREATMENT","spec":null,"method":null},{"seq":"21","testcd":"WBC","test":"Leukocytes","cat":"HEMATOLOGY","orres":"8.04","orresu":"10^9/L","stresc":"8.04","stresn":"8.04","stresu":"10^9/L","stnrlo":"4.0","stnrhi":"11.0","nrind":"NORMAL","fast":null,"dtc":"2024-09-25","dy":"172","visit":"VISIT 3","visitnum":"3.0","epoch":"TREATMENT","spec":null,"method":null},{"seq":"22","testcd":"ALT","test":"Alanine Aminotransferase","cat":"CHEMISTRY","orres":"10.96","orresu":"U/L","stresc":"10.96","stresn":"10.96","stresu":"U/L","stnrlo":"7","stnrhi":"56","nrind":"NORMAL","fast":null,"dtc":"2025-01-03","dy":"272","visit":"VISIT 4","visitnum":"4.0","epoch":"TREATMENT","spec":null,"method":null},{"seq":"23","testcd":"AST","test":"Aspartate Aminotransferase","cat":"CHEMISTRY","orres":null,"orresu":null,"stresc":null,"stresn":null,"stresu":null,"stnrlo":null,"stnrhi":null,"nrind":null,"fast":null,"dtc":"2025-01-03","dy":"272","visit":"VISIT 4","visitnum":"4.0","epoch":"TREATMENT","spec":null,"method":null},{"seq":"24","testcd":"CREAT","test":"Creatinine","cat":"CHEMISTRY","orres":"72.83","orresu":"umol/L","stresc":"72.83","stresn":"72.83","stresu":"umol/L","stnrlo":"44","stnrhi":"80","nrind":"NORMAL","fast":null,"dtc":"2025-01-03","dy":"272","visit":"VISIT 4","visitnum":"4.0","epoch":"TREATMENT","spec":null,"method":null},{"seq":"25","testcd":"GLUC","test":"Glucose","cat":"CHEMISTRY","orres":"5.25","orresu":"mmol/L","stresc":"5.25","stresn":"5.25","stresu":"mmol/L","stnrlo":"3.9","stnrhi":"5.6","nrind":"NORMAL","fast":null,"dtc":"2025-01-03","dy":"272","visit":"VISIT 4","visitnum":"4.0","epoch":"TREATMENT","spec":null,"method":null},{"seq":"26","testcd":"HGB","test":"Hemoglobin","cat":"HEMATOLOGY","orres":"123.75","orresu":"g/L","stresc":"123.75","stresn":"123.75","stresu":"g/L","stnrlo":"120","stnrhi":"155","nrind":"NORMAL","fast":null,"dtc":"2025-01-03","dy":"272","visit":"VISIT 4","visitnum":"4.0","epoch":"TREATMENT","spec":null,"method":null},{"seq":"27","testcd":"PLAT","test":"Platelets","cat":"HEMATOLOGY","orres":null,"orresu":null,"stresc":null,"stresn":null,"stresu":null,"stnrlo":null,"stnrhi":null,"nrind":null,"fast":null,"dtc":"2025-01-03","dy":"272","visit":"VISIT 4","visitnum":"4.0","epoch":"TREATMENT","spec":null,"method":null},{"seq":"28","testcd":"WBC","test":"Leukocytes","cat":"HEMATOLOGY","orres":"8.78","orresu":"10^9/L","stresc":"8.78","stresn":"8.78","stresu":"10^9/L","stnrlo":"4.0","stnrhi":"11.0","nrind":"NORMAL","fast":null,"dtc":"2025-01-03","dy":"272","visit":"VISIT 4","visitnum":"4.0","epoch":"TREATMENT","spec":null,"method":null}]},"section_9_vital_signs":{"summary":{"total_records":32},"trends":{"BMI":[{"visit":"ENROLLMENT","visitnum":"1.0","dtc":"2024-04-07","value":"43.7","unit":"kg/m2"},{"visit":"VISIT 2","visitnum":"2.0","dtc":"2024-06-30","value":"43.9","unit":"kg/m2"},{"visit":"VISIT 3","visitnum":"3.0","dtc":"2024-09-25","value":"44.4","unit":"kg/m2"},{"visit":"VISIT 4","visitnum":"4.0","dtc":"2025-01-03","value":"43.2","unit":"kg/m2"}],"DIABP":[{"visit":"ENROLLMENT","visitnum":"1.0","dtc":"2024-04-07","value":"71.7","unit":"mmHg"},{"visit":"VISIT 2","visitnum":"2.0","dtc":"2024-06-30","value":"69.2","unit":"mmHg"},{"visit":"VISIT 3","visitnum":"3.0","dtc":"2024-09-25","value":"68.2","unit":"mmHg"},{"visit":"VISIT 4","visitnum":"4.0","dtc":"2025-01-03","value":"67.1","unit":"mmHg"}],"HEIGHT":[{"visit":"ENROLLMENT","visitnum":"1.0","dtc":"2024-04-07","value":"140.0","unit":"cm"},{"visit":"VISIT 2","visitnum":"2.0","dtc":"2024-06-30","value":"140.5","unit":"cm"},{"visit":"VISIT 3","visitnum":"3.0","dtc":"2024-09-25","value":"140.1","unit":"cm"},{"visit":"VISIT 4","visitnum":"4.0","dtc":"2025-01-03","value":"140.3","unit":"cm"}],"PULSE":[{"visit":"VISIT 2","visitnum":"2.0","dtc":"2024-06-30","value":"81.4","unit":"beats/min"},{"visit":"VISIT 3","visitnum":"3.0","dtc":"2024-09-25","value":"82.4","unit":"beats/min"},{"visit":"VISIT 4","visitnum":"4.0","dtc":"2025-01-03","value":"82.8","unit":"beats/min"}],"RESP":[{"visit":"ENROLLMENT","visitnum":"1.0","dtc":"2024-04-07","value":"14.8","unit":"breaths/min"},{"visit":"VISIT 2","visitnum":"2.0","dtc":"2024-06-30","value":"13.5","unit":"breaths/min"},{"visit":"VISIT 3","visitnum":"3.0","dtc":"2024-09-25","value":"15.2","unit":"breaths/min"},{"visit":"VISIT 4","visitnum":"4.0","dtc":"2025-01-03","value":"15.1","unit":"breaths/min"}],"SYSBP":[{"visit":"ENROLLMENT","visitnum":"1.0","dtc":"2024-04-07","value":"112.4","unit":"mmHg"},{"visit":"VISIT 2","visitnum":"2.0","dtc":"2024-06-30","value":"111.6","unit":"mmHg"},{"visit":"VISIT 3","visitnum":"3.0","dtc":"2024-09-25","value":"107.9","unit":"mmHg"},{"visit":"VISIT 4","visitnum":"4.0","dtc":"2025-01-03","value":"104.7","unit":"mmHg"}],"TEMP":[{"visit":"ENROLLMENT","visitnum":"1.0","dtc":"2024-04-07","value":"36.9","unit":"C"},{"visit":"VISIT 2","visitnum":"2.0","dtc":"2024-06-30","value":"36.9","unit":"C"},{"visit":"VISIT 3","visitnum":"3.0","dtc":"2024-09-25","value":"37.1","unit":"C"},{"visit":"VISIT 4","visitnum":"4.0","dtc":"2025-01-03","value":"37.1","unit":"C"}],"WEIGHT":[{"visit":"ENROLLMENT","visitnum":"1.0","dtc":"2024-04-07","value":"85.6","unit":"kg"},{"visit":"VISIT 2","visitnum":"2.0","dtc":"2024-06-30","value":"86.7","unit":"kg"},{"visit":"VISIT 3","visitnum":"3.0","dtc":"2024-09-25","value":"87.1","unit":"kg"},{"visit":"VISIT 4","visitnum":"4.0","dtc":"2025-01-03","value":"85.1","unit":"kg"}]},"results":[{"seq":"1","testcd":"BMI","test":"BMI","cat":null,"orres":null,"orresu":null,"stresc":"43.7","stresn":"43.7","stresu":"kg/m2","stnrlo":null,"stnrhi":null,"nrind":null,"pos":null,"loc":null,"dtc":"2024-04-07","dy":"1","visit":"ENROLLMENT","visitnum":"1.0","epoch":"SCREENING"},{"seq":"2","testcd":"DIABP","test":"Diastolic Blood Pressure","cat":null,"orres":"71.7","orresu":"mmHg","stresc":"71.7","stresn":"71.7","stresu":"mmHg","stnrlo":null,"stnrhi":null,"nrind":null,"pos":null,"loc":null,"dtc":"2024-04-07","dy":"1","visit":"ENROLLMENT","visitnum":"1.0","epoch":"SCREENING"},{"seq":"3","testcd":"HEIGHT","test":"Height","cat":null,"orres":"140.0","orresu":"cm","stresc":"140.0","stresn":"140.0","stresu":"cm","stnrlo":null,"stnrhi":null,"nrind":null,"pos":null,"loc":null,"dtc":"2024-04-07","dy":"1","visit":"ENROLLMENT","visitnum":"1.0","epoch":"SCREENING"},{"seq":"4","testcd":"PULSE","test":"Pulse Rate","cat":null,"orres":null,"orresu":null,"stresc":null,"stresn":null,"stresu":null,"stnrlo":null,"stnrhi":null,"nrind":null,"pos":null,"loc":null,"dtc":"2024-04-07","dy":"1","visit":"ENROLLMENT","visitnum":"1.0","epoch":"SCREENING"},{"seq":"5","testcd":"RESP","test":"Respiratory Rate","cat":null,"orres":"14.8","orresu":"breaths/min","stresc":"14.8","stresn":"14.8","stresu":"breaths/min","stnrlo":null,"stnrhi":null,"nrind":null,"pos":null,"loc":null,"dtc":"2024-04-07","dy":"1","visit":"ENROLLMENT","visitnum":"1.0","epoch":"SCREENING"},{"seq":"6","testcd":"SYSBP","test":"Systolic Blood Pressure","cat":null,"orres":"112.4","orresu":"mmHg","stresc":"112.4","stresn":"112.4","stresu":"mmHg","stnrlo":null,"stnrhi":null,"nrind":null,"pos":null,"loc":null,"dtc":"2024-04-07","dy":"1","visit":"ENROLLMENT","visitnum":"1.0","epoch":"SCREENING"},{"seq":"7","testcd":"TEMP","test":"Temperature","cat":null,"orres":"36.9","orresu":"C","stresc":"36.9","stresn":"36.9","stresu":"C","stnrlo":null,"stnrhi":null,"nrind":null,"pos":null,"loc":null,"dtc":"2024-04-07","dy":"1","visit":"ENROLLMENT","visitnum":"1.0","epoch":"SCREENING"},{"seq":"8","testcd":"WEIGHT","test":"Weight","cat":null,"orres":"85.6","orresu":"kg","stresc":"85.6","stresn":"85.6","stresu":"kg","stnrlo":null,"stnrhi":null,"nrind":null,"pos":null,"loc":null,"dtc":"2024-04-07","dy":"1","visit":"ENROLLMENT","visitnum":"1.0","epoch":"SCREENING"},{"seq":"9","testcd":"BMI","test":"BMI","cat":null,"orres":null,"orresu":null,"stresc":"43.9","stresn":"43.9","stresu":"kg/m2","stnrlo":null,"stnrhi":null,"nrind":null,"pos":null,"loc":null,"dtc":"2024-06-30","dy":"85","visit":"VISIT 2","visitnum":"2.0","epoch":"TREATMENT"},{"seq":"10","testcd":"DIABP","test":"Diastolic Blood Pressure","cat":null,"orres":"69.2","orresu":"mmHg","stresc":"69.2","stresn":"69.2","stresu":"mmHg","stnrlo":null,"stnrhi":null,"nrind":null,"pos":null,"loc":null,"dtc":"2024-06-30","dy":"85","visit":"VISIT 2","visitnum":"2.0","epoch":"TREATMENT"},{"seq":"11","testcd":"HEIGHT","test":"Height","cat":null,"orres":"140.5","orresu":"cm","stresc":"140.5","stresn":"140.5","stresu":"cm","stnrlo":null,"stnrhi":null,"nrind":null,"pos":null,"loc":null,"dtc":"2024-06-30","dy":"85","visit":"VISIT 2","visitnum":"2.0","epoch":"TREATMENT"},{"seq":"12","testcd":"PULSE","test":"Pulse Rate","cat":null,"orres":"81.4","orresu":"beats/min","stresc":"81.4","stresn":"81.4","stresu":"beats/min","stnrlo":null,"stnrhi":null,"nrind":null,"pos":null,"loc":null,"dtc":"2024-06-30","dy":"85","visit":"VISIT 2","visitnum":"2.0","epoch":"TREATMENT"},{"seq":"13","testcd":"RESP","test":"Respiratory Rate","cat":null,"orres":"13.5","orresu":"breaths/min","stresc":"13.5","stresn":"13.5","stresu":"breaths/min","stnrlo":null,"stnrhi":null,"nrind":null,"pos":null,"loc":null,"dtc":"2024-06-30","dy":"85","visit":"VISIT 2","visitnum":"2.0","epoch":"TREATMENT"},{"seq":"14","testcd":"SYSBP","test":"Systolic Blood Pressure","cat":null,"orres":"111.6","orresu":"mmHg","stresc":"111.6","stresn":"111.6","stresu":"mmHg","stnrlo":null,"stnrhi":null,"nrind":null,"pos":null,"loc":null,"dtc":"2024-06-30","dy":"85","visit":"VISIT 2","visitnum":"2.0","epoch":"TREATMENT"},{"seq":"15","testcd":"TEMP","test":"Temperature","cat":null,"orres":"36.9","orresu":"C","stresc":"36.9","stresn":"36.9","stresu":"C","stnrlo":null,"stnrhi":null,"nrind":null,"pos":null,"loc":null,"dtc":"2024-06-30","dy":"85","visit":"VISIT 2","visitnum":"2.0","epoch":"TREATMENT"},{"seq":"16","testcd":"WEIGHT","test":"Weight","cat":null,"orres":"86.7","orresu":"kg","stresc":"86.7","stresn":"86.7","stresu":"kg","stnrlo":null,"stnrhi":null,"nrind":null,"pos":null,"loc":null,"dtc":"2024-06-30","dy":"85","visit":"VISIT 2","visitnum":"2.0","epoch":"TREATMENT"},{"seq":"17","testcd":"BMI","test":"BMI","cat":null,"orres":null,"orresu":null,"stresc":"44.4","stresn":"44.4","stresu":"kg/m2","stnrlo":null,"stnrhi":null,"nrind":null,"pos":null,"loc":null,"dtc":"2024-09-25","dy":"172","visit":"VISIT 3","visitnum":"3.0","epoch":"TREATMENT"},{"seq":"18","testcd":"DIABP","test":"Diastolic Blood Pressure","cat":null,"orres":"68.2","orresu":"mmHg","stresc":"68.2","stresn":"68.2","stresu":"mmHg","stnrlo":null,"stnrhi":null,"nrind":null,"pos":null,"loc":null,"dtc":"2024-09-25","dy":"172","visit":"VISIT 3","visitnum":"3.0","epoch":"TREATMENT"},{"seq":"19","testcd":"HEIGHT","test":"Height","cat":null,"orres":"140.1","orresu":"cm","stresc":"140.1","stresn":"140.1","stresu":"cm","stnrlo":null,"stnrhi":null,"nrind":null,"pos":null,"loc":null,"dtc":"2024-09-25","dy":"172","visit":"VISIT 3","visitnum":"3.0","epoch":"TREATMENT"},{"seq":"20","testcd":"PULSE","test":"Pulse Rate","cat":null,"orres":"82.4","orresu":"beats/min","stresc":"82.4","stresn":"82.4","stresu":"beats/min","stnrlo":null,"stnrhi":null,"nrind":null,"pos":null,"loc":null,"dtc":"2024-09-25","dy":"172","visit":"VISIT 3","visitnum":"3.0","epoch":"TREATMENT"},{"seq":"21","testcd":"RESP","test":"Respiratory Rate","cat":null,"orres":"15.2","orresu":"breaths/min","stresc":"15.2","stresn":"15.2","stresu":"breaths/min","stnrlo":null,"stnrhi":null,"nrind":null,"pos":null,"loc":null,"dtc":"2024-09-25","dy":"172","visit":"VISIT 3","visitnum":"3.0","epoch":"TREATMENT"},{"seq":"22","testcd":"SYSBP","test":"Systolic Blood Pressure","cat":null,"orres":"107.9","orresu":"mmHg","stresc":"107.9","stresn":"107.9","stresu":"mmHg","stnrlo":null,"stnrhi":null,"nrind":null,"pos":null,"loc":null,"dtc":"2024-09-25","dy":"172","visit":"VISIT 3","visitnum":"3.0","epoch":"TREATMENT"},{"seq":"23","testcd":"TEMP","test":"Temperature","cat":null,"orres":"37.1","orresu":"C","stresc":"37.1","stresn":"37.1","stresu":"C","stnrlo":null,"stnrhi":null,"nrind":null,"pos":null,"loc":null,"dtc":"2024-09-25","dy":"172","visit":"VISIT 3","visitnum":"3.0","epoch":"TREATMENT"},{"seq":"24","testcd":"WEIGHT","test":"Weight","cat":null,"orres":"87.1","orresu":"kg","stresc":"87.1","stresn":"87.1","stresu":"kg","stnrlo":null,"stnrhi":null,"nrind":null,"pos":null,"loc":null,"dtc":"2024-09-25","dy":"172","visit":"VISIT 3","visitnum":"3.0","epoch":"TREATMENT"},{"seq":"25","testcd":"BMI","test":"BMI","cat":null,"orres":null,"orresu":null,"stresc":"43.2","stresn":"43.2","stresu":"kg/m2","stnrlo":null,"stnrhi":null,"nrind":null,"pos":null,"loc":null,"dtc":"2025-01-03","dy":"272","visit":"VISIT 4","visitnum":"4.0","epoch":"TREATMENT"},{"seq":"26","testcd":"DIABP","test":"Diastolic Blood Pressure","cat":null,"orres":"67.1","orresu":"mmHg","stresc":"67.1","stresn":"67.1","stresu":"mmHg","stnrlo":null,"stnrhi":null,"nrind":null,"pos":null,"loc":null,"dtc":"2025-01-03","dy":"272","visit":"VISIT 4","visitnum":"4.0","epoch":"TREATMENT"},{"seq":"27","testcd":"HEIGHT","test":"Height","cat":null,"orres":"140.3","orresu":"cm","stresc":"140.3","stresn":"140.3","stresu":"cm","stnrlo":null,"stnrhi":null,"nrind":null,"pos":null,"loc":null,"dtc":"2025-01-03","dy":"272","visit":"VISIT 4","visitnum":"4.0","epoch":"TREATMENT"},{"seq":"28","testcd":"PULSE","test":"Pulse Rate","cat":null,"orres":"82.8","orresu":"beats/min","stresc":"82.8","stresn":"82.8","stresu":"beats/min","stnrlo":null,"stnrhi":null,"nrind":null,"pos":null,"loc":null,"dtc":"2025-01-03","dy":"272","visit":"VISIT 4","visitnum":"4.0","epoch":"TREATMENT"},{"seq":"29","testcd":"RESP","test":"Respiratory Rate","cat":null,"orres":"15.1","orresu":"breaths/min","stresc":"15.1","stresn":"15.1","stresu":"breaths/min","stnrlo":null,"stnrhi":null,"nrind":null,"pos":null,"loc":null,"dtc":"2025-01-03","dy":"272","visit":"VISIT 4","visitnum":"4.0","epoch":"TREATMENT"},{"seq":"30","testcd":"SYSBP","test":"Systolic Blood Pressure","cat":null,"orres":"104.7","orresu":"mmHg","stresc":"104.7","stresn":"104.7","stresu":"mmHg","stnrlo":null,"stnrhi":null,"nrind":null,"pos":null,"loc":null,"dtc":"2025-01-03","dy":"272","visit":"VISIT 4","visitnum":"4.0","epoch":"TREATMENT"},{"seq":"31","testcd":"TEMP","test":"Temperature","cat":null,"orres":"37.1","orresu":"C","stresc":"37.1","stresn":"37.1","stresu":"C","stnrlo":null,"stnrhi":null,"nrind":null,"pos":null,"loc":null,"dtc":"2025-01-03","dy":"272","visit":"VISIT 4","visitnum":"4.0","epoch":"TREATMENT"},{"seq":"32","testcd":"WEIGHT","test":"Weight","cat":null,"orres":"85.1","orresu":"kg","stresc":"85.1","stresn":"85.1","stresu":"kg","stnrlo":null,"stnrhi":null,"nrind":null,"pos":null,"loc":null,"dtc":"2025-01-03","dy":"272","visit":"VISIT 4","visitnum":"4.0","epoch":"TREATMENT"}]},"section_10_questionnaires_and_scores":{"questionnaires":[],"findings_about":[]},"section_11_protocol_deviations":{"deviations":[{"seq":"1","term":"Visit VISIT 3 occurred 8 days early (Day 172 vs planned Day 180)","decod":"VISIT OCCURRED OUTSIDE VISIT WINDOW","cat":"MINOR","scat":"VISIT WINDOW","start_dtc":"2024-09-25","end_dtc":null,"visit":null},{"seq":"2","term":"Missed MIDAZOLAM dose on 2024-11-15","decod":"MISSED DOSE","cat":"MINOR","scat":"DOSING","start_dtc":"2024-11-15","end_dtc":null,"visit":null},{"seq":"3","term":"Visit VISIT 4 occurred 2 days late (Day 272 vs planned Day 270)","decod":"VISIT OCCURRED OUTSIDE VISIT WINDOW","cat":"MINOR","scat":"VISIT WINDOW","start_dtc":"2025-01-03","end_dtc":null,"visit":null},{"seq":"4","term":"Missed MIDAZOLAM dose on 2025-01-28","decod":"MISSED DOSE","cat":"MINOR","scat":"DOSING","start_dtc":"2025-01-28","end_dtc":null,"visit":null}],"total":4},"section_12_disposition":{"completion_status":"INFORMED CONSENT OBTAINED","disposition_records":[{"seq":"1","term":"INFORMED CONSENT OBTAINED","decod":"INFORMED CONSENT OBTAINED","cat":"PROTOCOL MILESTONE","scat":null,"dtc":"2024-03-24","dy":null,"visit":null,"epoch":"SCREENING"},{"seq":"2","term":"RANDOMIZED","decod":"RANDOMIZED","cat":"PROTOCOL MILESTONE","scat":null,"dtc":"2024-04-07","dy":null,"visit":null,"epoch":"TREATMENT"},{"seq":"3","term":"ADVERSE EVENT","decod":"ADVERSE EVENT","cat":"DISPOSITION EVENT","scat":null,"dtc":"2025-03-06","dy":null,"visit":null,"epoch":"TREATMENT"}],"death":null},"section_13_hospitalizations":{"items":[{"seq":"1","term":"Convulsion","decod":"Convulsion","cat":"HOSPITALIZATION","start_dtc":"2024-04-08","end_dtc":"2024-04-11","epoch":"TREATMENT"},{"seq":"2","term":"Headache","decod":"Headache","cat":"HOSPITALIZATION","start_dtc":"2024-04-29","end_dtc":"2024-05-10","epoch":"TREATMENT"},{"seq":"3","term":"Nasal discomfort","decod":"Nasal discomfort","cat":"HOSPITALIZATION","start_dtc":"2024-07-27","end_dtc":"2024-08-03","epoch":"TREATMENT"},{"seq":"4","term":"Headache","decod":"Headache","cat":"HOSPITALIZATION","start_dtc":"2024-12-04","end_dtc":"2024-12-08","epoch":"TREATMENT"},{"seq":"5","term":"Rhinorrhoea","decod":"Rhinorrhoea","cat":"EMERGENCY ROOM VISIT","start_dtc":"2024-12-31","end_dtc":"2025-01-18","epoch":"TREATMENT"},{"seq":"6","term":"Lacrimation increased","decod":"Lacrimation increased","cat":"HOSPITALIZATION","start_dtc":"2025-02-01","end_dtc":"2025-02-16","epoch":"TREATMENT"}],"total":6},"section_14_substance_use":{"items":[{"seq":"1","substance":"BEER/WINE/SPIRITS","decod":"ETHANOL","cat":"ALCOHOL","scat":null,"usage":"N","dose":null,"dosu":null,"freq":null,"start_dtc":null,"end_dtc":null},{"seq":"2","substance":"COFFEE","decod":"COFFEE","cat":"CAFFEINE","scat":null,"usage":"Y","dose":"5.0","dosu":"CUPS/DAY","freq":"QD","start_dtc":"1994-04-01","end_dtc":null},{"seq":"3","substance":"CIGARETTES","decod":"CIGARETTES","cat":"TOBACCO","scat":null,"usage":"Y","dose":null,"dosu":null,"freq":null,"start_dtc":"1990-04-02","end_dtc":"1998-03-31"}],"total":3},"section_15_subject_status":{"items":[{"seq":"1","testcd":"SURVSTAT","test":"Survival Status","orres":"ALIVE","stresc":"ALIVE","dtc":"2025-03-06","visit":null,"epoch":"FOLLOW-UP"}],"total":1}}