{"subject_id":"P261-402-USL261-USA_SITE02-0015","study_id":"P261-402-USL261","generated_at":"2026-07-07T06:00:32.023872+00:00","sdtmig_version":"3.4","flags":{"has_serious_ae":true,"has_fatal_ae":false,"has_protocol_deviation":true,"n_protocol_deviations":1,"n_adverse_events":6,"n_concomitant_meds":2,"max_ae_severity":"SEVERE","screen_failure":false,"discontinued_early":true,"discontinuation_reason":"ADVERSE EVENT","death":false,"exposure_days":111},"timeline":[{"dtc":"2024-02-01","dy":"-27","event":"INFORMED CONSENT OBTAINED","domain":"DS","category":"milestone"},{"dtc":"2024-02-28","dy":"1","event":"RANDOMIZED","domain":"DS","category":"milestone"},{"dtc":"2024-02-28","dy":"1","event":"VISIT: ENROLLMENT","domain":"SV","category":"visit"},{"dtc":"2024-03-02","dy":"4","event":"AE: Fatigue (MODERATE)","domain":"AE","category":"adverse_event"},{"dtc":"2024-03-07","dy":"9","event":"AE: Dizziness (MODERATE)","domain":"AE","category":"adverse_event"},{"dtc":"2024-03-15","dy":"17","event":"FIRST DOSE: MIDAZOLAM","domain":"EX","category":"exposure"},{"dtc":"2024-05-23","dy":"86","event":"VISIT: VISIT 2","domain":"SV","category":"visit"},{"dtc":"2024-06-02","dy":"96","event":"DEVIATION: MISSED DOSE","domain":"DV","category":"deviation"},{"dtc":"2024-06-14","dy":"108","event":"AE: Dysgeusia (SEVERE) [SERIOUS]","domain":"AE","category":"adverse_event"},{"dtc":"2024-06-14","dy":"108","event":"CM START: PARACETAMOL","domain":"CM","category":"concomitant_med"},{"dtc":"2024-06-16","dy":"110","event":"AE: Nausea (MODERATE)","domain":"AE","category":"adverse_event"},{"dtc":"2024-06-25","dy":"119","event":"AE: Somnolence (MILD)","domain":"AE","category":"adverse_event"},{"dtc":"2024-07-04","dy":"128","event":"LAST DOSE: MIDAZOLAM","domain":"EX","category":"exposure"},{"dtc":"2024-07-20","dy":"144","event":"ADVERSE EVENT","domain":"DS","category":"milestone"},{"dtc":"2024-07-20","dy":"144","event":"AE: Dizziness (SEVERE) [SERIOUS]","domain":"AE","category":"adverse_event"},{"dtc":"2024-07-20","dy":"144","event":"CM START: MECLIZINE","domain":"CM","category":"concomitant_med"}],"section_1_demographics":{"usubjid":"P261-402-USL261-USA_SITE02-0015","subjid":"0015","siteid":"USA_SITE02","age":"33","ageu":"YEARS","sex":"M","race":"WHITE","ethnicity":"NOT HISPANIC OR LATINO","country":"USA","arm":"USL261 5 mg intranasal PRN per seizure cluster","armcd":"USL261","actarm":"USL261 5 mg intranasal PRN per seizure cluster","actarmcd":"USL261","randomization_date":null,"informed_consent_date":"2024-02-01","reference_start_date":"2024-02-28","reference_end_date":"2024-07-20","screen_failure":false,"death_flag":null,"death_date":null,"subject_characteristics":[{"testcd":"ALCUSE","test":"Alcohol Use","orres":"NON-DRINKER","stresc":"NON-DRINKER","visit":null,"dtc":"2024-02-01"},{"testcd":"BMI","test":"Body Mass Index","orres":"27.7","stresc":"27.7","visit":null,"dtc":"2024-02-01"},{"testcd":"DURDIS","test":"Duration of Disease","orres":"12 months","stresc":"12","visit":null,"dtc":"2024-02-01"},{"testcd":"TOBPKYR","test":"Tobacco Pack-Years","orres":"12","stresc":"12","visit":null,"dtc":"2024-02-01"},{"testcd":"TOBUSE","test":"Tobacco Use","orres":"FORMER SMOKER","stresc":"FORMER SMOKER","visit":null,"dtc":"2024-02-01"}]},"section_2_medical_history":{"items":[{"seq":"1","term":"HYPERTENSION","decod":"HYPERTENSION","cat":"CARDIOVASCULAR","scat":null,"presp":null,"occur":null,"status":null,"onset_dtc":"2023-02","end_dtc":"2023-12-10","visit":null}]},"section_3_inclusion_exclusion":{"criteria":[]},"section_4_trial_participation":{"visits":[{"visitnum":"1.0","visit":"ENROLLMENT","start_dtc":"2024-02-28","end_dtc":"2024-02-28","updes":null},{"visitnum":"2.0","visit":"VISIT 2","start_dtc":"2024-05-23","end_dtc":"2024-05-23","updes":null}],"epochs":[{"seq":"1","etcd":"SCRN","element":"Enrollment (post P261-401)","start_dtc":"2024-02-14","end_dtc":"2024-02-28","updes":null},{"seq":"2","etcd":"TRT","element":"Treatment (long-term)","start_dtc":"2024-02-28","end_dtc":"2024-07-20","updes":null}],"visit_count":2},"section_5_concomitant_medications":{"medications":[{"seq":"1","trt":"PARACETAMOL","decod":"PARACETAMOL","cat":"CONCOMITANT","dose":"500","doseu":null,"dosef":"PRN","route":"ORAL","indication":"DYSGEUSIA","start_dtc":"2024-06-14","end_dtc":"2024-06-29","ongoing":null,"visit":null},{"seq":"2","trt":"MECLIZINE","decod":"MECLIZINE","cat":"CONCOMITANT","dose":"25","doseu":null,"dosef":"PRN","route":"ORAL","indication":"DIZZINESS","start_dtc":"2024-07-20","end_dtc":"2024-07-20","ongoing":null,"visit":null}]},"section_6_exposure":{"exposure_as_administered":[{"seq":"1","trt":"MIDAZOLAM","dose":"5.0","doseu":null,"dosef":"PRN","route":"NASAL","lot":null,"start_dtc":"2024-03-15","end_dtc":"2024-03-15","start_dy":"17","end_dy":"17","epoch":"TREATMENT","visit":null},{"seq":"2","trt":"MIDAZOLAM","dose":"5.0","doseu":null,"dosef":"PRN","route":"NASAL","lot":null,"start_dtc":"2024-03-31","end_dtc":"2024-03-31","start_dy":"33","end_dy":"33","epoch":"TREATMENT","visit":null},{"seq":"3","trt":"MIDAZOLAM","dose":"5.0","doseu":null,"dosef":"PRN","route":"NASAL","lot":null,"start_dtc":"2024-04-16","end_dtc":"2024-04-16","start_dy":"49","end_dy":"49","epoch":"TREATMENT","visit":null},{"seq":"4","trt":"MIDAZOLAM","dose":"5.0","doseu":null,"dosef":"PRN","route":"NASAL","lot":null,"start_dtc":"2024-05-02","end_dtc":"2024-05-02","start_dy":"65","end_dy":"65","epoch":"TREATMENT","visit":null},{"seq":"5","trt":"MIDAZOLAM","dose":"5.0","doseu":null,"dosef":"PRN","route":"NASAL","lot":null,"start_dtc":"2024-05-17","end_dtc":"2024-05-17","start_dy":"80","end_dy":"80","epoch":"TREATMENT","visit":null},{"seq":"6","trt":"MIDAZOLAM","dose":"5.0","doseu":null,"dosef":"PRN","route":"NASAL","lot":null,"start_dtc":"2024-06-18","end_dtc":"2024-06-18","start_dy":"112","end_dy":"112","epoch":"TREATMENT","visit":null},{"seq":"7","trt":"MIDAZOLAM","dose":"5.0","doseu":null,"dosef":"PRN","route":"NASAL","lot":null,"start_dtc":"2024-07-04","end_dtc":"2024-07-04","start_dy":"128","end_dy":"128","epoch":"TREATMENT","visit":null}],"exposure_as_collected":[{"seq":"1","trt":"MIDAZOLAM","dose":"5.0","doseu":null,"dosef":"PRN","route":"NASAL","start_dtc":"2024-03-15","end_dtc":"2024-03-15","visit":null},{"seq":"2","trt":"MIDAZOLAM","dose":"5.0","doseu":null,"dosef":"PRN","route":"NASAL","start_dtc":"2024-03-31","end_dtc":"2024-03-31","visit":null},{"seq":"3","trt":"MIDAZOLAM","dose":"5.0","doseu":null,"dosef":"PRN","route":"NASAL","start_dtc":"2024-04-16","end_dtc":"2024-04-16","visit":null},{"seq":"4","trt":"MIDAZOLAM","dose":"5.0","doseu":null,"dosef":"PRN","route":"NASAL","start_dtc":"2024-05-02","end_dtc":"2024-05-02","visit":null},{"seq":"5","trt":"MIDAZOLAM","dose":"5.0","doseu":null,"dosef":"PRN","route":"NASAL","start_dtc":"2024-05-17","end_dtc":"2024-05-17","visit":null},{"seq":"6","trt":"MIDAZOLAM","dose":null,"doseu":null,"dosef":"PRN","route":"NASAL","start_dtc":"2024-06-02","end_dtc":"2024-06-02","visit":null},{"seq":"7","trt":"MIDAZOLAM","dose":"5.0","doseu":null,"dosef":"PRN","route":"NASAL","start_dtc":"2024-06-18","end_dtc":"2024-06-18","visit":null},{"seq":"8","trt":"MIDAZOLAM","dose":"5.0","doseu":null,"dosef":"PRN","route":"NASAL","start_dtc":"2024-07-04","end_dtc":"2024-07-04","visit":null}]},"section_7_adverse_events":{"summary":{"total_aes":6,"serious_aes":2,"fatal_aes":0,"by_severity":{"MODERATE":3,"SEVERE":2,"MILD":1},"by_soc":{"General disorders and administration site conditions":1,"Nervous system disorders":4,"Gastrointestinal disorders":1}},"events":[{"seq":"1","term":"FATIGUE","decod":"Fatigue","llt":"Fatigue","hlt":"Asthenic conditions","hlgt":"General system disorders NEC","soc":"General disorders and administration site conditions","bodsys":"General disorders and administration site conditions","severity":"MODERATE","serious":"N","causality":"NOT RELATED","action_taken":"DOSE NOT CHANGED","outcome":"RECOVERED/RESOLVED","fatal":"N","hospitalization":"N","life_threatening":"N","onset_dtc":"2024-03-02","end_dtc":"2024-03-30","onset_dy":"4","end_dy":"32","duration":null,"epoch":"TREATMENT","visit":null,"supplemental":{"AETRTEM":"Y"}},{"seq":"2","term":"DIZZINESS","decod":"Dizziness","llt":"Dizziness","hlt":"Dizziness and vertigo symptoms","hlgt":"Neurological signs and symptoms NEC","soc":"Nervous system disorders","bodsys":"Nervous system disorders","severity":"MODERATE","serious":"N","causality":"NOT RELATED","action_taken":"DOSE NOT CHANGED","outcome":"RECOVERED/RESOLVED","fatal":"N","hospitalization":"N","life_threatening":"N","onset_dtc":"2024-03-07","end_dtc":"2024-03-30","onset_dy":"9","end_dy":"32","duration":null,"epoch":"TREATMENT","visit":null,"supplemental":{"AETRTEM":"Y"}},{"seq":"3","term":"DYSGEUSIA","decod":"Dysgeusia","llt":"Dysgeusia","hlt":"Neurological signs and symptoms NEC","hlgt":"Neurological signs and symptoms NEC","soc":"Nervous system disorders","bodsys":"Nervous system disorders","severity":"SEVERE","serious":"Y","causality":"NOT RELATED","action_taken":"DOSE NOT CHANGED","outcome":"RECOVERED/RESOLVED","fatal":"N","hospitalization":"N","life_threatening":"N","onset_dtc":"2024-06-14","end_dtc":"2024-06-26","onset_dy":"108","end_dy":"120","duration":null,"epoch":"TREATMENT","visit":null,"supplemental":{"AETRTEM":"Y"}},{"seq":"4","term":"NAUSEA","decod":"Nausea","llt":"Nausea","hlt":"Nausea and vomiting symptoms","hlgt":"Gastrointestinal signs and symptoms","soc":"Gastrointestinal disorders","bodsys":"Gastrointestinal disorders","severity":"MODERATE","serious":"N","causality":"NOT RELATED","action_taken":"DOSE NOT CHANGED","outcome":"RECOVERED/RESOLVED","fatal":"N","hospitalization":"N","life_threatening":"N","onset_dtc":"2024-06-16","end_dtc":"2024-06-17","onset_dy":"110","end_dy":"111","duration":null,"epoch":"TREATMENT","visit":null,"supplemental":{"AETRTEM":"Y"}},{"seq":"5","term":"SOMNOLENCE","decod":"Somnolence","llt":"Somnolence","hlt":"Disturbances in consciousness NEC","hlgt":"Neurological signs and symptoms NEC","soc":"Nervous system disorders","bodsys":"Nervous system disorders","severity":"MILD","serious":"N","causality":"RELATED","action_taken":"DOSE NOT CHANGED","outcome":"RECOVERED/RESOLVED","fatal":"N","hospitalization":"N","life_threatening":"N","onset_dtc":"2024-06-25","end_dtc":"2024-06-29","onset_dy":"119","end_dy":"123","duration":null,"epoch":"TREATMENT","visit":null,"supplemental":{"AETRTEM":"Y"}},{"seq":"6","term":"DIZZINESS","decod":"Dizziness","llt":"Dizziness","hlt":"Dizziness and vertigo symptoms","hlgt":"Neurological signs and symptoms NEC","soc":"Nervous system disorders","bodsys":"Nervous system disorders","severity":"SEVERE","serious":"Y","causality":"NOT RELATED","action_taken":"DOSE NOT CHANGED","outcome":"RECOVERED/RESOLVED","fatal":"N","hospitalization":"Y","life_threatening":"N","onset_dtc":"2024-07-20","end_dtc":"2024-07-20","onset_dy":"144","end_dy":"144","duration":null,"epoch":"TREATMENT","visit":null,"supplemental":{"AETRTEM":"Y"}}]},"section_8_laboratory_results":{"summary":{"total_records":14,"abnormal_count":0,"abnormal_pct":0.0},"shift_summary":[{"testcd":"ALT","baseline_value":26.38,"baseline_nrind":"NORMAL","worst_post_baseline_value":29.14,"worst_post_baseline_nrind":"NORMAL","worst_visit":"VISIT 2"},{"testcd":"AST","baseline_value":27.43,"baseline_nrind":"NORMAL","worst_post_baseline_value":26.85,"worst_post_baseline_nrind":"NORMAL","worst_visit":"VISIT 2"},{"testcd":"CREAT","baseline_value":72.29,"baseline_nrind":"NORMAL","worst_post_baseline_value":75.26,"worst_post_baseline_nrind":"NORMAL","worst_visit":"VISIT 2"},{"testcd":"GLUC","baseline_value":3.92,"baseline_nrind":"NORMAL","worst_post_baseline_value":4.04,"worst_post_baseline_nrind":"NORMAL","worst_visit":"VISIT 2"},{"testcd":"HGB","baseline_value":141.79,"baseline_nrind":"NORMAL","worst_post_baseline_value":142.88,"worst_post_baseline_nrind":"NORMAL","worst_visit":"VISIT 2"},{"testcd":"PLAT","baseline_value":279.66,"baseline_nrind":"NORMAL","worst_post_baseline_value":279.66,"worst_post_baseline_nrind":"NORMAL","worst_visit":"VISIT 2"},{"testcd":"WBC","baseline_value":8.61,"baseline_nrind":"NORMAL","worst_post_baseline_value":8.46,"worst_post_baseline_nrind":"NORMAL","worst_visit":"VISIT 2"}],"results":[{"seq":"1","testcd":"ALT","test":"Alanine Aminotransferase","cat":"CHEMISTRY","orres":"26.38","orresu":"U/L","stresc":"26.38","stresn":"26.38","stresu":"U/L","stnrlo":"7","stnrhi":"56","nrind":"NORMAL","fast":null,"dtc":"2024-02-28","dy":"1","visit":"ENROLLMENT","visitnum":"1.0","epoch":"SCREENING","spec":null,"method":null},{"seq":"2","testcd":"AST","test":"Aspartate Aminotransferase","cat":"CHEMISTRY","orres":"27.43","orresu":"U/L","stresc":"27.43","stresn":"27.43","stresu":"U/L","stnrlo":"10","stnrhi":"40","nrind":"NORMAL","fast":null,"dtc":"2024-02-28","dy":"1","visit":"ENROLLMENT","visitnum":"1.0","epoch":"SCREENING","spec":null,"method":null},{"seq":"3","testcd":"CREAT","test":"Creatinine","cat":"CHEMISTRY","orres":"72.29","orresu":"umol/L","stresc":"72.29","stresn":"72.29","stresu":"umol/L","stnrlo":"62","stnrhi":"106","nrind":"NORMAL","fast":null,"dtc":"2024-02-28","dy":"1","visit":"ENROLLMENT","visitnum":"1.0","epoch":"SCREENING","spec":null,"method":null},{"seq":"4","testcd":"GLUC","test":"Glucose","cat":"CHEMISTRY","orres":"3.92","orresu":"mmol/L","stresc":"3.92","stresn":"3.92","stresu":"mmol/L","stnrlo":"3.9","stnrhi":"5.6","nrind":"NORMAL","fast":null,"dtc":"2024-02-28","dy":"1","visit":"ENROLLMENT","visitnum":"1.0","epoch":"SCREENING","spec":null,"method":null},{"seq":"5","testcd":"HGB","test":"Hemoglobin","cat":"HEMATOLOGY","orres":"141.79","orresu":"g/L","stresc":"141.79","stresn":"141.79","stresu":"g/L","stnrlo":"130","stnrhi":"175","nrind":"NORMAL","fast":null,"dtc":"2024-02-28","dy":"1","visit":"ENROLLMENT","visitnum":"1.0","epoch":"SCREENING","spec":null,"method":null},{"seq":"6","testcd":"PLAT","test":"Platelets","cat":"HEMATOLOGY","orres":null,"orresu":null,"stresc":null,"stresn":null,"stresu":null,"stnrlo":null,"stnrhi":null,"nrind":null,"fast":null,"dtc":"2024-02-28","dy":"1","visit":"ENROLLMENT","visitnum":"1.0","epoch":"SCREENING","spec":null,"method":null},{"seq":"7","testcd":"WBC","test":"Leukocytes","cat":"HEMATOLOGY","orres":"8.61","orresu":"10^9/L","stresc":"8.61","stresn":"8.61","stresu":"10^9/L","stnrlo":"4.0","stnrhi":"11.0","nrind":"NORMAL","fast":null,"dtc":"2024-02-28","dy":"1","visit":"ENROLLMENT","visitnum":"1.0","epoch":"SCREENING","spec":null,"method":null},{"seq":"8","testcd":"ALT","test":"Alanine Aminotransferase","cat":"CHEMISTRY","orres":"29.14","orresu":"U/L","stresc":"29.14","stresn":"29.14","stresu":"U/L","stnrlo":"7","stnrhi":"56","nrind":"NORMAL","fast":null,"dtc":"2024-05-23","dy":"86","visit":"VISIT 2","visitnum":"2.0","epoch":"TREATMENT","spec":null,"method":null},{"seq":"9","testcd":"AST","test":"Aspartate Aminotransferase","cat":"CHEMISTRY","orres":"26.85","orresu":"U/L","stresc":"26.85","stresn":"26.85","stresu":"U/L","stnrlo":"10","stnrhi":"40","nrind":"NORMAL","fast":null,"dtc":"2024-05-23","dy":"86","visit":"VISIT 2","visitnum":"2.0","epoch":"TREATMENT","spec":null,"method":null},{"seq":"10","testcd":"CREAT","test":"Creatinine","cat":"CHEMISTRY","orres":"75.26","orresu":"umol/L","stresc":"75.26","stresn":"75.26","stresu":"umol/L","stnrlo":"62","stnrhi":"106","nrind":"NORMAL","fast":null,"dtc":"2024-05-23","dy":"86","visit":"VISIT 2","visitnum":"2.0","epoch":"TREATMENT","spec":null,"method":null},{"seq":"11","testcd":"GLUC","test":"Glucose","cat":"CHEMISTRY","orres":"4.04","orresu":"mmol/L","stresc":"4.04","stresn":"4.04","stresu":"mmol/L","stnrlo":"3.9","stnrhi":"5.6","nrind":"NORMAL","fast":null,"dtc":"2024-05-23","dy":"86","visit":"VISIT 2","visitnum":"2.0","epoch":"TREATMENT","spec":null,"method":null},{"seq":"12","testcd":"HGB","test":"Hemoglobin","cat":"HEMATOLOGY","orres":"142.88","orresu":"g/L","stresc":"142.88","stresn":"142.88","stresu":"g/L","stnrlo":"130","stnrhi":"175","nrind":"NORMAL","fast":null,"dtc":"2024-05-23","dy":"86","visit":"VISIT 2","visitnum":"2.0","epoch":"TREATMENT","spec":null,"method":null},{"seq":"13","testcd":"PLAT","test":"Platelets","cat":"HEMATOLOGY","orres":"279.66","orresu":"10^9/L","stresc":"279.66","stresn":"279.66","stresu":"10^9/L","stnrlo":"150","stnrhi":"400","nrind":"NORMAL","fast":null,"dtc":"2024-05-23","dy":"86","visit":"VISIT 2","visitnum":"2.0","epoch":"TREATMENT","spec":null,"method":null},{"seq":"14","testcd":"WBC","test":"Leukocytes","cat":"HEMATOLOGY","orres":"8.46","orresu":"10^9/L","stresc":"8.46","stresn":"8.46","stresu":"10^9/L","stnrlo":"4.0","stnrhi":"11.0","nrind":"NORMAL","fast":null,"dtc":"2024-05-23","dy":"86","visit":"VISIT 2","visitnum":"2.0","epoch":"TREATMENT","spec":null,"method":null}]},"section_9_vital_signs":{"summary":{"total_records":16},"trends":{"BMI":[{"visit":"ENROLLMENT","visitnum":"1.0","dtc":"2024-02-28","value":"27.7","unit":"kg/m2"},{"visit":"VISIT 2","visitnum":"2.0","dtc":"2024-05-23","value":"28.9","unit":"kg/m2"}],"DIABP":[{"visit":"ENROLLMENT","visitnum":"1.0","dtc":"2024-02-28","value":"65.4","unit":"mmHg"},{"visit":"VISIT 2","visitnum":"2.0","dtc":"2024-05-23","value":"65.6","unit":"mmHg"}],"HEIGHT":[{"visit":"ENROLLMENT","visitnum":"1.0","dtc":"2024-02-28","value":"152.9","unit":"cm"},{"visit":"VISIT 2","visitnum":"2.0","dtc":"2024-05-23","value":"153.1","unit":"cm"}],"PULSE":[{"visit":"ENROLLMENT","visitnum":"1.0","dtc":"2024-02-28","value":"90.2","unit":"beats/min"},{"visit":"VISIT 2","visitnum":"2.0","dtc":"2024-05-23","value":"89.7","unit":"beats/min"}],"RESP":[{"visit":"ENROLLMENT","visitnum":"1.0","dtc":"2024-02-28","value":"12.0","unit":"breaths/min"},{"visit":"VISIT 2","visitnum":"2.0","dtc":"2024-05-23","value":"12.8","unit":"breaths/min"}],"SYSBP":[{"visit":"ENROLLMENT","visitnum":"1.0","dtc":"2024-02-28","value":"99.1","unit":"mmHg"},{"visit":"VISIT 2","visitnum":"2.0","dtc":"2024-05-23","value":"98.1","unit":"mmHg"}],"TEMP":[{"visit":"ENROLLMENT","visitnum":"1.0","dtc":"2024-02-28","value":"36.9","unit":"C"},{"visit":"VISIT 2","visitnum":"2.0","dtc":"2024-05-23","value":"36.7","unit":"C"}],"WEIGHT":[{"visit":"ENROLLMENT","visitnum":"1.0","dtc":"2024-02-28","value":"64.7","unit":"kg"},{"visit":"VISIT 2","visitnum":"2.0","dtc":"2024-05-23","value":"67.8","unit":"kg"}]},"results":[{"seq":"1","testcd":"BMI","test":"BMI","cat":null,"orres":null,"orresu":null,"stresc":"27.7","stresn":"27.7","stresu":"kg/m2","stnrlo":null,"stnrhi":null,"nrind":null,"pos":null,"loc":null,"dtc":"2024-02-28","dy":"1","visit":"ENROLLMENT","visitnum":"1.0","epoch":"SCREENING"},{"seq":"2","testcd":"DIABP","test":"Diastolic Blood Pressure","cat":null,"orres":"65.4","orresu":"mmHg","stresc":"65.4","stresn":"65.4","stresu":"mmHg","stnrlo":null,"stnrhi":null,"nrind":null,"pos":null,"loc":null,"dtc":"2024-02-28","dy":"1","visit":"ENROLLMENT","visitnum":"1.0","epoch":"SCREENING"},{"seq":"3","testcd":"HEIGHT","test":"Height","cat":null,"orres":"152.9","orresu":"cm","stresc":"152.9","stresn":"152.9","stresu":"cm","stnrlo":null,"stnrhi":null,"nrind":null,"pos":null,"loc":null,"dtc":"2024-02-28","dy":"1","visit":"ENROLLMENT","visitnum":"1.0","epoch":"SCREENING"},{"seq":"4","testcd":"PULSE","test":"Pulse Rate","cat":null,"orres":"90.2","orresu":"beats/min","stresc":"90.2","stresn":"90.2","stresu":"beats/min","stnrlo":null,"stnrhi":null,"nrind":null,"pos":null,"loc":null,"dtc":"2024-02-28","dy":"1","visit":"ENROLLMENT","visitnum":"1.0","epoch":"SCREENING"},{"seq":"5","testcd":"RESP","test":"Respiratory Rate","cat":null,"orres":"12.0","orresu":"breaths/min","stresc":"12.0","stresn":"12.0","stresu":"breaths/min","stnrlo":null,"stnrhi":null,"nrind":null,"pos":null,"loc":null,"dtc":"2024-02-28","dy":"1","visit":"ENROLLMENT","visitnum":"1.0","epoch":"SCREENING"},{"seq":"6","testcd":"SYSBP","test":"Systolic Blood Pressure","cat":null,"orres":"99.1","orresu":"mmHg","stresc":"99.1","stresn":"99.1","stresu":"mmHg","stnrlo":null,"stnrhi":null,"nrind":null,"pos":null,"loc":null,"dtc":"2024-02-28","dy":"1","visit":"ENROLLMENT","visitnum":"1.0","epoch":"SCREENING"},{"seq":"7","testcd":"TEMP","test":"Temperature","cat":null,"orres":"36.9","orresu":"C","stresc":"36.9","stresn":"36.9","stresu":"C","stnrlo":null,"stnrhi":null,"nrind":null,"pos":null,"loc":null,"dtc":"2024-02-28","dy":"1","visit":"ENROLLMENT","visitnum":"1.0","epoch":"SCREENING"},{"seq":"8","testcd":"WEIGHT","test":"Weight","cat":null,"orres":"64.7","orresu":"kg","stresc":"64.7","stresn":"64.7","stresu":"kg","stnrlo":null,"stnrhi":null,"nrind":null,"pos":null,"loc":null,"dtc":"2024-02-28","dy":"1","visit":"ENROLLMENT","visitnum":"1.0","epoch":"SCREENING"},{"seq":"9","testcd":"BMI","test":"BMI","cat":null,"orres":null,"orresu":null,"stresc":"28.9","stresn":"28.9","stresu":"kg/m2","stnrlo":null,"stnrhi":null,"nrind":null,"pos":null,"loc":null,"dtc":"2024-05-23","dy":"86","visit":"VISIT 2","visitnum":"2.0","epoch":"TREATMENT"},{"seq":"10","testcd":"DIABP","test":"Diastolic Blood Pressure","cat":null,"orres":"65.6","orresu":"mmHg","stresc":"65.6","stresn":"65.6","stresu":"mmHg","stnrlo":null,"stnrhi":null,"nrind":null,"pos":null,"loc":null,"dtc":"2024-05-23","dy":"86","visit":"VISIT 2","visitnum":"2.0","epoch":"TREATMENT"},{"seq":"11","testcd":"HEIGHT","test":"Height","cat":null,"orres":"153.1","orresu":"cm","stresc":"153.1","stresn":"153.1","stresu":"cm","stnrlo":null,"stnrhi":null,"nrind":null,"pos":null,"loc":null,"dtc":"2024-05-23","dy":"86","visit":"VISIT 2","visitnum":"2.0","epoch":"TREATMENT"},{"seq":"12","testcd":"PULSE","test":"Pulse Rate","cat":null,"orres":"89.7","orresu":"beats/min","stresc":"89.7","stresn":"89.7","stresu":"beats/min","stnrlo":null,"stnrhi":null,"nrind":null,"pos":null,"loc":null,"dtc":"2024-05-23","dy":"86","visit":"VISIT 2","visitnum":"2.0","epoch":"TREATMENT"},{"seq":"13","testcd":"RESP","test":"Respiratory Rate","cat":null,"orres":"12.8","orresu":"breaths/min","stresc":"12.8","stresn":"12.8","stresu":"breaths/min","stnrlo":null,"stnrhi":null,"nrind":null,"pos":null,"loc":null,"dtc":"2024-05-23","dy":"86","visit":"VISIT 2","visitnum":"2.0","epoch":"TREATMENT"},{"seq":"14","testcd":"SYSBP","test":"Systolic Blood Pressure","cat":null,"orres":"98.1","orresu":"mmHg","stresc":"98.1","stresn":"98.1","stresu":"mmHg","stnrlo":null,"stnrhi":null,"nrind":null,"pos":null,"loc":null,"dtc":"2024-05-23","dy":"86","visit":"VISIT 2","visitnum":"2.0","epoch":"TREATMENT"},{"seq":"15","testcd":"TEMP","test":"Temperature","cat":null,"orres":"36.7","orresu":"C","stresc":"36.7","stresn":"36.7","stresu":"C","stnrlo":null,"stnrhi":null,"nrind":null,"pos":null,"loc":null,"dtc":"2024-05-23","dy":"86","visit":"VISIT 2","visitnum":"2.0","epoch":"TREATMENT"},{"seq":"16","testcd":"WEIGHT","test":"Weight","cat":null,"orres":"67.8","orresu":"kg","stresc":"67.8","stresn":"67.8","stresu":"kg","stnrlo":null,"stnrhi":null,"nrind":null,"pos":null,"loc":null,"dtc":"2024-05-23","dy":"86","visit":"VISIT 2","visitnum":"2.0","epoch":"TREATMENT"}]},"section_10_questionnaires_and_scores":{"questionnaires":[],"findings_about":[]},"section_11_protocol_deviations":{"deviations":[{"seq":"1","term":"Missed MIDAZOLAM dose on 2024-06-02","decod":"MISSED DOSE","cat":"MINOR","scat":"DOSING","start_dtc":"2024-06-02","end_dtc":null,"visit":null}],"total":1},"section_12_disposition":{"completion_status":"INFORMED CONSENT OBTAINED","disposition_records":[{"seq":"1","term":"INFORMED CONSENT OBTAINED","decod":"INFORMED CONSENT OBTAINED","cat":"PROTOCOL MILESTONE","scat":null,"dtc":"2024-02-01","dy":null,"visit":null,"epoch":"SCREENING"},{"seq":"2","term":"RANDOMIZED","decod":"RANDOMIZED","cat":"PROTOCOL MILESTONE","scat":null,"dtc":"2024-02-28","dy":null,"visit":null,"epoch":"TREATMENT"},{"seq":"3","term":"ADVERSE EVENT","decod":"ADVERSE EVENT","cat":"DISPOSITION EVENT","scat":null,"dtc":"2024-07-20","dy":null,"visit":null,"epoch":"TREATMENT"}],"death":null},"section_13_hospitalizations":{"items":[{"seq":"1","term":"Dizziness","decod":"Dizziness","cat":"EMERGENCY ROOM VISIT","start_dtc":"2024-07-20","end_dtc":"2024-07-20","epoch":"TREATMENT"}],"total":1},"section_14_substance_use":{"items":[{"seq":"1","substance":"BEER/WINE/SPIRITS","decod":"ETHANOL","cat":"ALCOHOL","scat":null,"usage":"Y","dose":"7.0","dosu":"DRINKS/WEEK","freq":"QW","start_dtc":"2005-02-05","end_dtc":null},{"seq":"2","substance":"COFFEE","decod":"COFFEE","cat":"CAFFEINE","scat":null,"usage":"Y","dose":null,"dosu":null,"freq":null,"start_dtc":"1998-02-07","end_dtc":"2008-02-05"},{"seq":"3","substance":"CIGARETTES","decod":"CIGARETTES","cat":"TOBACCO","scat":null,"usage":"Y","dose":null,"dosu":null,"freq":null,"start_dtc":"2015-02-03","end_dtc":"2019-02-02"}],"total":3},"section_15_subject_status":{"items":[{"seq":"1","testcd":"SURVSTAT","test":"Survival Status","orres":"ALIVE","stresc":"ALIVE","dtc":"2024-07-20","visit":null,"epoch":"FOLLOW-UP"}],"total":1}}