{
  "generator_version": "2.0",
  "sdtmig_version": "3.4",
  "generated_at": "2026-07-07T05:52:39.813030+00:00",
  "study_id": "BI-1245.110",
  "protocol_name": "cardiovascular_hfpef",
  "seed": 1,
  "subjects": {
    "total_generated": 20,
    "enrolled": 18,
    "screen_failures": 2,
    "completed": 11,
    "deaths": 2,
    "total_adverse_events": 602
  },
  "arms": [
    {
      "armcd": "EMPA10",
      "arm": "Empagliflozin 10 mg QD",
      "type": "",
      "n_randomized": 8,
      "n_completed": 4,
      "n_discontinued": 4,
      "discontinuation_reasons": {
        "ADVERSE EVENT": 3,
        "DEATH": 1
      },
      "mean_exposure_days": 441.4,
      "total_aes": 300,
      "ae_rate_per_subject": 37.5,
      "subjects_with_ae": 8,
      "serious_ae_count": 67
    },
    {
      "armcd": "PLACEBO",
      "arm": "Matching placebo QD",
      "type": "",
      "n_randomized": 10,
      "n_completed": 7,
      "n_discontinued": 3,
      "discontinuation_reasons": {
        "DEATH": 1,
        "PHYSICIAN DECISION": 1,
        "ADVERSE EVENT": 1
      },
      "mean_exposure_days": 418.2,
      "total_aes": 302,
      "ae_rate_per_subject": 30.2,
      "subjects_with_ae": 10,
      "serious_ae_count": 54
    }
  ],
  "sites": [
    {
      "siteid": "ARG_SITE01",
      "n_subjects": 1,
      "n_enrolled": 1,
      "n_screen_failures": 0,
      "country": "ARG",
      "investigator": "Dr. Investigator ARG_SITE01",
      "n_completed": 1,
      "n_deaths": 0
    },
    {
      "siteid": "BRA_SITE01",
      "n_subjects": 2,
      "n_enrolled": 2,
      "n_screen_failures": 0,
      "country": "BRA",
      "investigator": "Dr. Investigator BRA_SITE01",
      "n_completed": 2,
      "n_deaths": 0
    },
    {
      "siteid": "CAN_SITE01",
      "n_subjects": 2,
      "n_enrolled": 2,
      "n_screen_failures": 0,
      "country": "CAN",
      "investigator": "Dr. Investigator CAN_SITE01",
      "n_completed": 0,
      "n_deaths": 0
    },
    {
      "siteid": "GBR_SITE01",
      "n_subjects": 1,
      "n_enrolled": 0,
      "n_screen_failures": 1,
      "country": "GBR",
      "investigator": "Dr. Investigator GBR_SITE01",
      "n_completed": 0,
      "n_deaths": 0
    },
    {
      "siteid": "JPN_SITE01",
      "n_subjects": 2,
      "n_enrolled": 2,
      "n_screen_failures": 0,
      "country": "JPN",
      "investigator": "Dr. Investigator JPN_SITE01",
      "n_completed": 1,
      "n_deaths": 1
    },
    {
      "siteid": "JPN_SITE02",
      "n_subjects": 2,
      "n_enrolled": 2,
      "n_screen_failures": 0,
      "country": "JPN",
      "investigator": "Dr. Investigator JPN_SITE02",
      "n_completed": 2,
      "n_deaths": 0
    },
    {
      "siteid": "KOR_SITE01",
      "n_subjects": 1,
      "n_enrolled": 1,
      "n_screen_failures": 0,
      "country": "KOR",
      "investigator": "Dr. Investigator KOR_SITE01",
      "n_completed": 0,
      "n_deaths": 0
    },
    {
      "siteid": "MEX_SITE01",
      "n_subjects": 2,
      "n_enrolled": 2,
      "n_screen_failures": 0,
      "country": "MEX",
      "investigator": "Dr. Investigator MEX_SITE01",
      "n_completed": 1,
      "n_deaths": 1
    },
    {
      "siteid": "POL_SITE01",
      "n_subjects": 2,
      "n_enrolled": 2,
      "n_screen_failures": 0,
      "country": "POL",
      "investigator": "Dr. Investigator POL_SITE01",
      "n_completed": 2,
      "n_deaths": 0
    },
    {
      "siteid": "RUS_SITE01",
      "n_subjects": 1,
      "n_enrolled": 1,
      "n_screen_failures": 0,
      "country": "RUS",
      "investigator": "Dr. Investigator RUS_SITE01",
      "n_completed": 1,
      "n_deaths": 0
    },
    {
      "siteid": "USA_SITE01",
      "n_subjects": 3,
      "n_enrolled": 2,
      "n_screen_failures": 1,
      "country": "USA",
      "investigator": "Dr. Investigator USA_SITE01",
      "n_completed": 1,
      "n_deaths": 0
    },
    {
      "siteid": "USA_SITE02",
      "n_subjects": 1,
      "n_enrolled": 1,
      "n_screen_failures": 0,
      "country": "USA",
      "investigator": "Dr. Investigator USA_SITE02",
      "n_completed": 0,
      "n_deaths": 0
    }
  ],
  "domains": {
    "AE": {
      "record_count": 602,
      "variable_count": 36,
      "file": "ae.csv",
      "variables": [
        "STUDYID",
        "DOMAIN",
        "USUBJID",
        "AESEQ",
        "AELNKID",
        "AETERM",
        "AELLT",
        "AELLTCD",
        "AEDECOD",
        "AEPTCD",
        "AEHLT",
        "AEHLTCD",
        "AEHLGT",
        "AEHLGTCD",
        "AEBODSYS",
        "AEBDSYCD",
        "AESOC",
        "AESOCCD",
        "AESEV",
        "AESER",
        "AEACN",
        "AEREL",
        "AEOUT",
        "AESCONG",
        "AESDISAB",
        "AESDTH",
        "AESHOSP",
        "AESLIFE",
        "AESMIE",
        "AECONTRT",
        "EPOCH",
        "AESTDTC",
        "AEENDTC",
        "AESTDY",
        "AEENDY",
        "AEENRF"
      ]
    },
    "CM": {
      "record_count": 289,
      "variable_count": 17,
      "file": "cm.csv",
      "variables": [
        "STUDYID",
        "DOMAIN",
        "USUBJID",
        "CMSEQ",
        "CMTRT",
        "CMDECOD",
        "CMCAT",
        "CMINDC",
        "CMDOSE",
        "CMDOSU",
        "CMDOSFRQ",
        "CMROUTE",
        "EPOCH",
        "CMSTDTC",
        "CMENDTC",
        "CMSTDY",
        "CMENDY"
      ]
    },
    "CO": {
      "record_count": 2,
      "variable_count": 11,
      "file": "co.csv",
      "variables": [
        "STUDYID",
        "DOMAIN",
        "RDOMAIN",
        "USUBJID",
        "COSEQ",
        "IDVAR",
        "IDVARVAL",
        "COREF",
        "COVAL",
        "CODTC",
        "CODY"
      ]
    },
    "DA": {
      "record_count": 23262,
      "variable_count": 16,
      "file": "da.csv",
      "variables": [
        "STUDYID",
        "DOMAIN",
        "USUBJID",
        "DASEQ",
        "DATESTCD",
        "DATEST",
        "DAORRES",
        "DAORRESU",
        "DASTRESC",
        "DASTRESN",
        "DASTRESU",
        "VISITNUM",
        "VISIT",
        "EPOCH",
        "DADTC",
        "DADY"
      ]
    },
    "DD": {
      "record_count": 6,
      "variable_count": 9,
      "file": "dd.csv",
      "variables": [
        "STUDYID",
        "DOMAIN",
        "USUBJID",
        "DDSEQ",
        "DDTESTCD",
        "DDTEST",
        "DDORRES",
        "DDSTRESC",
        "DDDTC"
      ]
    },
    "DM": {
      "record_count": 20,
      "variable_count": 27,
      "file": "dm.csv",
      "variables": [
        "STUDYID",
        "DOMAIN",
        "USUBJID",
        "SUBJID",
        "RFSTDTC",
        "RFENDTC",
        "RFXSTDTC",
        "RFXENDTC",
        "RFICDTC",
        "RFPENDTC",
        "DTHDTC",
        "DTHFL",
        "SITEID",
        "INVNAM",
        "BRTHDTC",
        "AGE",
        "AGEU",
        "SEX",
        "RACE",
        "ETHNIC",
        "ARMCD",
        "ARM",
        "ACTARMCD",
        "ACTARM",
        "ARMNRS",
        "ACTARMUD",
        "COUNTRY"
      ]
    },
    "DS": {
      "record_count": 58,
      "variable_count": 10,
      "file": "ds.csv",
      "variables": [
        "STUDYID",
        "DOMAIN",
        "USUBJID",
        "DSSEQ",
        "DSTERM",
        "DSDECOD",
        "DSCAT",
        "EPOCH",
        "DSSTDTC",
        "DSSTDY"
      ]
    },
    "DV": {
      "record_count": 568,
      "variable_count": 11,
      "file": "dv.csv",
      "variables": [
        "STUDYID",
        "DOMAIN",
        "USUBJID",
        "DVSEQ",
        "DVTERM",
        "DVDECOD",
        "DVCAT",
        "DVSCAT",
        "EPOCH",
        "DVSTDTC",
        "DVSTDY"
      ]
    },
    "EC": {
      "record_count": 7754,
      "variable_count": 23,
      "file": "ec.csv",
      "variables": [
        "STUDYID",
        "DOMAIN",
        "USUBJID",
        "ECSEQ",
        "ECTRT",
        "ECMOOD",
        "ECPRESP",
        "ECOCCUR",
        "ECSTAT",
        "ECREASND",
        "ECDOSE",
        "ECDOSTXT",
        "ECDOSU",
        "ECDOSFRM",
        "ECDOSFRQ",
        "ECROUTE",
        "VISITNUM",
        "VISIT",
        "EPOCH",
        "ECSTDTC",
        "ECENDTC",
        "ECSTDY",
        "ECENDY"
      ]
    },
    "EG": {
      "record_count": 640,
      "variable_count": 25,
      "file": "eg.csv",
      "variables": [
        "STUDYID",
        "DOMAIN",
        "USUBJID",
        "EGSEQ",
        "EGTESTCD",
        "EGTEST",
        "EGORRES",
        "EGORRESU",
        "EGSTRESC",
        "EGSTRESN",
        "EGSTRESU",
        "EGNRIND",
        "EGSTAT",
        "EGLOBXFL",
        "EGBLFL",
        "VISITNUM",
        "VISIT",
        "EPOCH",
        "EGDTC",
        "EGDY",
        "EGTPT",
        "EGTPTNUM",
        "EGELTM",
        "EGTPTREF",
        "EGRFTDTC"
      ]
    },
    "EX": {
      "record_count": 48,
      "variable_count": 15,
      "file": "ex.csv",
      "variables": [
        "STUDYID",
        "DOMAIN",
        "USUBJID",
        "EXSEQ",
        "EXTRT",
        "EXDOSE",
        "EXDOSU",
        "EXDOSFRM",
        "EXDOSFRQ",
        "EXROUTE",
        "EPOCH",
        "EXSTDTC",
        "EXENDTC",
        "EXSTDY",
        "EXENDY"
      ]
    },
    "HO": {
      "record_count": 89,
      "variable_count": 12,
      "file": "ho.csv",
      "variables": [
        "STUDYID",
        "DOMAIN",
        "USUBJID",
        "HOSEQ",
        "HOTERM",
        "HODECOD",
        "HOCAT",
        "EPOCH",
        "HOSTDTC",
        "HOENDTC",
        "HOSTDY",
        "HOENDY"
      ]
    },
    "IE": {
      "record_count": 2,
      "variable_count": 14,
      "file": "ie.csv",
      "variables": [
        "STUDYID",
        "DOMAIN",
        "USUBJID",
        "IESEQ",
        "IETESTCD",
        "IETEST",
        "IECAT",
        "IEORRES",
        "IESTRESC",
        "VISITNUM",
        "VISIT",
        "EPOCH",
        "IEDTC",
        "IEDY"
      ]
    },
    "LB": {
      "record_count": 868,
      "variable_count": 26,
      "file": "lb.csv",
      "variables": [
        "STUDYID",
        "DOMAIN",
        "USUBJID",
        "LBSEQ",
        "LBTESTCD",
        "LBTEST",
        "LBCAT",
        "LBORRES",
        "LBORRESU",
        "LBORNRLO",
        "LBORNRHI",
        "LBSTRESC",
        "LBSTRESN",
        "LBSTRESU",
        "LBSTNRLO",
        "LBSTNRHI",
        "LBNRIND",
        "LBSTAT",
        "LBLOBXFL",
        "LBBLFL",
        "LBTOXGR",
        "VISITNUM",
        "VISIT",
        "EPOCH",
        "LBDTC",
        "LBDY"
      ]
    },
    "MH": {
      "record_count": 78,
      "variable_count": 15,
      "file": "mh.csv",
      "variables": [
        "STUDYID",
        "DOMAIN",
        "USUBJID",
        "MHSEQ",
        "MHTERM",
        "MHDECOD",
        "MHCAT",
        "MHSCAT",
        "MHBODSYS",
        "EPOCH",
        "MHSTDTC",
        "MHENDTC",
        "MHSTDY",
        "MHENDY",
        "MHENRF"
      ]
    },
    "PC": {
      "record_count": 72,
      "variable_count": 22,
      "file": "pc.csv",
      "variables": [
        "STUDYID",
        "DOMAIN",
        "USUBJID",
        "PCSEQ",
        "PCTESTCD",
        "PCTEST",
        "PCORRES",
        "PCORRESU",
        "PCSTRESC",
        "PCSTRESN",
        "PCSTRESU",
        "PCNAM",
        "PCSPEC",
        "PCLLOQ",
        "VISITNUM",
        "PCDTC",
        "PCDY",
        "PCTPT",
        "PCTPTNUM",
        "PCELTM",
        "PCTPTREF",
        "PCRFTDTC"
      ]
    },
    "PE": {
      "record_count": 360,
      "variable_count": 13,
      "file": "pe.csv",
      "variables": [
        "STUDYID",
        "DOMAIN",
        "USUBJID",
        "PESEQ",
        "PETESTCD",
        "PETEST",
        "PEORRES",
        "PESTRESC",
        "VISITNUM",
        "VISIT",
        "EPOCH",
        "PEDTC",
        "PEDY"
      ]
    },
    "PP": {
      "record_count": 32,
      "variable_count": 14,
      "file": "pp.csv",
      "variables": [
        "STUDYID",
        "DOMAIN",
        "USUBJID",
        "PPSEQ",
        "PPTESTCD",
        "PPTEST",
        "PPCAT",
        "PPORRES",
        "PPORRESU",
        "PPSTRESC",
        "PPSTRESN",
        "PPSTRESU",
        "PPSPEC",
        "PPRFTDTC"
      ]
    },
    "RELREC": {
      "record_count": 508,
      "variable_count": 7,
      "file": "relrec.csv",
      "variables": [
        "STUDYID",
        "RDOMAIN",
        "USUBJID",
        "IDVAR",
        "IDVARVAL",
        "RELTYPE",
        "RELID"
      ]
    },
    "SC": {
      "record_count": 82,
      "variable_count": 13,
      "file": "sc.csv",
      "variables": [
        "STUDYID",
        "DOMAIN",
        "USUBJID",
        "SCSEQ",
        "SCTESTCD",
        "SCTEST",
        "SCCAT",
        "SCORRES",
        "SCSTRESC",
        "SCSTRESN",
        "SCSTRESU",
        "SCDTC",
        "SCDY"
      ]
    },
    "SE": {
      "record_count": 47,
      "variable_count": 11,
      "file": "se.csv",
      "variables": [
        "STUDYID",
        "DOMAIN",
        "USUBJID",
        "SESEQ",
        "ETCD",
        "ELEMENT",
        "EPOCH",
        "SESTDTC",
        "SEENDTC",
        "SESTDY",
        "SEENDY"
      ]
    },
    "SS": {
      "record_count": 13,
      "variable_count": 14,
      "file": "ss.csv",
      "variables": [
        "STUDYID",
        "DOMAIN",
        "USUBJID",
        "SSSEQ",
        "SSTESTCD",
        "SSTEST",
        "SSCAT",
        "SSORRES",
        "SSSTRESC",
        "VISITNUM",
        "VISIT",
        "EPOCH",
        "SSDTC",
        "SSDY"
      ]
    },
    "SU": {
      "record_count": 54,
      "variable_count": 20,
      "file": "su.csv",
      "variables": [
        "STUDYID",
        "DOMAIN",
        "USUBJID",
        "SUSEQ",
        "SUTRT",
        "SUDECOD",
        "SUCAT",
        "SUSCAT",
        "SUPRESP",
        "SUOCCUR",
        "SUSTAT",
        "SUDOSE",
        "SUDOSU",
        "SUDOSFRQ",
        "EPOCH",
        "SUSTDTC",
        "SUENDTC",
        "SUSTDY",
        "SUENDY",
        "SUENRF"
      ]
    },
    "SUPPAE": {
      "record_count": 602,
      "variable_count": 10,
      "file": "suppae.csv",
      "variables": [
        "STUDYID",
        "RDOMAIN",
        "USUBJID",
        "IDVAR",
        "IDVARVAL",
        "QNAM",
        "QLABEL",
        "QVAL",
        "QORIG",
        "QEVAL"
      ]
    },
    "SV": {
      "record_count": 141,
      "variable_count": 14,
      "file": "sv.csv",
      "variables": [
        "STUDYID",
        "DOMAIN",
        "USUBJID",
        "SVSEQ",
        "VISITNUM",
        "VISIT",
        "SVPRESP",
        "SVOCCUR",
        "VISITDY",
        "EPOCH",
        "SVSTDTC",
        "SVENDTC",
        "SVSTDY",
        "SVENDY"
      ]
    },
    "TA": {
      "record_count": 6,
      "variable_count": 10,
      "file": "ta.csv",
      "variables": [
        "STUDYID",
        "DOMAIN",
        "ARMCD",
        "ARM",
        "TAETORD",
        "ETCD",
        "ELEMENT",
        "TABRANCH",
        "TATRANS",
        "EPOCH"
      ]
    },
    "TE": {
      "record_count": 3,
      "variable_count": 7,
      "file": "te.csv",
      "variables": [
        "STUDYID",
        "DOMAIN",
        "ETCD",
        "ELEMENT",
        "TESTRL",
        "TEENRL",
        "TEDUR"
      ]
    },
    "TI": {
      "record_count": 10,
      "variable_count": 8,
      "file": "ti.csv",
      "variables": [
        "STUDYID",
        "DOMAIN",
        "IETESTCD",
        "IETEST",
        "IECAT",
        "IESCAT",
        "TIRL",
        "TIVERS"
      ]
    },
    "TS": {
      "record_count": 45,
      "variable_count": 11,
      "file": "ts.csv",
      "variables": [
        "STUDYID",
        "DOMAIN",
        "TSSEQ",
        "TSGRPID",
        "TSPARMCD",
        "TSPARM",
        "TSVAL",
        "TSVALNF",
        "TSVALCD",
        "TSVCDREF",
        "TSVCDVER"
      ]
    },
    "TV": {
      "record_count": 20,
      "variable_count": 9,
      "file": "tv.csv",
      "variables": [
        "STUDYID",
        "DOMAIN",
        "VISITNUM",
        "VISIT",
        "VISITDY",
        "ARMCD",
        "ARM",
        "TVSTRL",
        "TVENRL"
      ]
    },
    "VS": {
      "record_count": 1087,
      "variable_count": 25,
      "file": "vs.csv",
      "variables": [
        "STUDYID",
        "DOMAIN",
        "USUBJID",
        "VSSEQ",
        "VSTESTCD",
        "VSTEST",
        "VSORRES",
        "VSORRESU",
        "VSSTRESC",
        "VSSTRESN",
        "VSSTRESU",
        "VSSTAT",
        "VSLOBXFL",
        "VSBLFL",
        "VSDRVFL",
        "VISITNUM",
        "VISIT",
        "EPOCH",
        "VSDTC",
        "VSDY",
        "VSTPT",
        "VSTPTNUM",
        "VSELTM",
        "VSTPTREF",
        "VSRFTDTC"
      ]
    }
  },
  "disposition_flow": {
    "nodes": [
      "SCREENED",
      "ENROLLED",
      "SCREEN FAILURE",
      "COMPLETED",
      "ADVERSE EVENT",
      "DEATH",
      "PHYSICIAN DECISION"
    ],
    "links": [
      {
        "source": "SCREENED",
        "target": "ENROLLED",
        "value": 18
      },
      {
        "source": "SCREENED",
        "target": "SCREEN FAILURE",
        "value": 2
      },
      {
        "source": "ENROLLED",
        "target": "COMPLETED",
        "value": 11
      },
      {
        "source": "ENROLLED",
        "target": "ADVERSE EVENT",
        "value": 4
      },
      {
        "source": "ENROLLED",
        "target": "DEATH",
        "value": 2
      },
      {
        "source": "ENROLLED",
        "target": "PHYSICIAN DECISION",
        "value": 1
      }
    ]
  },
  "config_snapshot": {
    "study_id": "BI-1245.110",
    "phase": "3",
    "n_subjects_default": 4126,
    "demographics": {
      "age_min": 18,
      "age_max": 95,
      "sex_distribution": {
        "M": 0.55,
        "F": 0.45
      },
      "race_distribution": {
        "WHITE": 0.75,
        "ASIAN": 0.15,
        "BLACK OR AFRICAN AMERICAN": 0.05,
        "OTHER": 0.05
      }
    },
    "enabled_domains": [
      "DM",
      "AE",
      "DS",
      "EX",
      "EC",
      "CM",
      "MH",
      "SE",
      "SV",
      "VS",
      "LB",
      "IE",
      "PE",
      "EG",
      "DA",
      "DD",
      "HO",
      "DV",
      "SC",
      "SU",
      "SS",
      "CO",
      "SUPPAE",
      "PC",
      "PP"
    ]
  }
}