{"subject_id":"BI-1245.110-USA_SITE01-0005","study_id":"BI-1245.110","generated_at":"2026-07-07T05:57:52.140013+00:00","sdtmig_version":"3.4","flags":{"has_serious_ae":true,"has_fatal_ae":false,"has_protocol_deviation":true,"n_protocol_deviations":46,"n_adverse_events":35,"n_concomitant_meds":21,"max_ae_severity":"SEVERE","screen_failure":false,"discontinued_early":false,"discontinuation_reason":null,"death":false,"exposure_days":578},"timeline":[{"dtc":"2007-02-25","dy":"-6230","event":"CM START: AMLODIPINE","domain":"CM","category":"concomitant_med"},{"dtc":"2013-02-23","dy":"-4040","event":"CM START: METOPROLOL","domain":"CM","category":"concomitant_med"},{"dtc":"2016-02-23","dy":"-2945","event":"CM START: METFORMIN","domain":"CM","category":"concomitant_med"},{"dtc":"2023-02-21","dy":"-390","event":"CM START: METOPROLOL","domain":"CM","category":"concomitant_med"},{"dtc":"2024-01-28","dy":"-49","event":"VISIT: SCREENING","domain":"SV","category":"visit"},{"dtc":"2024-02-21","dy":"-25","event":"INFORMED CONSENT OBTAINED","domain":"DS","category":"milestone"},{"dtc":"2024-03-17","dy":"1","event":"RANDOMIZED","domain":"DS","category":"milestone"},{"dtc":"2024-03-17","dy":"1","event":"FIRST DOSE: PLACEBO","domain":"EX","category":"exposure"},{"dtc":"2024-03-17","dy":"1","event":"VISIT: BASELINE","domain":"SV","category":"visit"},{"dtc":"2024-03-26","dy":"10","event":"DEVIATION: MISSED DOSE","domain":"DV","category":"deviation"},{"dtc":"2024-04-16","dy":"31","event":"VISIT: WEEK 4","domain":"SV","category":"visit"},{"dtc":"2024-04-24","dy":"39","event":"DEVIATION: MISSED DOSE","domain":"DV","category":"deviation"},{"dtc":"2024-04-27","dy":"42","event":"DEVIATION: MISSED DOSE","domain":"DV","category":"deviation"},{"dtc":"2024-04-28","dy":"43","event":"AE: Hypoglycaemia (MODERATE)","domain":"AE","category":"adverse_event"},{"dtc":"2024-04-28","dy":"43","event":"CM START: GLUCOSE","domain":"CM","category":"concomitant_med"},{"dtc":"2024-05-04","dy":"49","event":"AE: Headache (MILD)","domain":"AE","category":"adverse_event"},{"dtc":"2024-05-09","dy":"54","event":"AE: Nausea (MODERATE)","domain":"AE","category":"adverse_event"},{"dtc":"2024-05-09","dy":"54","event":"CM START: ONDANSETRON","domain":"CM","category":"concomitant_med"},{"dtc":"2024-05-14","dy":"59","event":"AE: Headache (MILD)","domain":"AE","category":"adverse_event"},{"dtc":"2024-05-17","dy":"62","event":"AE: Blood creatinine increased (MILD)","domain":"AE","category":"adverse_event"},{"dtc":"2024-05-17","dy":"62","event":"CM START: PARACETAMOL","domain":"CM","category":"concomitant_med"},{"dtc":"2024-05-25","dy":"70","event":"DEVIATION: MISSED DOSE","domain":"DV","category":"deviation"},{"dtc":"2024-06-02","dy":"78","event":"DEVIATION: MISSED DOSE","domain":"DV","category":"deviation"},{"dtc":"2024-06-08","dy":"84","event":"DEVIATION: MISSED DOSE","domain":"DV","category":"deviation"},{"dtc":"2024-06-09","dy":"85","event":"VISIT: WEEK 12","domain":"SV","category":"visit"},{"dtc":"2024-06-11","dy":"87","event":"DEVIATION: MISSED DOSE","domain":"DV","category":"deviation"},{"dtc":"2024-07-07","dy":"113","event":"DEVIATION: MISSED DOSE","domain":"DV","category":"deviation"},{"dtc":"2024-07-10","dy":"116","event":"DEVIATION: MISSED DOSE","domain":"DV","category":"deviation"},{"dtc":"2024-07-28","dy":"134","event":"DEVIATION: MISSED DOSE","domain":"DV","category":"deviation"},{"dtc":"2024-08-21","dy":"158","event":"DEVIATION: MISSED DOSE","domain":"DV","category":"deviation"},{"dtc":"2024-08-30","dy":"167","event":"DEVIATION: MISSED DOSE","domain":"DV","category":"deviation"},{"dtc":"2024-09-01","dy":"169","event":"AE: Urinary tract infection (SEVERE) [SERIOUS]","domain":"AE","category":"adverse_event"},{"dtc":"2024-09-01","dy":"169","event":"CM START: TRIMETHOPRIM","domain":"CM","category":"concomitant_med"},{"dtc":"2024-09-03","dy":"171","event":"DEVIATION: MISSED DOSE","domain":"DV","category":"deviation"},{"dtc":"2024-09-08","dy":"176","event":"AE: Urinary tract infection (MILD)","domain":"AE","category":"adverse_event"},{"dtc":"2024-09-13","dy":"181","event":"AE: Fatigue (MILD)","domain":"AE","category":"adverse_event"},{"dtc":"2024-09-13","dy":"181","event":"DEVIATION: MISSED DOSE","domain":"DV","category":"deviation"},{"dtc":"2024-09-14","dy":"182","event":"AE: Dizziness (MILD)","domain":"AE","category":"adverse_event"},{"dtc":"2024-09-14","dy":"182","event":"CM START: MECLIZINE","domain":"CM","category":"concomitant_med"},{"dtc":"2024-09-29","dy":"197","event":"VISIT: MONTH 6","domain":"SV","category":"visit"},{"dtc":"2024-09-30","dy":"198","event":"AE: Fatigue (MODERATE)","domain":"AE","category":"adverse_event"},{"dtc":"2024-10-08","dy":"206","event":"DEVIATION: MISSED DOSE","domain":"DV","category":"deviation"},{"dtc":"2024-10-09","dy":"207","event":"DEVIATION: MISSED DOSE","domain":"DV","category":"deviation"},{"dtc":"2024-10-15","dy":"213","event":"DEVIATION: MISSED DOSE","domain":"DV","category":"deviation"},{"dtc":"2024-10-19","dy":"217","event":"DEVIATION: MISSED DOSE","domain":"DV","category":"deviation"},{"dtc":"2024-10-30","dy":"228","event":"DEVIATION: MISSED DOSE","domain":"DV","category":"deviation"},{"dtc":"2024-12-11","dy":"270","event":"DEVIATION: MISSED DOSE","domain":"DV","category":"deviation"},{"dtc":"2024-12-20","dy":"279","event":"DEVIATION: MISSED DOSE","domain":"DV","category":"deviation"},{"dtc":"2024-12-22","dy":"281","event":"DEVIATION: MISSED DOSE","domain":"DV","category":"deviation"},{"dtc":"2024-12-28","dy":"287","event":"DEVIATION: MISSED DOSE","domain":"DV","category":"deviation"},{"dtc":"2024-12-29","dy":"288","event":"DEVIATION: MISSED DOSE","domain":"DV","category":"deviation"},{"dtc":"2025-01-03","dy":"293","event":"AE: Urinary tract infection (MILD)","domain":"AE","category":"adverse_event"},{"dtc":"2025-01-27","dy":"317","event":"DEVIATION: MISSED DOSE","domain":"DV","category":"deviation"},{"dtc":"2025-01-29","dy":"319","event":"AE: Urinary tract infection (MODERATE)","domain":"AE","category":"adverse_event"},{"dtc":"2025-01-29","dy":"319","event":"DEVIATION: MISSED DOSE","domain":"DV","category":"deviation"},{"dtc":"2025-02-03","dy":"324","event":"AE: Hypotension (MODERATE)","domain":"AE","category":"adverse_event"},{"dtc":"2025-02-09","dy":"330","event":"AE: Hypotension (MILD)","domain":"AE","category":"adverse_event"},{"dtc":"2025-02-25","dy":"346","event":"DEVIATION: MISSED DOSE","domain":"DV","category":"deviation"},{"dtc":"2025-03-04","dy":"353","event":"DEVIATION: MISSED DOSE","domain":"DV","category":"deviation"},{"dtc":"2025-03-06","dy":"355","event":"AE: Fatigue (SEVERE) [SERIOUS]","domain":"AE","category":"adverse_event"},{"dtc":"2025-03-12","dy":"361","event":"DEVIATION: MISSED DOSE","domain":"DV","category":"deviation"},{"dtc":"2025-03-17","dy":"366","event":"DEVIATION: MISSED DOSE","domain":"DV","category":"deviation"},{"dtc":"2025-03-26","dy":"375","event":"DEVIATION: VISIT OCCURRED OUTSIDE VISIT WINDOW","domain":"DV","category":"deviation"},{"dtc":"2025-03-26","dy":"375","event":"VISIT: MONTH 12","domain":"SV","category":"visit"},{"dtc":"2025-03-27","dy":"376","event":"DEVIATION: MISSED DOSE","domain":"DV","category":"deviation"},{"dtc":"2025-04-04","dy":"384","event":"DEVIATION: MISSED DOSE","domain":"DV","category":"deviation"},{"dtc":"2025-04-09","dy":"389","event":"AE: Fatigue (MODERATE)","domain":"AE","category":"adverse_event"},{"dtc":"2025-04-09","dy":"389","event":"DEVIATION: MISSED DOSE","domain":"DV","category":"deviation"},{"dtc":"2025-04-13","dy":"393","event":"AE: Urinary tract infection (MILD)","domain":"AE","category":"adverse_event"},{"dtc":"2025-04-13","dy":"393","event":"CM START: NITROFURANTOIN","domain":"CM","category":"concomitant_med"},{"dtc":"2025-04-21","dy":"401","event":"AE: Dehydration (MILD)","domain":"AE","category":"adverse_event"},{"dtc":"2025-04-21","dy":"401","event":"DEVIATION: MISSED DOSE","domain":"DV","category":"deviation"},{"dtc":"2025-04-25","dy":"405","event":"DEVIATION: MISSED DOSE","domain":"DV","category":"deviation"},{"dtc":"2025-04-26","dy":"406","event":"DEVIATION: MISSED DOSE","domain":"DV","category":"deviation"},{"dtc":"2025-05-08","dy":"418","event":"DEVIATION: MISSED DOSE","domain":"DV","category":"deviation"},{"dtc":"2025-05-13","dy":"423","event":"CM START: PARACETAMOL","domain":"CM","category":"concomitant_med"},{"dtc":"2025-06-04","dy":"445","event":"AE: Urinary tract infection (MILD)","domain":"AE","category":"adverse_event"},{"dtc":"2025-06-15","dy":"456","event":"AE: Headache (MILD)","domain":"AE","category":"adverse_event"},{"dtc":"2025-06-15","dy":"456","event":"CM START: IBUPROFEN","domain":"CM","category":"concomitant_med"},{"dtc":"2025-06-18","dy":"459","event":"DEVIATION: MISSED DOSE","domain":"DV","category":"deviation"},{"dtc":"2025-06-20","dy":"461","event":"AE: Hypotension (MILD)","domain":"AE","category":"adverse_event"},{"dtc":"2025-07-07","dy":"478","event":"DEVIATION: MISSED DOSE","domain":"DV","category":"deviation"},{"dtc":"2025-07-14","dy":"485","event":"AE: Hypoglycaemia (MILD)","domain":"AE","category":"adverse_event"},{"dtc":"2025-08-05","dy":"507","event":"AE: Hypoglycaemia (MILD)","domain":"AE","category":"adverse_event"},{"dtc":"2025-08-05","dy":"507","event":"CM START: GLUCOSE","domain":"CM","category":"concomitant_med"},{"dtc":"2025-08-19","dy":"521","event":"DEVIATION: MISSED DOSE","domain":"DV","category":"deviation"},{"dtc":"2025-08-31","dy":"533","event":"DEVIATION: MISSED DOSE","domain":"DV","category":"deviation"},{"dtc":"2025-09-24","dy":"557","event":"DEVIATION: VISIT OCCURRED OUTSIDE VISIT WINDOW","domain":"DV","category":"deviation"},{"dtc":"2025-09-24","dy":"557","event":"VISIT: MONTH 18","domain":"SV","category":"visit"},{"dtc":"2025-09-27","dy":"560","event":"AE: Dizziness (MODERATE)","domain":"AE","category":"adverse_event"},{"dtc":"2025-09-27","dy":"560","event":"CM START: MECLIZINE","domain":"CM","category":"concomitant_med"},{"dtc":"2025-09-28","dy":"561","event":"AE: Hypoglycaemia (MODERATE)","domain":"AE","category":"adverse_event"},{"dtc":"2025-09-28","dy":"561","event":"CM START: GLUCOSE","domain":"CM","category":"concomitant_med"},{"dtc":"2025-10-01","dy":"564","event":"AE: Genital infection fungal (MILD)","domain":"AE","category":"adverse_event"},{"dtc":"2025-10-01","dy":"564","event":"DEVIATION: MISSED DOSE","domain":"DV","category":"deviation"},{"dtc":"2025-10-13","dy":"576","event":"AE: Cardiac failure (MILD)","domain":"AE","category":"adverse_event"},{"dtc":"2025-10-13","dy":"576","event":"DEVIATION: MISSED DOSE","domain":"DV","category":"deviation"},{"dtc":"2025-10-13","dy":"576","event":"CM START: IBUPROFEN","domain":"CM","category":"concomitant_med"},{"dtc":"2025-12-13","dy":"637","event":"AE: Acute kidney injury (MODERATE)","domain":"AE","category":"adverse_event"},{"dtc":"2025-12-13","dy":"637","event":"CM START: PARACETAMOL","domain":"CM","category":"concomitant_med"},{"dtc":"2025-12-16","dy":"640","event":"AE: Headache (SEVERE) [SERIOUS]","domain":"AE","category":"adverse_event"},{"dtc":"2025-12-16","dy":"640","event":"CM START: IBUPROFEN","domain":"CM","category":"concomitant_med"},{"dtc":"2026-01-04","dy":"659","event":"AE: Sepsis (MODERATE)","domain":"AE","category":"adverse_event"},{"dtc":"2026-01-14","dy":"669","event":"AE: Urinary tract infection (MODERATE)","domain":"AE","category":"adverse_event"},{"dtc":"2026-02-14","dy":"700","event":"AE: Urinary tract infection (SEVERE) [SERIOUS]","domain":"AE","category":"adverse_event"},{"dtc":"2026-02-14","dy":"700","event":"CM START: TRIMETHOPRIM","domain":"CM","category":"concomitant_med"},{"dtc":"2026-03-07","dy":"721","event":"AE: Hypotension (MODERATE)","domain":"AE","category":"adverse_event"},{"dtc":"2026-03-09","dy":"723","event":"VISIT: MONTH 24","domain":"SV","category":"visit"},{"dtc":"2026-04-12","dy":"757","event":"AE: Blood creatinine increased (MODERATE)","domain":"AE","category":"adverse_event"},{"dtc":"2026-04-12","dy":"757","event":"CM START: PARACETAMOL","domain":"CM","category":"concomitant_med"},{"dtc":"2026-04-29","dy":"774","event":"AE: Blood creatinine increased (SEVERE) [SERIOUS]","domain":"AE","category":"adverse_event"},{"dtc":"2026-04-29","dy":"774","event":"CM START: IBUPROFEN","domain":"CM","category":"concomitant_med"},{"dtc":"2026-05-25","dy":"800","event":"DEVIATION: VISIT OCCURRED OUTSIDE VISIT WINDOW","domain":"DV","category":"deviation"},{"dtc":"2026-05-25","dy":"800","event":"VISIT: EOT","domain":"SV","category":"visit"},{"dtc":"2026-07-02","dy":"838","event":"COMPLETED","domain":"DS","category":"milestone"}],"section_1_demographics":{"usubjid":"BI-1245.110-USA_SITE01-0005","subjid":"0005","siteid":"USA_SITE01","age":"76","ageu":"YEARS","sex":"F","race":"WHITE","ethnicity":"NOT HISPANIC OR LATINO","country":"USA","arm":"Matching placebo QD","armcd":"PLACEBO","actarm":"Matching placebo QD","actarmcd":"PLACEBO","randomization_date":null,"informed_consent_date":"2024-02-21","reference_start_date":"2024-03-17","reference_end_date":"2026-07-02","screen_failure":false,"death_flag":null,"death_date":null,"subject_characteristics":[{"testcd":"ALCUSE","test":"Alcohol Use","orres":"CURRENT DRINKER","stresc":"CURRENT DRINKER","visit":null,"dtc":"2024-02-21"},{"testcd":"BMI","test":"Body Mass Index","orres":"34.1","stresc":"34.1","visit":null,"dtc":"2024-02-21"},{"testcd":"DURDIS","test":"Duration of Disease","orres":"304 months","stresc":"304","visit":null,"dtc":"2024-02-21"},{"testcd":"TOBPKYR","test":"Tobacco Pack-Years","orres":"29","stresc":"29","visit":null,"dtc":"2024-02-21"},{"testcd":"TOBUSE","test":"Tobacco Use","orres":"FORMER SMOKER","stresc":"FORMER SMOKER","visit":null,"dtc":"2024-02-21"}]},"section_2_medical_history":{"items":[{"seq":"1","term":"ATRIAL FIBRILLATION","decod":"ATRIAL FIBRILLATION","cat":"CARDIOVASCULAR","scat":null,"presp":null,"occur":null,"status":null,"onset_dtc":"2023-02-21","end_dtc":null,"visit":null},{"seq":"2","term":"CHRONIC KIDNEY DISEASE","decod":"CHRONIC KIDNEY DISEASE","cat":"RENAL","scat":null,"presp":null,"occur":null,"status":null,"onset_dtc":"2001-02-26","end_dtc":"2004-04-25","visit":null},{"seq":"3","term":"CORONARY ARTERY DISEASE","decod":"CORONARY ARTERY DISEASE","cat":"CARDIOVASCULAR","scat":null,"presp":null,"occur":null,"status":null,"onset_dtc":"2013-02","end_dtc":null,"visit":null},{"seq":"4","term":"DIABETES MELLITUS TYPE 2","decod":"DIABETES MELLITUS TYPE 2","cat":"ENDOCRINE","scat":null,"presp":null,"occur":null,"status":null,"onset_dtc":"2016-02-23","end_dtc":null,"visit":null},{"seq":"5","term":"GASTROESOPHAGEAL REFLUX DISEASE","decod":"GASTROESOPHAGEAL REFLUX DISEASE","cat":"GASTROINTESTINAL","scat":null,"presp":null,"occur":null,"status":null,"onset_dtc":"1999-02-27","end_dtc":null,"visit":null},{"seq":"6","term":"HYPERTENSION","decod":"HYPERTENSION","cat":"CARDIOVASCULAR","scat":null,"presp":null,"occur":null,"status":null,"onset_dtc":"2007-02-25","end_dtc":null,"visit":null},{"seq":"7","term":"OBESITY","decod":"OBESITY","cat":"METABOLIC","scat":null,"presp":null,"occur":null,"status":null,"onset_dtc":"2021-02-21","end_dtc":"2021-10-07","visit":null}]},"section_3_inclusion_exclusion":{"criteria":[]},"section_4_trial_participation":{"visits":[{"visitnum":"1.0","visit":"SCREENING","start_dtc":"2024-01-28","end_dtc":"2024-01-28","updes":null},{"visitnum":"2.0","visit":"BASELINE","start_dtc":"2024-03-17","end_dtc":"2024-03-17","updes":null},{"visitnum":"3.0","visit":"WEEK 4","start_dtc":"2024-04-16","end_dtc":"2024-04-16","updes":null},{"visitnum":"4.0","visit":"WEEK 12","start_dtc":"2024-06-09","end_dtc":"2024-06-09","updes":null},{"visitnum":"5.0","visit":"MONTH 6","start_dtc":"2024-09-29","end_dtc":"2024-09-29","updes":null},{"visitnum":"6.0","visit":"MONTH 12","start_dtc":"2025-03-26","end_dtc":"2025-03-26","updes":null},{"visitnum":"7.0","visit":"MONTH 18","start_dtc":"2025-09-24","end_dtc":"2025-09-24","updes":null},{"visitnum":"8.0","visit":"MONTH 24","start_dtc":"2026-03-09","end_dtc":"2026-03-09","updes":null},{"visitnum":"9.0","visit":"EOT","start_dtc":"2026-05-25","end_dtc":"2026-05-25","updes":null}],"epochs":[{"seq":"1","etcd":"SCRN","element":"Screening","start_dtc":"2024-02-18","end_dtc":"2024-03-17","updes":null},{"seq":"2","etcd":"TRT","element":"Treatment","start_dtc":"2024-03-17","end_dtc":"2026-05-06","updes":null},{"seq":"3","etcd":"FU","element":"Safety EoT","start_dtc":"2026-05-06","end_dtc":"2026-06-04","updes":null}],"visit_count":9},"section_5_concomitant_medications":{"medications":[{"seq":"1","trt":"AMLODIPINE","decod":"AMLODIPINE","cat":"PRIOR","dose":"5","doseu":null,"dosef":"QD","route":"ORAL","indication":"HYPERTENSION","start_dtc":"2007-02-25","end_dtc":"2026-07-02","ongoing":null,"visit":null},{"seq":"2","trt":"METOPROLOL","decod":"METOPROLOL","cat":"PRIOR","dose":"25.0","doseu":null,"dosef":"BID","route":"ORAL","indication":"CORONARY ARTERY DISEASE","start_dtc":"2013-02-23","end_dtc":"2026-07-02","ongoing":null,"visit":null},{"seq":"3","trt":"METFORMIN","decod":"METFORMIN","cat":"PRIOR","dose":"500","doseu":null,"dosef":"BID","route":"ORAL","indication":"DIABETES MELLITUS TYPE 2","start_dtc":"2016-02-23","end_dtc":"2026-07-02","ongoing":null,"visit":null},{"seq":"4","trt":"METOPROLOL","decod":"METOPROLOL","cat":"PRIOR","dose":"50.0","doseu":null,"dosef":"BID","route":"ORAL","indication":"ATRIAL FIBRILLATION","start_dtc":"2023-02-21","end_dtc":"2026-07-02","ongoing":null,"visit":null},{"seq":"5","trt":"GLUCOSE","decod":"GLUCOSE","cat":"CONCOMITANT","dose":"15.0","doseu":null,"dosef":"PRN","route":"ORAL","indication":"HYPOGLYCAEMIA","start_dtc":"2024-04-28","end_dtc":"2024-05-19","ongoing":null,"visit":null},{"seq":"6","trt":"ONDANSETRON","decod":"ONDANSETRON","cat":"CONCOMITANT","dose":"4","doseu":null,"dosef":"PRN","route":"ORAL","indication":"NAUSEA","start_dtc":"2024-05-09","end_dtc":"2024-06-04","ongoing":null,"visit":null},{"seq":"7","trt":"PARACETAMOL","decod":"PARACETAMOL","cat":"CONCOMITANT","dose":"500","doseu":null,"dosef":"PRN","route":"ORAL","indication":"BLOOD CREATININE INCREASED","start_dtc":"2024-05-17","end_dtc":"2024-05-28","ongoing":null,"visit":null},{"seq":"8","trt":"TRIMETHOPRIM","decod":"TRIMETHOPRIM","cat":"CONCOMITANT","dose":"200.0","doseu":null,"dosef":"BID","route":"ORAL","indication":"URINARY TRACT INFECTION","start_dtc":"2024-09-01","end_dtc":"2024-09-30","ongoing":null,"visit":null},{"seq":"9","trt":"MECLIZINE","decod":"MECLIZINE","cat":"CONCOMITANT","dose":"25","doseu":null,"dosef":"PRN","route":"ORAL","indication":"DIZZINESS","start_dtc":"2024-09-14","end_dtc":"2024-10-13","ongoing":null,"visit":null},{"seq":"10","trt":"NITROFURANTOIN","decod":"NITROFURANTOIN","cat":"CONCOMITANT","dose":"100.0","doseu":null,"dosef":"BID","route":"ORAL","indication":"URINARY TRACT INFECTION","start_dtc":"2025-04-13","end_dtc":"2025-05-04","ongoing":null,"visit":null},{"seq":"11","trt":"PARACETAMOL","decod":"PARACETAMOL","cat":"CONCOMITANT","dose":null,"doseu":null,"dosef":"PRN","route":"ORAL","indication":null,"start_dtc":"2025-05-13","end_dtc":"2025-08-03","ongoing":null,"visit":null},{"seq":"12","trt":"IBUPROFEN","decod":"IBUPROFEN","cat":"CONCOMITANT","dose":"400","doseu":null,"dosef":"PRN","route":"ORAL","indication":"HEADACHE","start_dtc":"2025-06-15","end_dtc":"2025-07-14","ongoing":null,"visit":null},{"seq":"13","trt":"GLUCOSE","decod":"GLUCOSE","cat":"CONCOMITANT","dose":"15.0","doseu":null,"dosef":"PRN","route":"ORAL","indication":"HYPOGLYCAEMIA","start_dtc":"2025-08-05","end_dtc":"2025-08-25","ongoing":null,"visit":null},{"seq":"14","trt":"MECLIZINE","decod":"MECLIZINE","cat":"CONCOMITANT","dose":"25","doseu":null,"dosef":"PRN","route":"ORAL","indication":"DIZZINESS","start_dtc":"2025-09-27","end_dtc":"2025-10-12","ongoing":null,"visit":null},{"seq":"15","trt":"GLUCOSE","decod":"GLUCOSE","cat":"CONCOMITANT","dose":"15.0","doseu":null,"dosef":"PRN","route":"ORAL","indication":"HYPOGLYCAEMIA","start_dtc":"2025-09-28","end_dtc":"2025-10-20","ongoing":null,"visit":null},{"seq":"16","trt":"IBUPROFEN","decod":"IBUPROFEN","cat":"CONCOMITANT","dose":"400","doseu":null,"dosef":"PRN","route":"ORAL","indication":"CARDIAC FAILURE","start_dtc":"2025-10-13","end_dtc":"2025-10-23","ongoing":null,"visit":null},{"seq":"17","trt":"PARACETAMOL","decod":"PARACETAMOL","cat":"CONCOMITANT","dose":"500","doseu":null,"dosef":"PRN","route":"ORAL","indication":"ACUTE KIDNEY INJURY","start_dtc":"2025-12-13","end_dtc":"2026-01-12","ongoing":null,"visit":null},{"seq":"18","trt":"IBUPROFEN","decod":"IBUPROFEN","cat":"CONCOMITANT","dose":"400","doseu":null,"dosef":"PRN","route":"ORAL","indication":"HEADACHE","start_dtc":"2025-12-16","end_dtc":"2026-01-13","ongoing":null,"visit":null},{"seq":"19","trt":"TRIMETHOPRIM","decod":"TRIMETHOPRIM","cat":"CONCOMITANT","dose":"200.0","doseu":null,"dosef":"BID","route":"ORAL","indication":"URINARY TRACT INFECTION","start_dtc":"2026-02-14","end_dtc":"2026-02-28","ongoing":null,"visit":null},{"seq":"20","trt":"PARACETAMOL","decod":"PARACETAMOL","cat":"CONCOMITANT","dose":"500","doseu":null,"dosef":"PRN","route":"ORAL","indication":"BLOOD CREATININE INCREASED","start_dtc":"2026-04-12","end_dtc":"2026-05-10","ongoing":null,"visit":null},{"seq":"21","trt":"IBUPROFEN","decod":"IBUPROFEN","cat":"CONCOMITANT","dose":"400","doseu":null,"dosef":"PRN","route":"ORAL","indication":"BLOOD CREATININE INCREASED","start_dtc":"2026-04-29","end_dtc":"2026-05-20","ongoing":null,"visit":null}]},"section_6_exposure":{"exposure_as_administered":[{"seq":"1","trt":"PLACEBO","dose":"0.0","doseu":null,"dosef":"QD","route":"ORAL","lot":null,"start_dtc":"2024-03-17","end_dtc":"2025-10-16","start_dy":"1","end_dy":"579","epoch":"TREATMENT","visit":null}],"exposure_as_collected":[{"seq":"1","trt":"PLACEBO","dose":null,"doseu":null,"dosef":"QD","route":"ORAL","start_dtc":"2024-03-17","end_dtc":"2024-03-17","visit":"BASELINE"},{"seq":"2","trt":"PLACEBO","dose":null,"doseu":null,"dosef":"QD","route":"ORAL","start_dtc":"2024-03-18","end_dtc":"2024-03-18","visit":"BASELINE"},{"seq":"3","trt":"PLACEBO","dose":null,"doseu":null,"dosef":"QD","route":"ORAL","start_dtc":"2024-03-19","end_dtc":"2024-03-19","visit":"BASELINE"},{"seq":"4","trt":"PLACEBO","dose":null,"doseu":null,"dosef":"QD","route":"ORAL","start_dtc":"2024-03-20","end_dtc":"2024-03-20","visit":"BASELINE"},{"seq":"5","trt":"PLACEBO","dose":null,"doseu":null,"dosef":"QD","route":"ORAL","start_dtc":"2024-03-21","end_dtc":"2024-03-21","visit":null},{"seq":"6","trt":"PLACEBO","dose":null,"doseu":null,"dosef":"QD","route":"ORAL","start_dtc":"2024-03-22","end_dtc":"2024-03-22","visit":null},{"seq":"7","trt":"PLACEBO","dose":null,"doseu":null,"dosef":"QD","route":"ORAL","start_dtc":"2024-03-23","end_dtc":"2024-03-23","visit":null},{"seq":"8","trt":"PLACEBO","dose":null,"doseu":null,"dosef":"QD","route":"ORAL","start_dtc":"2024-03-24","end_dtc":"2024-03-24","visit":null},{"seq":"9","trt":"PLACEBO","dose":null,"doseu":null,"dosef":"QD","route":"ORAL","start_dtc":"2024-03-25","end_dtc":"2024-03-25","visit":null},{"seq":"10","trt":"PLACEBO","dose":null,"doseu":null,"dosef":"QD","route":"ORAL","start_dtc":"2024-03-26","end_dtc":"2024-03-26","visit":null},{"seq":"11","trt":"PLACEBO","dose":null,"doseu":null,"dosef":"QD","route":"ORAL","start_dtc":"2024-03-27","end_dtc":"2024-03-27","visit":null},{"seq":"12","trt":"PLACEBO","dose":null,"doseu":null,"dosef":"QD","route":"ORAL","start_dtc":"2024-03-28","end_dtc":"2024-03-28","visit":null},{"seq":"13","trt":"PLACEBO","dose":null,"doseu":null,"dosef":"QD","route":"ORAL","start_dtc":"2024-03-29","end_dtc":"2024-03-29","visit":null},{"seq":"14","trt":"PLACEBO","dose":null,"doseu":null,"dosef":"QD","route":"ORAL","start_dtc":"2024-03-30","end_dtc":"2024-03-30","visit":null},{"seq":"15","trt":"PLACEBO","dose":null,"doseu":null,"dosef":"QD","route":"ORAL","start_dtc":"2024-03-31","end_dtc":"2024-03-31","visit":null},{"seq":"16","trt":"PLACEBO","dose":null,"doseu":null,"dosef":"QD","route":"ORAL","start_dtc":"2024-04-01","end_dtc":"2024-04-01","visit":null},{"seq":"17","trt":"PLACEBO","dose":null,"doseu":null,"dosef":"QD","route":"ORAL","start_dtc":"2024-04-02","end_dtc":"2024-04-02","visit":null},{"seq":"18","trt":"PLACEBO","dose":null,"doseu":null,"dosef":"QD","route":"ORAL","start_dtc":"2024-04-03","end_dtc":"2024-04-03","visit":null},{"seq":"19","trt":"PLACEBO","dose":null,"doseu":null,"dosef":"QD","route":"ORAL","start_dtc":"2024-04-04","end_dtc":"2024-04-04","visit":null},{"seq":"20","trt":"PLACEBO","dose":null,"doseu":null,"dosef":"QD","route":"ORAL","start_dtc":"2024-04-05","end_dtc":"2024-04-05","visit":null},{"seq":"21","trt":"PLACEBO","dose":null,"doseu":null,"dosef":"QD","route":"ORAL","start_dtc":"2024-04-06","end_dtc":"2024-04-06","visit":null},{"seq":"22","trt":"PLACEBO","dose":null,"doseu":null,"dosef":"QD","route":"ORAL","start_dtc":"2024-04-07","end_dtc":"2024-04-07","visit":null},{"seq":"23","trt":"PLACEBO","dose":null,"doseu":null,"dosef":"QD","route":"ORAL","start_dtc":"2024-04-08","end_dtc":"2024-04-08","visit":null},{"seq":"24","trt":"PLACEBO","dose":null,"doseu":null,"dosef":"QD","route":"ORAL","start_dtc":"2024-04-09","end_dtc":"2024-04-09","visit":null},{"seq":"25","trt":"PLACEBO","dose":null,"doseu":null,"dosef":"QD","route":"ORAL","start_dtc":"2024-04-10","end_dtc":"2024-04-10","visit":null},{"seq":"26","trt":"PLACEBO","dose":null,"doseu":null,"dosef":"QD","route":"ORAL","start_dtc":"2024-04-11","end_dtc":"2024-04-11","visit":"WEEK 4"},{"seq":"27","trt":"PLACEBO","dose":null,"doseu":null,"dosef":"QD","route":"ORAL","start_dtc":"2024-04-12","end_dtc":"2024-04-12","visit":"WEEK 4"},{"seq":"28","trt":"PLACEBO","dose":null,"doseu":null,"dosef":"QD","route":"ORAL","start_dtc":"2024-04-13","end_dtc":"2024-04-13","visit":"WEEK 4"},{"seq":"29","trt":"PLACEBO","dose":null,"doseu":null,"dosef":"QD","route":"ORAL","start_dtc":"2024-04-14","end_dtc":"2024-04-14","visit":"WEEK 4"},{"seq":"30","trt":"PLACEBO","dose":null,"doseu":null,"dosef":"QD","route":"ORAL","start_dtc":"2024-04-15","end_dtc":"2024-04-15","visit":"WEEK 4"},{"seq":"31","trt":"PLACEBO","dose":null,"doseu":null,"dosef":"QD","route":"ORAL","start_dtc":"2024-04-16","end_dtc":"2024-04-16","visit":"WEEK 4"},{"seq":"32","trt":"PLACEBO","dose":null,"doseu":null,"dosef":"QD","route":"ORAL","start_dtc":"2024-04-17","end_dtc":"2024-04-17","visit":"WEEK 4"},{"seq":"33","trt":"PLACEBO","dose":null,"doseu":null,"dosef":"QD","route":"ORAL","start_dtc":"2024-04-18","end_dtc":"2024-04-18","visit":null},{"seq":"34","trt":"PLACEBO","dose":null,"doseu":null,"dosef":"QD","route":"ORAL","start_dtc":"2024-04-19","end_dtc":"2024-04-19","visit":null},{"seq":"35","trt":"PLACEBO","dose":null,"doseu":null,"dosef":"QD","route":"ORAL","start_dtc":"2024-04-20","end_dtc":"2024-04-20","visit":null},{"seq":"36","trt":"PLACEBO","dose":null,"doseu":null,"dosef":"QD","route":"ORAL","start_dtc":"2024-04-21","end_dtc":"2024-04-21","visit":null},{"seq":"37","trt":"PLACEBO","dose":null,"doseu":null,"dosef":"QD","route":"ORAL","start_dtc":"2024-04-22","end_dtc":"2024-04-22","visit":null},{"seq":"38","trt":"PLACEBO","dose":null,"doseu":null,"dosef":"QD","route":"ORAL","start_dtc":"2024-04-23","end_dtc":"2024-04-23","visit":null},{"seq":"39","trt":"PLACEBO","dose":null,"doseu":null,"dosef":"QD","route":"ORAL","start_dtc":"2024-04-24","end_dtc":"2024-04-24","visit":null},{"seq":"40","trt":"PLACEBO","dose":null,"doseu":null,"dosef":"QD","route":"ORAL","start_dtc":"2024-04-25","end_dtc":"2024-04-25","visit":null},{"seq":"41","trt":"PLACEBO","dose":null,"doseu":null,"dosef":"QD","route":"ORAL","start_dtc":"2024-04-26","end_dtc":"2024-04-26","visit":null},{"seq":"42","trt":"PLACEBO","dose":null,"doseu":null,"dosef":"QD","route":"ORAL","start_dtc":"2024-04-27","end_dtc":"2024-04-27","visit":null},{"seq":"43","trt":"PLACEBO","dose":null,"doseu":null,"dosef":"QD","route":"ORAL","start_dtc":"2024-04-28","end_dtc":"2024-04-28","visit":null},{"seq":"44","trt":"PLACEBO","dose":null,"doseu":null,"dosef":"QD","route":"ORAL","start_dtc":"2024-04-29","end_dtc":"2024-04-29","visit":null},{"seq":"45","trt":"PLACEBO","dose":null,"doseu":null,"dosef":"QD","route":"ORAL","start_dtc":"2024-04-30","end_dtc":"2024-04-30","visit":null},{"seq":"46","trt":"PLACEBO","dose":null,"doseu":null,"dosef":"QD","route":"ORAL","start_dtc":"2024-05-01","end_dtc":"2024-05-01","visit":null},{"seq":"47","trt":"PLACEBO","dose":null,"doseu":null,"dosef":"QD","route":"ORAL","start_dtc":"2024-05-02","end_dtc":"2024-05-02","visit":null},{"seq":"48","trt":"PLACEBO","dose":null,"doseu":null,"dosef":"QD","route":"ORAL","start_dtc":"2024-05-03","end_dtc":"2024-05-03","visit":null},{"seq":"49","trt":"PLACEBO","dose":null,"doseu":null,"dosef":"QD","route":"ORAL","start_dtc":"2024-05-04","end_dtc":"2024-05-04","visit":null},{"seq":"50","trt":"PLACEBO","dose":null,"doseu":null,"dosef":"QD","route":"ORAL","start_dtc":"2024-05-05","end_dtc":"2024-05-05","visit":null},{"seq":"51","trt":"PLACEBO","dose":null,"doseu":null,"dosef":"QD","route":"ORAL","start_dtc":"2024-05-06","end_dtc":"2024-05-06","visit":null},{"seq":"52","trt":"PLACEBO","dose":null,"doseu":null,"dosef":"QD","route":"ORAL","start_dtc":"2024-05-07","end_dtc":"2024-05-07","visit":null},{"seq":"53","trt":"PLACEBO","dose":null,"doseu":null,"dosef":"QD","route":"ORAL","start_dtc":"2024-05-08","end_dtc":"2024-05-08","visit":null},{"seq":"54","trt":"PLACEBO","dose":null,"doseu":null,"dosef":"QD","route":"ORAL","start_dtc":"2024-05-09","end_dtc":"2024-05-09","visit":null},{"seq":"55","trt":"PLACEBO","dose":null,"doseu":null,"dosef":"QD","route":"ORAL","start_dtc":"2024-05-10","end_dtc":"2024-05-10","visit":null},{"seq":"56","trt":"PLACEBO","dose":null,"doseu":null,"dosef":"QD","route":"ORAL","start_dtc":"2024-05-11","end_dtc":"2024-05-11","visit":null},{"seq":"57","trt":"PLACEBO","dose":null,"doseu":null,"dosef":"QD","route":"ORAL","start_dtc":"2024-05-12","end_dtc":"2024-05-12","visit":null},{"seq":"58","trt":"PLACEBO","dose":null,"doseu":null,"dosef":"QD","route":"ORAL","start_dtc":"2024-05-13","end_dtc":"2024-05-13","visit":null},{"seq":"59","trt":"PLACEBO","dose":null,"doseu":null,"dosef":"QD","route":"ORAL","start_dtc":"2024-05-14","end_dtc":"2024-05-14","visit":null},{"seq":"60","trt":"PLACEBO","dose":null,"doseu":null,"dosef":"QD","route":"ORAL","start_dtc":"2024-05-15","end_dtc":"2024-05-15","visit":null},{"seq":"61","trt":"PLACEBO","dose":null,"doseu":null,"dosef":"QD","route":"ORAL","start_dtc":"2024-05-16","end_dtc":"2024-05-16","visit":null},{"seq":"62","trt":"PLACEBO","dose":null,"doseu":null,"dosef":"QD","route":"ORAL","start_dtc":"2024-05-17","end_dtc":"2024-05-17","visit":null},{"seq":"63","trt":"PLACEBO","dose":null,"doseu":null,"dosef":"QD","route":"ORAL","start_dtc":"2024-05-18","end_dtc":"2024-05-18","visit":null},{"seq":"64","trt":"PLACEBO","dose":null,"doseu":null,"dosef":"QD","route":"ORAL","start_dtc":"2024-05-19","end_dtc":"2024-05-19","visit":null},{"seq":"65","trt":"PLACEBO","dose":null,"doseu":null,"dosef":"QD","route":"ORAL","start_dtc":"2024-05-20","end_dtc":"2024-05-20","visit":null},{"seq":"66","trt":"PLACEBO","dose":null,"doseu":null,"dosef":"QD","route":"ORAL","start_dtc":"2024-05-21","end_dtc":"2024-05-21","visit":null},{"seq":"67","trt":"PLACEBO","dose":null,"doseu":null,"dosef":"QD","route":"ORAL","start_dtc":"2024-05-22","end_dtc":"2024-05-22","visit":null},{"seq":"68","trt":"PLACEBO","dose":null,"doseu":null,"dosef":"QD","route":"ORAL","start_dtc":"2024-05-23","end_dtc":"2024-05-23","visit":null},{"seq":"69","trt":"PLACEBO","dose":null,"doseu":null,"dosef":"QD","route":"ORAL","start_dtc":"2024-05-24","end_dtc":"2024-05-24","visit":null},{"seq":"70","trt":"PLACEBO","dose":null,"doseu":null,"dosef":"QD","route":"ORAL","start_dtc":"2024-05-25","end_dtc":"2024-05-25","visit":null},{"seq":"71","trt":"PLACEBO","dose":null,"doseu":null,"dosef":"QD","route":"ORAL","start_dtc":"2024-05-26","end_dtc":"2024-05-26","visit":null},{"seq":"72","trt":"PLACEBO","dose":null,"doseu":null,"dosef":"QD","route":"ORAL","start_dtc":"2024-05-27","end_dtc":"2024-05-27","visit":null},{"seq":"73","trt":"PLACEBO","dose":null,"doseu":null,"dosef":"QD","route":"ORAL","start_dtc":"2024-05-28","end_dtc":"2024-05-28","visit":null},{"seq":"74","trt":"PLACEBO","dose":null,"doseu":null,"dosef":"QD","route":"ORAL","start_dtc":"2024-05-29","end_dtc":"2024-05-29","visit":null},{"seq":"75","trt":"PLACEBO","dose":null,"doseu":null,"dosef":"QD","route":"ORAL","start_dtc":"2024-05-30","end_dtc":"2024-05-30","visit":null},{"seq":"76","trt":"PLACEBO","dose":null,"doseu":null,"dosef":"QD","route":"ORAL","start_dtc":"2024-05-31","end_dtc":"2024-05-31","visit":null},{"seq":"77","trt":"PLACEBO","dose":null,"doseu":null,"dosef":"QD","route":"ORAL","start_dtc":"2024-06-01","end_dtc":"2024-06-01","visit":null},{"seq":"78","trt":"PLACEBO","dose":null,"doseu":null,"dosef":"QD","route":"ORAL","start_dtc":"2024-06-02","end_dtc":"2024-06-02","visit":null},{"seq":"79","trt":"PLACEBO","dose":null,"doseu":null,"dosef":"QD","route":"ORAL","start_dtc":"2024-06-03","end_dtc":"2024-06-03","visit":null},{"seq":"80","trt":"PLACEBO","dose":null,"doseu":null,"dosef":"QD","route":"ORAL","start_dtc":"2024-06-04","end_dtc":"2024-06-04","visit":null},{"seq":"81","trt":"PLACEBO","dose":null,"doseu":null,"dosef":"QD","route":"ORAL","start_dtc":"2024-06-05","end_dtc":"2024-06-05","visit":null},{"seq":"82","trt":"PLACEBO","dose":null,"doseu":null,"dosef":"QD","route":"ORAL","start_dtc":"2024-06-06","end_dtc":"2024-06-06","visit":"WEEK 12"},{"seq":"83","trt":"PLACEBO","dose":null,"doseu":null,"dosef":"QD","route":"ORAL","start_dtc":"2024-06-07","end_dtc":"2024-06-07","visit":"WEEK 12"},{"seq":"84","trt":"PLACEBO","dose":null,"doseu":null,"dosef":"QD","route":"ORAL","start_dtc":"2024-06-08","end_dtc":"2024-06-08","visit":"WEEK 12"},{"seq":"85","trt":"PLACEBO","dose":null,"doseu":null,"dosef":"QD","route":"ORAL","start_dtc":"2024-06-09","end_dtc":"2024-06-09","visit":"WEEK 12"},{"seq":"86","trt":"PLACEBO","dose":null,"doseu":null,"dosef":"QD","route":"ORAL","start_dtc":"2024-06-10","end_dtc":"2024-06-10","visit":"WEEK 12"},{"seq":"87","trt":"PLACEBO","dose":null,"doseu":null,"dosef":"QD","route":"ORAL","start_dtc":"2024-06-11","end_dtc":"2024-06-11","visit":"WEEK 12"},{"seq":"88","trt":"PLACEBO","dose":null,"doseu":null,"dosef":"QD","route":"ORAL","start_dtc":"2024-06-12","end_dtc":"2024-06-12","visit":"WEEK 12"},{"seq":"89","trt":"PLACEBO","dose":null,"doseu":null,"dosef":"QD","route":"ORAL","start_dtc":"2024-06-13","end_dtc":"2024-06-13","visit":null},{"seq":"90","trt":"PLACEBO","dose":null,"doseu":null,"dosef":"QD","route":"ORAL","start_dtc":"2024-06-14","end_dtc":"2024-06-14","visit":null},{"seq":"91","trt":"PLACEBO","dose":null,"doseu":null,"dosef":"QD","route":"ORAL","start_dtc":"2024-06-15","end_dtc":"2024-06-15","visit":null},{"seq":"92","trt":"PLACEBO","dose":null,"doseu":null,"dosef":"QD","route":"ORAL","start_dtc":"2024-06-16","end_dtc":"2024-06-16","visit":null},{"seq":"93","trt":"PLACEBO","dose":null,"doseu":null,"dosef":"QD","route":"ORAL","start_dtc":"2024-06-17","end_dtc":"2024-06-17","visit":null},{"seq":"94","trt":"PLACEBO","dose":null,"doseu":null,"dosef":"QD","route":"ORAL","start_dtc":"2024-06-18","end_dtc":"2024-06-18","visit":null},{"seq":"95","trt":"PLACEBO","dose":null,"doseu":null,"dosef":"QD","route":"ORAL","start_dtc":"2024-06-19","end_dtc":"2024-06-19","visit":null},{"seq":"96","trt":"PLACEBO","dose":null,"doseu":null,"dosef":"QD","route":"ORAL","start_dtc":"2024-06-20","end_dtc":"2024-06-20","visit":null},{"seq":"97","trt":"PLACEBO","dose":null,"doseu":null,"dosef":"QD","route":"ORAL","start_dtc":"2024-06-21","end_dtc":"2024-06-21","visit":null},{"seq":"98","trt":"PLACEBO","dose":null,"doseu":null,"dosef":"QD","route":"ORAL","start_dtc":"2024-06-22","end_dtc":"2024-06-22","visit":null},{"seq":"99","trt":"PLACEBO","dose":null,"doseu":null,"dosef":"QD","route":"ORAL","start_dtc":"2024-06-23","end_dtc":"2024-06-23","visit":null},{"seq":"100","trt":"PLACEBO","dose":null,"doseu":null,"dosef":"QD","route":"ORAL","start_dtc":"2024-06-24","end_dtc":"2024-06-24","visit":null},{"seq":"101","trt":"PLACEBO","dose":null,"doseu":null,"dosef":"QD","route":"ORAL","start_dtc":"2024-06-25","end_dtc":"2024-06-25","visit":null},{"seq":"102","trt":"PLACEBO","dose":null,"doseu":null,"dosef":"QD","route":"ORAL","start_dtc":"2024-06-26","end_dtc":"2024-06-26","visit":null},{"seq":"103","trt":"PLACEBO","dose":null,"doseu":null,"dosef":"QD","route":"ORAL","start_dtc":"2024-06-27","end_dtc":"2024-06-27","visit":null},{"seq":"104","trt":"PLACEBO","dose":null,"doseu":null,"dosef":"QD","route":"ORAL","start_dtc":"2024-06-28","end_dtc":"2024-06-28","visit":null},{"seq":"105","trt":"PLACEBO","dose":null,"doseu":null,"dosef":"QD","route":"ORAL","start_dtc":"2024-06-29","end_dtc":"2024-06-29","visit":null},{"seq":"106","trt":"PLACEBO","dose":null,"doseu":null,"dosef":"QD","route":"ORAL","start_dtc":"2024-06-30","end_dtc":"2024-06-30","visit":null},{"seq":"107","trt":"PLACEBO","dose":null,"doseu":null,"dosef":"QD","route":"ORAL","start_dtc":"2024-07-01","end_dtc":"2024-07-01","visit":null},{"seq":"108","trt":"PLACEBO","dose":null,"doseu":null,"dosef":"QD","route":"ORAL","start_dtc":"2024-07-02","end_dtc":"2024-07-02","visit":null},{"seq":"109","trt":"PLACEBO","dose":null,"doseu":null,"dosef":"QD","route":"ORAL","start_dtc":"2024-07-03","end_dtc":"2024-07-03","visit":null},{"seq":"110","trt":"PLACEBO","dose":null,"doseu":null,"dosef":"QD","route":"ORAL","start_dtc":"2024-07-04","end_dtc":"2024-07-04","visit":null},{"seq":"111","trt":"PLACEBO","dose":null,"doseu":null,"dosef":"QD","route":"ORAL","start_dtc":"2024-07-05","end_dtc":"2024-07-05","visit":null},{"seq":"112","trt":"PLACEBO","dose":null,"doseu":null,"dosef":"QD","route":"ORAL","start_dtc":"2024-07-06","end_dtc":"2024-07-06","visit":null},{"seq":"113","trt":"PLACEBO","dose":null,"doseu":null,"dosef":"QD","route":"ORAL","start_dtc":"2024-07-07","end_dtc":"2024-07-07","visit":null},{"seq":"114","trt":"PLACEBO","dose":null,"doseu":null,"dosef":"QD","route":"ORAL","start_dtc":"2024-07-08","end_dtc":"2024-07-08","visit":null},{"seq":"115","trt":"PLACEBO","dose":null,"doseu":null,"dosef":"QD","route":"ORAL","start_dtc":"2024-07-09","end_dtc":"2024-07-09","visit":null},{"seq":"116","trt":"PLACEBO","dose":null,"doseu":null,"dosef":"QD","route":"ORAL","start_dtc":"2024-07-10","end_dtc":"2024-07-10","visit":null},{"seq":"117","trt":"PLACEBO","dose":null,"doseu":null,"dosef":"QD","route":"ORAL","start_dtc":"2024-07-11","end_dtc":"2024-07-11","visit":null},{"seq":"118","trt":"PLACEBO","dose":null,"doseu":null,"dosef":"QD","route":"ORAL","start_dtc":"2024-07-12","end_dtc":"2024-07-12","visit":null},{"seq":"119","trt":"PLACEBO","dose":null,"doseu":null,"dosef":"QD","route":"ORAL","start_dtc":"2024-07-13","end_dtc":"2024-07-13","visit":null},{"seq":"120","trt":"PLACEBO","dose":null,"doseu":null,"dosef":"QD","route":"ORAL","start_dtc":"2024-07-14","end_dtc":"2024-07-14","visit":null},{"seq":"121","trt":"PLACEBO","dose":null,"doseu":null,"dosef":"QD","route":"ORAL","start_dtc":"2024-07-15","end_dtc":"2024-07-15","visit":null},{"seq":"122","trt":"PLACEBO","dose":null,"doseu":null,"dosef":"QD","route":"ORAL","start_dtc":"2024-07-16","end_dtc":"2024-07-16","visit":null},{"seq":"123","trt":"PLACEBO","dose":null,"doseu":null,"dosef":"QD","route":"ORAL","start_dtc":"2024-07-17","end_dtc":"2024-07-17","visit":null},{"seq":"124","trt":"PLACEBO","dose":null,"doseu":null,"dosef":"QD","route":"ORAL","start_dtc":"2024-07-18","end_dtc":"2024-07-18","visit":null},{"seq":"125","trt":"PLACEBO","dose":null,"doseu":null,"dosef":"QD","route":"ORAL","start_dtc":"2024-07-19","end_dtc":"2024-07-19","visit":null},{"seq":"126","trt":"PLACEBO","dose":null,"doseu":null,"dosef":"QD","route":"ORAL","start_dtc":"2024-07-20","end_dtc":"2024-07-20","visit":null},{"seq":"127","trt":"PLACEBO","dose":null,"doseu":null,"dosef":"QD","route":"ORAL","start_dtc":"2024-07-21","end_dtc":"2024-07-21","visit":null},{"seq":"128","trt":"PLACEBO","dose":null,"doseu":null,"dosef":"QD","route":"ORAL","start_dtc":"2024-07-22","end_dtc":"2024-07-22","visit":null},{"seq":"129","trt":"PLACEBO","dose":null,"doseu":null,"dosef":"QD","route":"ORAL","start_dtc":"2024-07-23","end_dtc":"2024-07-23","visit":null},{"seq":"130","trt":"PLACEBO","dose":null,"doseu":null,"dosef":"QD","route":"ORAL","start_dtc":"2024-07-24","end_dtc":"2024-07-24","visit":null},{"seq":"131","trt":"PLACEBO","dose":null,"doseu":null,"dosef":"QD","route":"ORAL","start_dtc":"2024-07-25","end_dtc":"2024-07-25","visit":null},{"seq":"132","trt":"PLACEBO","dose":null,"doseu":null,"dosef":"QD","route":"ORAL","start_dtc":"2024-07-26","end_dtc":"2024-07-26","visit":null},{"seq":"133","trt":"PLACEBO","dose":null,"doseu":null,"dosef":"QD","route":"ORAL","start_dtc":"2024-07-27","end_dtc":"2024-07-27","visit":null},{"seq":"134","trt":"PLACEBO","dose":null,"doseu":null,"dosef":"QD","route":"ORAL","start_dtc":"2024-07-28","end_dtc":"2024-07-28","visit":null},{"seq":"135","trt":"PLACEBO","dose":null,"doseu":null,"dosef":"QD","route":"ORAL","start_dtc":"2024-07-29","end_dtc":"2024-07-29","visit":null},{"seq":"136","trt":"PLACEBO","dose":null,"doseu":null,"dosef":"QD","route":"ORAL","start_dtc":"2024-07-30","end_dtc":"2024-07-30","visit":null},{"seq":"137","trt":"PLACEBO","dose":null,"doseu":null,"dosef":"QD","route":"ORAL","start_dtc":"2024-07-31","end_dtc":"2024-07-31","visit":null},{"seq":"138","trt":"PLACEBO","dose":null,"doseu":null,"dosef":"QD","route":"ORAL","start_dtc":"2024-08-01","end_dtc":"2024-08-01","visit":null},{"seq":"139","trt":"PLACEBO","dose":null,"doseu":null,"dosef":"QD","route":"ORAL","start_dtc":"2024-08-02","end_dtc":"2024-08-02","visit":null},{"seq":"140","trt":"PLACEBO","dose":null,"doseu":null,"dosef":"QD","route":"ORAL","start_dtc":"2024-08-03","end_dtc":"2024-08-03","visit":null},{"seq":"141","trt":"PLACEBO","dose":null,"doseu":null,"dosef":"QD","route":"ORAL","start_dtc":"2024-08-04","end_dtc":"2024-08-04","visit":null},{"seq":"142","trt":"PLACEBO","dose":null,"doseu":null,"dosef":"QD","route":"ORAL","start_dtc":"2024-08-05","end_dtc":"2024-08-05","visit":null},{"seq":"143","trt":"PLACEBO","dose":null,"doseu":null,"dosef":"QD","route":"ORAL","start_dtc":"2024-08-06","end_dtc":"2024-08-06","visit":null},{"seq":"144","trt":"PLACEBO","dose":null,"doseu":null,"dosef":"QD","route":"ORAL","start_dtc":"2024-08-07","end_dtc":"2024-08-07","visit":null},{"seq":"145","trt":"PLACEBO","dose":null,"doseu":null,"dosef":"QD","route":"ORAL","start_dtc":"2024-08-08","end_dtc":"2024-08-08","visit":null},{"seq":"146","trt":"PLACEBO","dose":null,"doseu":null,"dosef":"QD","route":"ORAL","start_dtc":"2024-08-09","end_dtc":"2024-08-09","visit":null},{"seq":"147","trt":"PLACEBO","dose":null,"doseu":null,"dosef":"QD","route":"ORAL","start_dtc":"2024-08-10","end_dtc":"2024-08-10","visit":null},{"seq":"148","trt":"PLACEBO","dose":null,"doseu":null,"dosef":"QD","route":"ORAL","start_dtc":"2024-08-11","end_dtc":"2024-08-11","visit":null},{"seq":"149","trt":"PLACEBO","dose":null,"doseu":null,"dosef":"QD","route":"ORAL","start_dtc":"2024-08-12","end_dtc":"2024-08-12","visit":null},{"seq":"150","trt":"PLACEBO","dose":null,"doseu":null,"dosef":"QD","route":"ORAL","start_dtc":"2024-08-13","end_dtc":"2024-08-13","visit":null},{"seq":"151","trt":"PLACEBO","dose":null,"doseu":null,"dosef":"QD","route":"ORAL","start_dtc":"2024-08-14","end_dtc":"2024-08-14","visit":null},{"seq":"152","trt":"PLACEBO","dose":null,"doseu":null,"dosef":"QD","route":"ORAL","start_dtc":"2024-08-15","end_dtc":"2024-08-15","visit":null},{"seq":"153","trt":"PLACEBO","dose":null,"doseu":null,"dosef":"QD","route":"ORAL","start_dtc":"2024-08-16","end_dtc":"2024-08-16","visit":null},{"seq":"154","trt":"PLACEBO","dose":null,"doseu":null,"dosef":"QD","route":"ORAL","start_dtc":"2024-08-17","end_dtc":"2024-08-17","visit":null},{"seq":"155","trt":"PLACEBO","dose":null,"doseu":null,"dosef":"QD","route":"ORAL","start_dtc":"2024-08-18","end_dtc":"2024-08-18","visit":null},{"seq":"156","trt":"PLACEBO","dose":null,"doseu":null,"dosef":"QD","route":"ORAL","start_dtc":"2024-08-19","end_dtc":"2024-08-19","visit":null},{"seq":"157","trt":"PLACEBO","dose":null,"doseu":null,"dosef":"QD","route":"ORAL","start_dtc":"2024-08-20","end_dtc":"2024-08-20","visit":null},{"seq":"158","trt":"PLACEBO","dose":null,"doseu":null,"dosef":"QD","route":"ORAL","start_dtc":"2024-08-21","end_dtc":"2024-08-21","visit":null},{"seq":"159","trt":"PLACEBO","dose":null,"doseu":null,"dosef":"QD","route":"ORAL","start_dtc":"2024-08-22","end_dtc":"2024-08-22","visit":null},{"seq":"160","trt":"PLACEBO","dose":null,"doseu":null,"dosef":"QD","route":"ORAL","start_dtc":"2024-08-23","end_dtc":"2024-08-23","visit":null},{"seq":"161","trt":"PLACEBO","dose":null,"doseu":null,"dosef":"QD","route":"ORAL","start_dtc":"2024-08-24","end_dtc":"2024-08-24","visit":null},{"seq":"162","trt":"PLACEBO","dose":null,"doseu":null,"dosef":"QD","route":"ORAL","start_dtc":"2024-08-25","end_dtc":"2024-08-25","visit":null},{"seq":"163","trt":"PLACEBO","dose":null,"doseu":null,"dosef":"QD","route":"ORAL","start_dtc":"2024-08-26","end_dtc":"2024-08-26","visit":null},{"seq":"164","trt":"PLACEBO","dose":null,"doseu":null,"dosef":"QD","route":"ORAL","start_dtc":"2024-08-27","end_dtc":"2024-08-27","visit":null},{"seq":"165","trt":"PLACEBO","dose":null,"doseu":null,"dosef":"QD","route":"ORAL","start_dtc":"2024-08-28","end_dtc":"2024-08-28","visit":null},{"seq":"166","trt":"PLACEBO","dose":null,"doseu":null,"dosef":"QD","route":"ORAL","start_dtc":"2024-08-29","end_dtc":"2024-08-29","visit":null},{"seq":"167","trt":"PLACEBO","dose":null,"doseu":null,"dosef":"QD","route":"ORAL","start_dtc":"2024-08-30","end_dtc":"2024-08-30","visit":null},{"seq":"168","trt":"PLACEBO","dose":null,"doseu":null,"dosef":"QD","route":"ORAL","start_dtc":"2024-08-31","end_dtc":"2024-08-31","visit":null},{"seq":"169","trt":"PLACEBO","dose":null,"doseu":null,"dosef":"QD","route":"ORAL","start_dtc":"2024-09-01","end_dtc":"2024-09-01","visit":null},{"seq":"170","trt":"PLACEBO","dose":null,"doseu":null,"dosef":"QD","route":"ORAL","start_dtc":"2024-09-02","end_dtc":"2024-09-02","visit":null},{"seq":"171","trt":"PLACEBO","dose":null,"doseu":null,"dosef":"QD","route":"ORAL","start_dtc":"2024-09-03","end_dtc":"2024-09-03","visit":null},{"seq":"172","trt":"PLACEBO","dose":null,"doseu":null,"dosef":"QD","route":"ORAL","start_dtc":"2024-09-04","end_dtc":"2024-09-04","visit":null},{"seq":"173","trt":"PLACEBO","dose":null,"doseu":null,"dosef":"QD","route":"ORAL","start_dtc":"2024-09-05","end_dtc":"2024-09-05","visit":null},{"seq":"174","trt":"PLACEBO","dose":null,"doseu":null,"dosef":"QD","route":"ORAL","start_dtc":"2024-09-06","end_dtc":"2024-09-06","visit":null},{"seq":"175","trt":"PLACEBO","dose":null,"doseu":null,"dosef":"QD","route":"ORAL","start_dtc":"2024-09-07","end_dtc":"2024-09-07","visit":null},{"seq":"176","trt":"PLACEBO","dose":null,"doseu":null,"dosef":"QD","route":"ORAL","start_dtc":"2024-09-08","end_dtc":"2024-09-08","visit":null},{"seq":"177","trt":"PLACEBO","dose":null,"doseu":null,"dosef":"QD","route":"ORAL","start_dtc":"2024-09-09","end_dtc":"2024-09-09","visit":null},{"seq":"178","trt":"PLACEBO","dose":null,"doseu":null,"dosef":"QD","route":"ORAL","start_dtc":"2024-09-10","end_dtc":"2024-09-10","visit":null},{"seq":"179","trt":"PLACEBO","dose":null,"doseu":null,"dosef":"QD","route":"ORAL","start_dtc":"2024-09-11","end_dtc":"2024-09-11","visit":null},{"seq":"180","trt":"PLACEBO","dose":null,"doseu":null,"dosef":"QD","route":"ORAL","start_dtc":"2024-09-12","end_dtc":"2024-09-12","visit":"MONTH 6"},{"seq":"181","trt":"PLACEBO","dose":null,"doseu":null,"dosef":"QD","route":"ORAL","start_dtc":"2024-09-13","end_dtc":"2024-09-13","visit":"MONTH 6"},{"seq":"182","trt":"PLACEBO","dose":null,"doseu":null,"dosef":"QD","route":"ORAL","start_dtc":"2024-09-14","end_dtc":"2024-09-14","visit":"MONTH 6"},{"seq":"183","trt":"PLACEBO","dose":null,"doseu":null,"dosef":"QD","route":"ORAL","start_dtc":"2024-09-15","end_dtc":"2024-09-15","visit":"MONTH 6"},{"seq":"184","trt":"PLACEBO","dose":null,"doseu":null,"dosef":"QD","route":"ORAL","start_dtc":"2024-09-16","end_dtc":"2024-09-16","visit":"MONTH 6"},{"seq":"185","trt":"PLACEBO","dose":null,"doseu":null,"dosef":"QD","route":"ORAL","start_dtc":"2024-09-17","end_dtc":"2024-09-17","visit":"MONTH 6"},{"seq":"186","trt":"PLACEBO","dose":null,"doseu":null,"dosef":"QD","route":"ORAL","start_dtc":"2024-09-18","end_dtc":"2024-09-18","visit":"MONTH 6"},{"seq":"187","trt":"PLACEBO","dose":null,"doseu":null,"dosef":"QD","route":"ORAL","start_dtc":"2024-09-19","end_dtc":"2024-09-19","visit":null},{"seq":"188","trt":"PLACEBO","dose":null,"doseu":null,"dosef":"QD","route":"ORAL","start_dtc":"2024-09-20","end_dtc":"2024-09-20","visit":null},{"seq":"189","trt":"PLACEBO","dose":null,"doseu":null,"dosef":"QD","route":"ORAL","start_dtc":"2024-09-21","end_dtc":"2024-09-21","visit":null},{"seq":"190","trt":"PLACEBO","dose":null,"doseu":null,"dosef":"QD","route":"ORAL","start_dtc":"2024-09-22","end_dtc":"2024-09-22","visit":null},{"seq":"191","trt":"PLACEBO","dose":null,"doseu":null,"dosef":"QD","route":"ORAL","start_dtc":"2024-09-23","end_dtc":"2024-09-23","visit":null},{"seq":"192","trt":"PLACEBO","dose":null,"doseu":null,"dosef":"QD","route":"ORAL","start_dtc":"2024-09-24","end_dtc":"2024-09-24","visit":null},{"seq":"193","trt":"PLACEBO","dose":null,"doseu":null,"dosef":"QD","route":"ORAL","start_dtc":"2024-09-25","end_dtc":"2024-09-25","visit":null},{"seq":"194","trt":"PLACEBO","dose":null,"doseu":null,"dosef":"QD","route":"ORAL","start_dtc":"2024-09-26","end_dtc":"2024-09-26","visit":null},{"seq":"195","trt":"PLACEBO","dose":null,"doseu":null,"dosef":"QD","route":"ORAL","start_dtc":"2024-09-27","end_dtc":"2024-09-27","visit":null},{"seq":"196","trt":"PLACEBO","dose":null,"doseu":null,"dosef":"QD","route":"ORAL","start_dtc":"2024-09-28","end_dtc":"2024-09-28","visit":null},{"seq":"197","trt":"PLACEBO","dose":null,"doseu":null,"dosef":"QD","route":"ORAL","start_dtc":"2024-09-29","end_dtc":"2024-09-29","visit":null},{"seq":"198","trt":"PLACEBO","dose":null,"doseu":null,"dosef":"QD","route":"ORAL","start_dtc":"2024-09-30","end_dtc":"2024-09-30","visit":null},{"seq":"199","trt":"PLACEBO","dose":null,"doseu":null,"dosef":"QD","route":"ORAL","start_dtc":"2024-10-01","end_dtc":"2024-10-01","visit":null},{"seq":"200","trt":"PLACEBO","dose":null,"doseu":null,"dosef":"QD","route":"ORAL","start_dtc":"2024-10-02","end_dtc":"2024-10-02","visit":null},{"seq":"201","trt":"PLACEBO","dose":null,"doseu":null,"dosef":"QD","route":"ORAL","start_dtc":"2024-10-03","end_dtc":"2024-10-03","visit":null},{"seq":"202","trt":"PLACEBO","dose":null,"doseu":null,"dosef":"QD","route":"ORAL","start_dtc":"2024-10-04","end_dtc":"2024-10-04","visit":null},{"seq":"203","trt":"PLACEBO","dose":null,"doseu":null,"dosef":"QD","route":"ORAL","start_dtc":"2024-10-05","end_dtc":"2024-10-05","visit":null},{"seq":"204","trt":"PLACEBO","dose":null,"doseu":null,"dosef":"QD","route":"ORAL","start_dtc":"2024-10-06","end_dtc":"2024-10-06","visit":null},{"seq":"205","trt":"PLACEBO","dose":null,"doseu":null,"dosef":"QD","route":"ORAL","start_dtc":"2024-10-07","end_dtc":"2024-10-07","visit":null},{"seq":"206","trt":"PLACEBO","dose":null,"doseu":null,"dosef":"QD","route":"ORAL","start_dtc":"2024-10-08","end_dtc":"2024-10-08","visit":null},{"seq":"207","trt":"PLACEBO","dose":null,"doseu":null,"dosef":"QD","route":"ORAL","start_dtc":"2024-10-09","end_dtc":"2024-10-09","visit":null},{"seq":"208","trt":"PLACEBO","dose":null,"doseu":null,"dosef":"QD","route":"ORAL","start_dtc":"2024-10-10","end_dtc":"2024-10-10","visit":null},{"seq":"209","trt":"PLACEBO","dose":null,"doseu":null,"dosef":"QD","route":"ORAL","start_dtc":"2024-10-11","end_dtc":"2024-10-11","visit":null},{"seq":"210","trt":"PLACEBO","dose":null,"doseu":null,"dosef":"QD","route":"ORAL","start_dtc":"2024-10-12","end_dtc":"2024-10-12","visit":null},{"seq":"211","trt":"PLACEBO","dose":null,"doseu":null,"dosef":"QD","route":"ORAL","start_dtc":"2024-10-13","end_dtc":"2024-10-13","visit":null},{"seq":"212","trt":"PLACEBO","dose":null,"doseu":null,"dosef":"QD","route":"ORAL","start_dtc":"2024-10-14","end_dtc":"2024-10-14","visit":null},{"seq":"213","trt":"PLACEBO","dose":null,"doseu":null,"dosef":"QD","route":"ORAL","start_dtc":"2024-10-15","end_dtc":"2024-10-15","visit":null},{"seq":"214","trt":"PLACEBO","dose":null,"doseu":null,"dosef":"QD","route":"ORAL","start_dtc":"2024-10-16","end_dtc":"2024-10-16","visit":null},{"seq":"215","trt":"PLACEBO","dose":null,"doseu":null,"dosef":"QD","route":"ORAL","start_dtc":"2024-10-17","end_dtc":"2024-10-17","visit":null},{"seq":"216","trt":"PLACEBO","dose":null,"doseu":null,"dosef":"QD","route":"ORAL","start_dtc":"2024-10-18","end_dtc":"2024-10-18","visit":null},{"seq":"217","trt":"PLACEBO","dose":null,"doseu":null,"dosef":"QD","route":"ORAL","start_dtc":"2024-10-19","end_dtc":"2024-10-19","visit":null},{"seq":"218","trt":"PLACEBO","dose":null,"doseu":null,"dosef":"QD","route":"ORAL","start_dtc":"2024-10-20","end_dtc":"2024-10-20","visit":null},{"seq":"219","trt":"PLACEBO","dose":null,"doseu":null,"dosef":"QD","route":"ORAL","start_dtc":"2024-10-21","end_dtc":"2024-10-21","visit":null},{"seq":"220","trt":"PLACEBO","dose":null,"doseu":null,"dosef":"QD","route":"ORAL","start_dtc":"2024-10-22","end_dtc":"2024-10-22","visit":null},{"seq":"221","trt":"PLACEBO","dose":null,"doseu":null,"dosef":"QD","route":"ORAL","start_dtc":"2024-10-23","end_dtc":"2024-10-23","visit":null},{"seq":"222","trt":"PLACEBO","dose":null,"doseu":null,"dosef":"QD","route":"ORAL","start_dtc":"2024-10-24","end_dtc":"2024-10-24","visit":null},{"seq":"223","trt":"PLACEBO","dose":null,"doseu":null,"dosef":"QD","route":"ORAL","start_dtc":"2024-10-25","end_dtc":"2024-10-25","visit":null},{"seq":"224","trt":"PLACEBO","dose":null,"doseu":null,"dosef":"QD","route":"ORAL","start_dtc":"2024-10-26","end_dtc":"2024-10-26","visit":null},{"seq":"225","trt":"PLACEBO","dose":null,"doseu":null,"dosef":"QD","route":"ORAL","start_dtc":"2024-10-27","end_dtc":"2024-10-27","visit":null},{"seq":"226","trt":"PLACEBO","dose":null,"doseu":null,"dosef":"QD","route":"ORAL","start_dtc":"2024-10-28","end_dtc":"2024-10-28","visit":null},{"seq":"227","trt":"PLACEBO","dose":null,"doseu":null,"dosef":"QD","route":"ORAL","start_dtc":"2024-10-29","end_dtc":"2024-10-29","visit":null},{"seq":"228","trt":"PLACEBO","dose":null,"doseu":null,"dosef":"QD","route":"ORAL","start_dtc":"2024-10-30","end_dtc":"2024-10-30","visit":null},{"seq":"229","trt":"PLACEBO","dose":null,"doseu":null,"dosef":"QD","route":"ORAL","start_dtc":"2024-10-31","end_dtc":"2024-10-31","visit":null},{"seq":"230","trt":"PLACEBO","dose":null,"doseu":null,"dosef":"QD","route":"ORAL","start_dtc":"2024-11-01","end_dtc":"2024-11-01","visit":null},{"seq":"231","trt":"PLACEBO","dose":null,"doseu":null,"dosef":"QD","route":"ORAL","start_dtc":"2024-11-02","end_dtc":"2024-11-02","visit":null},{"seq":"232","trt":"PLACEBO","dose":null,"doseu":null,"dosef":"QD","route":"ORAL","start_dtc":"2024-11-03","end_dtc":"2024-11-03","visit":null},{"seq":"233","trt":"PLACEBO","dose":null,"doseu":null,"dosef":"QD","route":"ORAL","start_dtc":"2024-11-04","end_dtc":"2024-11-04","visit":null},{"seq":"234","trt":"PLACEBO","dose":null,"doseu":null,"dosef":"QD","route":"ORAL","start_dtc":"2024-11-05","end_dtc":"2024-11-05","visit":null},{"seq":"235","trt":"PLACEBO","dose":null,"doseu":null,"dosef":"QD","route":"ORAL","start_dtc":"2024-11-06","end_dtc":"2024-11-06","visit":null},{"seq":"236","trt":"PLACEBO","dose":null,"doseu":null,"dosef":"QD","route":"ORAL","start_dtc":"2024-11-07","end_dtc":"2024-11-07","visit":null},{"seq":"237","trt":"PLACEBO","dose":null,"doseu":null,"dosef":"QD","route":"ORAL","start_dtc":"2024-11-08","end_dtc":"2024-11-08","visit":null},{"seq":"238","trt":"PLACEBO","dose":null,"doseu":null,"dosef":"QD","route":"ORAL","start_dtc":"2024-11-09","end_dtc":"2024-11-09","visit":null},{"seq":"239","trt":"PLACEBO","dose":null,"doseu":null,"dosef":"QD","route":"ORAL","start_dtc":"2024-11-10","end_dtc":"2024-11-10","visit":null},{"seq":"240","trt":"PLACEBO","dose":null,"doseu":null,"dosef":"QD","route":"ORAL","start_dtc":"2024-11-11","end_dtc":"2024-11-11","visit":null},{"seq":"241","trt":"PLACEBO","dose":null,"doseu":null,"dosef":"QD","route":"ORAL","start_dtc":"2024-11-12","end_dtc":"2024-11-12","visit":null},{"seq":"242","trt":"PLACEBO","dose":null,"doseu":null,"dosef":"QD","route":"ORAL","start_dtc":"2024-11-13","end_dtc":"2024-11-13","visit":null},{"seq":"243","trt":"PLACEBO","dose":null,"doseu":null,"dosef":"QD","route":"ORAL","start_dtc":"2024-11-14","end_dtc":"2024-11-14","visit":null},{"seq":"244","trt":"PLACEBO","dose":null,"doseu":null,"dosef":"QD","route":"ORAL","start_dtc":"2024-11-15","end_dtc":"2024-11-15","visit":null},{"seq":"245","trt":"PLACEBO","dose":null,"doseu":null,"dosef":"QD","route":"ORAL","start_dtc":"2024-11-16","end_dtc":"2024-11-16","visit":null},{"seq":"246","trt":"PLACEBO","dose":null,"doseu":null,"dosef":"QD","route":"ORAL","start_dtc":"2024-11-17","end_dtc":"2024-11-17","visit":null},{"seq":"247","trt":"PLACEBO","dose":null,"doseu":null,"dosef":"QD","route":"ORAL","start_dtc":"2024-11-18","end_dtc":"2024-11-18","visit":null},{"seq":"248","trt":"PLACEBO","dose":null,"doseu":null,"dosef":"QD","route":"ORAL","start_dtc":"2024-11-19","end_dtc":"2024-11-19","visit":null},{"seq":"249","trt":"PLACEBO","dose":null,"doseu":null,"dosef":"QD","route":"ORAL","start_dtc":"2024-11-20","end_dtc":"2024-11-20","visit":null},{"seq":"250","trt":"PLACEBO","dose":null,"doseu":null,"dosef":"QD","route":"ORAL","start_dtc":"2024-11-21","end_dtc":"2024-11-21","visit":null},{"seq":"251","trt":"PLACEBO","dose":null,"doseu":null,"dosef":"QD","route":"ORAL","start_dtc":"2024-11-22","end_dtc":"2024-11-22","visit":null},{"seq":"252","trt":"PLACEBO","dose":null,"doseu":null,"dosef":"QD","route":"ORAL","start_dtc":"2024-11-23","end_dtc":"2024-11-23","visit":null},{"seq":"253","trt":"PLACEBO","dose":null,"doseu":null,"dosef":"QD","route":"ORAL","start_dtc":"2024-11-24","end_dtc":"2024-11-24","visit":null},{"seq":"254","trt":"PLACEBO","dose":null,"doseu":null,"dosef":"QD","route":"ORAL","start_dtc":"2024-11-25","end_dtc":"2024-11-25","visit":null},{"seq":"255","trt":"PLACEBO","dose":null,"doseu":null,"dosef":"QD","route":"ORAL","start_dtc":"2024-11-26","end_dtc":"2024-11-26","visit":null},{"seq":"256","trt":"PLACEBO","dose":null,"doseu":null,"dosef":"QD","route":"ORAL","start_dtc":"2024-11-27","end_dtc":"2024-11-27","visit":null},{"seq":"257","trt":"PLACEBO","dose":null,"doseu":null,"dosef":"QD","route":"ORAL","start_dtc":"2024-11-28","end_dtc":"2024-11-28","visit":null},{"seq":"258","trt":"PLACEBO","dose":null,"doseu":null,"dosef":"QD","route":"ORAL","start_dtc":"2024-11-29","end_dtc":"2024-11-29","visit":null},{"seq":"259","trt":"PLACEBO","dose":null,"doseu":null,"dosef":"QD","route":"ORAL","start_dtc":"2024-11-30","end_dtc":"2024-11-30","visit":null},{"seq":"260","trt":"PLACEBO","dose":null,"doseu":null,"dosef":"QD","route":"ORAL","start_dtc":"2024-12-01","end_dtc":"2024-12-01","visit":null},{"seq":"261","trt":"PLACEBO","dose":null,"doseu":null,"dosef":"QD","route":"ORAL","start_dtc":"2024-12-02","end_dtc":"2024-12-02","visit":null},{"seq":"262","trt":"PLACEBO","dose":null,"doseu":null,"dosef":"QD","route":"ORAL","start_dtc":"2024-12-03","end_dtc":"2024-12-03","visit":null},{"seq":"263","trt":"PLACEBO","dose":null,"doseu":null,"dosef":"QD","route":"ORAL","start_dtc":"2024-12-04","end_dtc":"2024-12-04","visit":null},{"seq":"264","trt":"PLACEBO","dose":null,"doseu":null,"dosef":"QD","route":"ORAL","start_dtc":"2024-12-05","end_dtc":"2024-12-05","visit":null},{"seq":"265","trt":"PLACEBO","dose":null,"doseu":null,"dosef":"QD","route":"ORAL","start_dtc":"2024-12-06","end_dtc":"2024-12-06","visit":null},{"seq":"266","trt":"PLACEBO","dose":null,"doseu":null,"dosef":"QD","route":"ORAL","start_dtc":"2024-12-07","end_dtc":"2024-12-07","visit":null},{"seq":"267","trt":"PLACEBO","dose":null,"doseu":null,"dosef":"QD","route":"ORAL","start_dtc":"2024-12-08","end_dtc":"2024-12-08","visit":null},{"seq":"268","trt":"PLACEBO","dose":null,"doseu":null,"dosef":"QD","route":"ORAL","start_dtc":"2024-12-09","end_dtc":"2024-12-09","visit":null},{"seq":"269","trt":"PLACEBO","dose":null,"doseu":null,"dosef":"QD","route":"ORAL","start_dtc":"2024-12-10","end_dtc":"2024-12-10","visit":null},{"seq":"270","trt":"PLACEBO","dose":null,"doseu":null,"dosef":"QD","route":"ORAL","start_dtc":"2024-12-11","end_dtc":"2024-12-11","visit":null},{"seq":"271","trt":"PLACEBO","dose":null,"doseu":null,"dosef":"QD","route":"ORAL","start_dtc":"2024-12-12","end_dtc":"2024-12-12","visit":null},{"seq":"272","trt":"PLACEBO","dose":null,"doseu":null,"dosef":"QD","route":"ORAL","start_dtc":"2024-12-13","end_dtc":"2024-12-13","visit":null},{"seq":"273","trt":"PLACEBO","dose":null,"doseu":null,"dosef":"QD","route":"ORAL","start_dtc":"2024-12-14","end_dtc":"2024-12-14","visit":null},{"seq":"274","trt":"PLACEBO","dose":null,"doseu":null,"dosef":"QD","route":"ORAL","start_dtc":"2024-12-15","end_dtc":"2024-12-15","visit":null},{"seq":"275","trt":"PLACEBO","dose":null,"doseu":null,"dosef":"QD","route":"ORAL","start_dtc":"2024-12-16","end_dtc":"2024-12-16","visit":null},{"seq":"276","trt":"PLACEBO","dose":null,"doseu":null,"dosef":"QD","route":"ORAL","start_dtc":"2024-12-17","end_dtc":"2024-12-17","visit":null},{"seq":"277","trt":"PLACEBO","dose":null,"doseu":null,"dosef":"QD","route":"ORAL","start_dtc":"2024-12-18","end_dtc":"2024-12-18","visit":null},{"seq":"278","trt":"PLACEBO","dose":null,"doseu":null,"dosef":"QD","route":"ORAL","start_dtc":"2024-12-19","end_dtc":"2024-12-19","visit":null},{"seq":"279","trt":"PLACEBO","dose":null,"doseu":null,"dosef":"QD","route":"ORAL","start_dtc":"2024-12-20","end_dtc":"2024-12-20","visit":null},{"seq":"280","trt":"PLACEBO","dose":null,"doseu":null,"dosef":"QD","route":"ORAL","start_dtc":"2024-12-21","end_dtc":"2024-12-21","visit":null},{"seq":"281","trt":"PLACEBO","dose":null,"doseu":null,"dosef":"QD","route":"ORAL","start_dtc":"2024-12-22","end_dtc":"2024-12-22","visit":null},{"seq":"282","trt":"PLACEBO","dose":null,"doseu":null,"dosef":"QD","route":"ORAL","start_dtc":"2024-12-23","end_dtc":"2024-12-23","visit":null},{"seq":"283","trt":"PLACEBO","dose":null,"doseu":null,"dosef":"QD","route":"ORAL","start_dtc":"2024-12-24","end_dtc":"2024-12-24","visit":null},{"seq":"284","trt":"PLACEBO","dose":null,"doseu":null,"dosef":"QD","route":"ORAL","start_dtc":"2024-12-25","end_dtc":"2024-12-25","visit":null},{"seq":"285","trt":"PLACEBO","dose":null,"doseu":null,"dosef":"QD","route":"ORAL","start_dtc":"2024-12-26","end_dtc":"2024-12-26","visit":null},{"seq":"286","trt":"PLACEBO","dose":null,"doseu":null,"dosef":"QD","route":"ORAL","start_dtc":"2024-12-27","end_dtc":"2024-12-27","visit":null},{"seq":"287","trt":"PLACEBO","dose":null,"doseu":null,"dosef":"QD","route":"ORAL","start_dtc":"2024-12-28","end_dtc":"2024-12-28","visit":null},{"seq":"288","trt":"PLACEBO","dose":null,"doseu":null,"dosef":"QD","route":"ORAL","start_dtc":"2024-12-29","end_dtc":"2024-12-29","visit":null},{"seq":"289","trt":"PLACEBO","dose":null,"doseu":null,"dosef":"QD","route":"ORAL","start_dtc":"2024-12-30","end_dtc":"2024-12-30","visit":null},{"seq":"290","trt":"PLACEBO","dose":null,"doseu":null,"dosef":"QD","route":"ORAL","start_dtc":"2024-12-31","end_dtc":"2024-12-31","visit":null},{"seq":"291","trt":"PLACEBO","dose":null,"doseu":null,"dosef":"QD","route":"ORAL","start_dtc":"2025-01-01","end_dtc":"2025-01-01","visit":null},{"seq":"292","trt":"PLACEBO","dose":null,"doseu":null,"dosef":"QD","route":"ORAL","start_dtc":"2025-01-02","end_dtc":"2025-01-02","visit":null},{"seq":"293","trt":"PLACEBO","dose":null,"doseu":null,"dosef":"QD","route":"ORAL","start_dtc":"2025-01-03","end_dtc":"2025-01-03","visit":null},{"seq":"294","trt":"PLACEBO","dose":null,"doseu":null,"dosef":"QD","route":"ORAL","start_dtc":"2025-01-04","end_dtc":"2025-01-04","visit":null},{"seq":"295","trt":"PLACEBO","dose":null,"doseu":null,"dosef":"QD","route":"ORAL","start_dtc":"2025-01-05","end_dtc":"2025-01-05","visit":null},{"seq":"296","trt":"PLACEBO","dose":null,"doseu":null,"dosef":"QD","route":"ORAL","start_dtc":"2025-01-06","end_dtc":"2025-01-06","visit":null},{"seq":"297","trt":"PLACEBO","dose":null,"doseu":null,"dosef":"QD","route":"ORAL","start_dtc":"2025-01-07","end_dtc":"2025-01-07","visit":null},{"seq":"298","trt":"PLACEBO","dose":null,"doseu":null,"dosef":"QD","route":"ORAL","start_dtc":"2025-01-08","end_dtc":"2025-01-08","visit":null},{"seq":"299","trt":"PLACEBO","dose":null,"doseu":null,"dosef":"QD","route":"ORAL","start_dtc":"2025-01-09","end_dtc":"2025-01-09","visit":null},{"seq":"300","trt":"PLACEBO","dose":null,"doseu":null,"dosef":"QD","route":"ORAL","start_dtc":"2025-01-10","end_dtc":"2025-01-10","visit":null},{"seq":"301","trt":"PLACEBO","dose":null,"doseu":null,"dosef":"QD","route":"ORAL","start_dtc":"2025-01-11","end_dtc":"2025-01-11","visit":null},{"seq":"302","trt":"PLACEBO","dose":null,"doseu":null,"dosef":"QD","route":"ORAL","start_dtc":"2025-01-12","end_dtc":"2025-01-12","visit":null},{"seq":"303","trt":"PLACEBO","dose":null,"doseu":null,"dosef":"QD","route":"ORAL","start_dtc":"2025-01-13","end_dtc":"2025-01-13","visit":null},{"seq":"304","trt":"PLACEBO","dose":null,"doseu":null,"dosef":"QD","route":"ORAL","start_dtc":"2025-01-14","end_dtc":"2025-01-14","visit":null},{"seq":"305","trt":"PLACEBO","dose":null,"doseu":null,"dosef":"QD","route":"ORAL","start_dtc":"2025-01-15","end_dtc":"2025-01-15","visit":null},{"seq":"306","trt":"PLACEBO","dose":null,"doseu":null,"dosef":"QD","route":"ORAL","start_dtc":"2025-01-16","end_dtc":"2025-01-16","visit":null},{"seq":"307","trt":"PLACEBO","dose":null,"doseu":null,"dosef":"QD","route":"ORAL","start_dtc":"2025-01-17","end_dtc":"2025-01-17","visit":null},{"seq":"308","trt":"PLACEBO","dose":null,"doseu":null,"dosef":"QD","route":"ORAL","start_dtc":"2025-01-18","end_dtc":"2025-01-18","visit":null},{"seq":"309","trt":"PLACEBO","dose":null,"doseu":null,"dosef":"QD","route":"ORAL","start_dtc":"2025-01-19","end_dtc":"2025-01-19","visit":null},{"seq":"310","trt":"PLACEBO","dose":null,"doseu":null,"dosef":"QD","route":"ORAL","start_dtc":"2025-01-20","end_dtc":"2025-01-20","visit":null},{"seq":"311","trt":"PLACEBO","dose":null,"doseu":null,"dosef":"QD","route":"ORAL","start_dtc":"2025-01-21","end_dtc":"2025-01-21","visit":null},{"seq":"312","trt":"PLACEBO","dose":null,"doseu":null,"dosef":"QD","route":"ORAL","start_dtc":"2025-01-22","end_dtc":"2025-01-22","visit":null},{"seq":"313","trt":"PLACEBO","dose":null,"doseu":null,"dosef":"QD","route":"ORAL","start_dtc":"2025-01-23","end_dtc":"2025-01-23","visit":null},{"seq":"314","trt":"PLACEBO","dose":null,"doseu":null,"dosef":"QD","route":"ORAL","start_dtc":"2025-01-24","end_dtc":"2025-01-24","visit":null},{"seq":"315","trt":"PLACEBO","dose":null,"doseu":null,"dosef":"QD","route":"ORAL","start_dtc":"2025-01-25","end_dtc":"2025-01-25","visit":null},{"seq":"316","trt":"PLACEBO","dose":null,"doseu":null,"dosef":"QD","route":"ORAL","start_dtc":"2025-01-26","end_dtc":"2025-01-26","visit":null},{"seq":"317","trt":"PLACEBO","dose":null,"doseu":null,"dosef":"QD","route":"ORAL","start_dtc":"2025-01-27","end_dtc":"2025-01-27","visit":null},{"seq":"318","trt":"PLACEBO","dose":null,"doseu":null,"dosef":"QD","route":"ORAL","start_dtc":"2025-01-28","end_dtc":"2025-01-28","visit":null},{"seq":"319","trt":"PLACEBO","dose":null,"doseu":null,"dosef":"QD","route":"ORAL","start_dtc":"2025-01-29","end_dtc":"2025-01-29","visit":null},{"seq":"320","trt":"PLACEBO","dose":null,"doseu":null,"dosef":"QD","route":"ORAL","start_dtc":"2025-01-30","end_dtc":"2025-01-30","visit":null},{"seq":"321","trt":"PLACEBO","dose":null,"doseu":null,"dosef":"QD","route":"ORAL","start_dtc":"2025-01-31","end_dtc":"2025-01-31","visit":null},{"seq":"322","trt":"PLACEBO","dose":null,"doseu":null,"dosef":"QD","route":"ORAL","start_dtc":"2025-02-01","end_dtc":"2025-02-01","visit":null},{"seq":"323","trt":"PLACEBO","dose":null,"doseu":null,"dosef":"QD","route":"ORAL","start_dtc":"2025-02-02","end_dtc":"2025-02-02","visit":null},{"seq":"324","trt":"PLACEBO","dose":null,"doseu":null,"dosef":"QD","route":"ORAL","start_dtc":"2025-02-03","end_dtc":"2025-02-03","visit":null},{"seq":"325","trt":"PLACEBO","dose":null,"doseu":null,"dosef":"QD","route":"ORAL","start_dtc":"2025-02-04","end_dtc":"2025-02-04","visit":null},{"seq":"326","trt":"PLACEBO","dose":null,"doseu":null,"dosef":"QD","route":"ORAL","start_dtc":"2025-02-05","end_dtc":"2025-02-05","visit":null},{"seq":"327","trt":"PLACEBO","dose":null,"doseu":null,"dosef":"QD","route":"ORAL","start_dtc":"2025-02-06","end_dtc":"2025-02-06","visit":null},{"seq":"328","trt":"PLACEBO","dose":null,"doseu":null,"dosef":"QD","route":"ORAL","start_dtc":"2025-02-07","end_dtc":"2025-02-07","visit":null},{"seq":"329","trt":"PLACEBO","dose":null,"doseu":null,"dosef":"QD","route":"ORAL","start_dtc":"2025-02-08","end_dtc":"2025-02-08","visit":null},{"seq":"330","trt":"PLACEBO","dose":null,"doseu":null,"dosef":"QD","route":"ORAL","start_dtc":"2025-02-09","end_dtc":"2025-02-09","visit":null},{"seq":"331","trt":"PLACEBO","dose":null,"doseu":null,"dosef":"QD","route":"ORAL","start_dtc":"2025-02-10","end_dtc":"2025-02-10","visit":null},{"seq":"332","trt":"PLACEBO","dose":null,"doseu":null,"dosef":"QD","route":"ORAL","start_dtc":"2025-02-11","end_dtc":"2025-02-11","visit":null},{"seq":"333","trt":"PLACEBO","dose":null,"doseu":null,"dosef":"QD","route":"ORAL","start_dtc":"2025-02-12","end_dtc":"2025-02-12","visit":null},{"seq":"334","trt":"PLACEBO","dose":null,"doseu":null,"dosef":"QD","route":"ORAL","start_dtc":"2025-02-13","end_dtc":"2025-02-13","visit":null},{"seq":"335","trt":"PLACEBO","dose":null,"doseu":null,"dosef":"QD","route":"ORAL","start_dtc":"2025-02-14","end_dtc":"2025-02-14","visit":null},{"seq":"336","trt":"PLACEBO","dose":null,"doseu":null,"dosef":"QD","route":"ORAL","start_dtc":"2025-02-15","end_dtc":"2025-02-15","visit":null},{"seq":"337","trt":"PLACEBO","dose":null,"doseu":null,"dosef":"QD","route":"ORAL","start_dtc":"2025-02-16","end_dtc":"2025-02-16","visit":null},{"seq":"338","trt":"PLACEBO","dose":null,"doseu":null,"dosef":"QD","route":"ORAL","start_dtc":"2025-02-17","end_dtc":"2025-02-17","visit":null},{"seq":"339","trt":"PLACEBO","dose":null,"doseu":null,"dosef":"QD","route":"ORAL","start_dtc":"2025-02-18","end_dtc":"2025-02-18","visit":null},{"seq":"340","trt":"PLACEBO","dose":null,"doseu":null,"dosef":"QD","route":"ORAL","start_dtc":"2025-02-19","end_dtc":"2025-02-19","visit":null},{"seq":"341","trt":"PLACEBO","dose":null,"doseu":null,"dosef":"QD","route":"ORAL","start_dtc":"2025-02-20","end_dtc":"2025-02-20","visit":null},{"seq":"342","trt":"PLACEBO","dose":null,"doseu":null,"dosef":"QD","route":"ORAL","start_dtc":"2025-02-21","end_dtc":"2025-02-21","visit":null},{"seq":"343","trt":"PLACEBO","dose":null,"doseu":null,"dosef":"QD","route":"ORAL","start_dtc":"2025-02-22","end_dtc":"2025-02-22","visit":null},{"seq":"344","trt":"PLACEBO","dose":null,"doseu":null,"dosef":"QD","route":"ORAL","start_dtc":"2025-02-23","end_dtc":"2025-02-23","visit":null},{"seq":"345","trt":"PLACEBO","dose":null,"doseu":null,"dosef":"QD","route":"ORAL","start_dtc":"2025-02-24","end_dtc":"2025-02-24","visit":null},{"seq":"346","trt":"PLACEBO","dose":null,"doseu":null,"dosef":"QD","route":"ORAL","start_dtc":"2025-02-25","end_dtc":"2025-02-25","visit":null},{"seq":"347","trt":"PLACEBO","dose":null,"doseu":null,"dosef":"QD","route":"ORAL","start_dtc":"2025-02-26","end_dtc":"2025-02-26","visit":null},{"seq":"348","trt":"PLACEBO","dose":null,"doseu":null,"dosef":"QD","route":"ORAL","start_dtc":"2025-02-27","end_dtc":"2025-02-27","visit":null},{"seq":"349","trt":"PLACEBO","dose":null,"doseu":null,"dosef":"QD","route":"ORAL","start_dtc":"2025-02-28","end_dtc":"2025-02-28","visit":null},{"seq":"350","trt":"PLACEBO","dose":null,"doseu":null,"dosef":"QD","route":"ORAL","start_dtc":"2025-03-01","end_dtc":"2025-03-01","visit":null},{"seq":"351","trt":"PLACEBO","dose":null,"doseu":null,"dosef":"QD","route":"ORAL","start_dtc":"2025-03-02","end_dtc":"2025-03-02","visit":null},{"seq":"352","trt":"PLACEBO","dose":null,"doseu":null,"dosef":"QD","route":"ORAL","start_dtc":"2025-03-03","end_dtc":"2025-03-03","visit":null},{"seq":"353","trt":"PLACEBO","dose":null,"doseu":null,"dosef":"QD","route":"ORAL","start_dtc":"2025-03-04","end_dtc":"2025-03-04","visit":null},{"seq":"354","trt":"PLACEBO","dose":null,"doseu":null,"dosef":"QD","route":"ORAL","start_dtc":"2025-03-05","end_dtc":"2025-03-05","visit":null},{"seq":"355","trt":"PLACEBO","dose":null,"doseu":null,"dosef":"QD","route":"ORAL","start_dtc":"2025-03-06","end_dtc":"2025-03-06","visit":null},{"seq":"356","trt":"PLACEBO","dose":null,"doseu":null,"dosef":"QD","route":"ORAL","start_dtc":"2025-03-07","end_dtc":"2025-03-07","visit":null},{"seq":"357","trt":"PLACEBO","dose":null,"doseu":null,"dosef":"QD","route":"ORAL","start_dtc":"2025-03-08","end_dtc":"2025-03-08","visit":null},{"seq":"358","trt":"PLACEBO","dose":null,"doseu":null,"dosef":"QD","route":"ORAL","start_dtc":"2025-03-09","end_dtc":"2025-03-09","visit":null},{"seq":"359","trt":"PLACEBO","dose":null,"doseu":null,"dosef":"QD","route":"ORAL","start_dtc":"2025-03-10","end_dtc":"2025-03-10","visit":null},{"seq":"360","trt":"PLACEBO","dose":null,"doseu":null,"dosef":"QD","route":"ORAL","start_dtc":"2025-03-11","end_dtc":"2025-03-11","visit":null},{"seq":"361","trt":"PLACEBO","dose":null,"doseu":null,"dosef":"QD","route":"ORAL","start_dtc":"2025-03-12","end_dtc":"2025-03-12","visit":null},{"seq":"362","trt":"PLACEBO","dose":null,"doseu":null,"dosef":"QD","route":"ORAL","start_dtc":"2025-03-13","end_dtc":"2025-03-13","visit":"MONTH 12"},{"seq":"363","trt":"PLACEBO","dose":null,"doseu":null,"dosef":"QD","route":"ORAL","start_dtc":"2025-03-14","end_dtc":"2025-03-14","visit":"MONTH 12"},{"seq":"364","trt":"PLACEBO","dose":null,"doseu":null,"dosef":"QD","route":"ORAL","start_dtc":"2025-03-15","end_dtc":"2025-03-15","visit":"MONTH 12"},{"seq":"365","trt":"PLACEBO","dose":null,"doseu":null,"dosef":"QD","route":"ORAL","start_dtc":"2025-03-16","end_dtc":"2025-03-16","visit":"MONTH 12"},{"seq":"366","trt":"PLACEBO","dose":null,"doseu":null,"dosef":"QD","route":"ORAL","start_dtc":"2025-03-17","end_dtc":"2025-03-17","visit":"MONTH 12"},{"seq":"367","trt":"PLACEBO","dose":null,"doseu":null,"dosef":"QD","route":"ORAL","start_dtc":"2025-03-18","end_dtc":"2025-03-18","visit":"MONTH 12"},{"seq":"368","trt":"PLACEBO","dose":null,"doseu":null,"dosef":"QD","route":"ORAL","start_dtc":"2025-03-19","end_dtc":"2025-03-19","visit":"MONTH 12"},{"seq":"369","trt":"PLACEBO","dose":null,"doseu":null,"dosef":"QD","route":"ORAL","start_dtc":"2025-03-20","end_dtc":"2025-03-20","visit":null},{"seq":"370","trt":"PLACEBO","dose":null,"doseu":null,"dosef":"QD","route":"ORAL","start_dtc":"2025-03-21","end_dtc":"2025-03-21","visit":null},{"seq":"371","trt":"PLACEBO","dose":null,"doseu":null,"dosef":"QD","route":"ORAL","start_dtc":"2025-03-22","end_dtc":"2025-03-22","visit":null},{"seq":"372","trt":"PLACEBO","dose":null,"doseu":null,"dosef":"QD","route":"ORAL","start_dtc":"2025-03-23","end_dtc":"2025-03-23","visit":null},{"seq":"373","trt":"PLACEBO","dose":null,"doseu":null,"dosef":"QD","route":"ORAL","start_dtc":"2025-03-24","end_dtc":"2025-03-24","visit":null},{"seq":"374","trt":"PLACEBO","dose":null,"doseu":null,"dosef":"QD","route":"ORAL","start_dtc":"2025-03-25","end_dtc":"2025-03-25","visit":null},{"seq":"375","trt":"PLACEBO","dose":null,"doseu":null,"dosef":"QD","route":"ORAL","start_dtc":"2025-03-26","end_dtc":"2025-03-26","visit":null},{"seq":"376","trt":"PLACEBO","dose":null,"doseu":null,"dosef":"QD","route":"ORAL","start_dtc":"2025-03-27","end_dtc":"2025-03-27","visit":null},{"seq":"377","trt":"PLACEBO","dose":null,"doseu":null,"dosef":"QD","route":"ORAL","start_dtc":"2025-03-28","end_dtc":"2025-03-28","visit":null},{"seq":"378","trt":"PLACEBO","dose":null,"doseu":null,"dosef":"QD","route":"ORAL","start_dtc":"2025-03-29","end_dtc":"2025-03-29","visit":null},{"seq":"379","trt":"PLACEBO","dose":null,"doseu":null,"dosef":"QD","route":"ORAL","start_dtc":"2025-03-30","end_dtc":"2025-03-30","visit":null},{"seq":"380","trt":"PLACEBO","dose":null,"doseu":null,"dosef":"QD","route":"ORAL","start_dtc":"2025-03-31","end_dtc":"2025-03-31","visit":null},{"seq":"381","trt":"PLACEBO","dose":null,"doseu":null,"dosef":"QD","route":"ORAL","start_dtc":"2025-04-01","end_dtc":"2025-04-01","visit":null},{"seq":"382","trt":"PLACEBO","dose":null,"doseu":null,"dosef":"QD","route":"ORAL","start_dtc":"2025-04-02","end_dtc":"2025-04-02","visit":null},{"seq":"383","trt":"PLACEBO","dose":null,"doseu":null,"dosef":"QD","route":"ORAL","start_dtc":"2025-04-03","end_dtc":"2025-04-03","visit":null},{"seq":"384","trt":"PLACEBO","dose":null,"doseu":null,"dosef":"QD","route":"ORAL","start_dtc":"2025-04-04","end_dtc":"2025-04-04","visit":null},{"seq":"385","trt":"PLACEBO","dose":null,"doseu":null,"dosef":"QD","route":"ORAL","start_dtc":"2025-04-05","end_dtc":"2025-04-05","visit":null},{"seq":"386","trt":"PLACEBO","dose":null,"doseu":null,"dosef":"QD","route":"ORAL","start_dtc":"2025-04-06","end_dtc":"2025-04-06","visit":null},{"seq":"387","trt":"PLACEBO","dose":null,"doseu":null,"dosef":"QD","route":"ORAL","start_dtc":"2025-04-07","end_dtc":"2025-04-07","visit":null},{"seq":"388","trt":"PLACEBO","dose":null,"doseu":null,"dosef":"QD","route":"ORAL","start_dtc":"2025-04-08","end_dtc":"2025-04-08","visit":null},{"seq":"389","trt":"PLACEBO","dose":null,"doseu":null,"dosef":"QD","route":"ORAL","start_dtc":"2025-04-09","end_dtc":"2025-04-09","visit":null},{"seq":"390","trt":"PLACEBO","dose":null,"doseu":null,"dosef":"QD","route":"ORAL","start_dtc":"2025-04-10","end_dtc":"2025-04-10","visit":null},{"seq":"391","trt":"PLACEBO","dose":null,"doseu":null,"dosef":"QD","route":"ORAL","start_dtc":"2025-04-11","end_dtc":"2025-04-11","visit":null},{"seq":"392","trt":"PLACEBO","dose":null,"doseu":null,"dosef":"QD","route":"ORAL","start_dtc":"2025-04-12","end_dtc":"2025-04-12","visit":null},{"seq":"393","trt":"PLACEBO","dose":null,"doseu":null,"dosef":"QD","route":"ORAL","start_dtc":"2025-04-13","end_dtc":"2025-04-13","visit":null},{"seq":"394","trt":"PLACEBO","dose":null,"doseu":null,"dosef":"QD","route":"ORAL","start_dtc":"2025-04-14","end_dtc":"2025-04-14","visit":null},{"seq":"395","trt":"PLACEBO","dose":null,"doseu":null,"dosef":"QD","route":"ORAL","start_dtc":"2025-04-15","end_dtc":"2025-04-15","visit":null},{"seq":"396","trt":"PLACEBO","dose":null,"doseu":null,"dosef":"QD","route":"ORAL","start_dtc":"2025-04-16","end_dtc":"2025-04-16","visit":null},{"seq":"397","trt":"PLACEBO","dose":null,"doseu":null,"dosef":"QD","route":"ORAL","start_dtc":"2025-04-17","end_dtc":"2025-04-17","visit":null},{"seq":"398","trt":"PLACEBO","dose":null,"doseu":null,"dosef":"QD","route":"ORAL","start_dtc":"2025-04-18","end_dtc":"2025-04-18","visit":null},{"seq":"399","trt":"PLACEBO","dose":null,"doseu":null,"dosef":"QD","route":"ORAL","start_dtc":"2025-04-19","end_dtc":"2025-04-19","visit":null},{"seq":"400","trt":"PLACEBO","dose":null,"doseu":null,"dosef":"QD","route":"ORAL","start_dtc":"2025-04-20","end_dtc":"2025-04-20","visit":null},{"seq":"401","trt":"PLACEBO","dose":null,"doseu":null,"dosef":"QD","route":"ORAL","start_dtc":"2025-04-21","end_dtc":"2025-04-21","visit":null},{"seq":"402","trt":"PLACEBO","dose":null,"doseu":null,"dosef":"QD","route":"ORAL","start_dtc":"2025-04-22","end_dtc":"2025-04-22","visit":null},{"seq":"403","trt":"PLACEBO","dose":null,"doseu":null,"dosef":"QD","route":"ORAL","start_dtc":"2025-04-23","end_dtc":"2025-04-23","visit":null},{"seq":"404","trt":"PLACEBO","dose":null,"doseu":null,"dosef":"QD","route":"ORAL","start_dtc":"2025-04-24","end_dtc":"2025-04-24","visit":null},{"seq":"405","trt":"PLACEBO","dose":null,"doseu":null,"dosef":"QD","route":"ORAL","start_dtc":"2025-04-25","end_dtc":"2025-04-25","visit":null},{"seq":"406","trt":"PLACEBO","dose":null,"doseu":null,"dosef":"QD","route":"ORAL","start_dtc":"2025-04-26","end_dtc":"2025-04-26","visit":null},{"seq":"407","trt":"PLACEBO","dose":null,"doseu":null,"dosef":"QD","route":"ORAL","start_dtc":"2025-04-27","end_dtc":"2025-04-27","visit":null},{"seq":"408","trt":"PLACEBO","dose":null,"doseu":null,"dosef":"QD","route":"ORAL","start_dtc":"2025-04-28","end_dtc":"2025-04-28","visit":null},{"seq":"409","trt":"PLACEBO","dose":null,"doseu":null,"dosef":"QD","route":"ORAL","start_dtc":"2025-04-29","end_dtc":"2025-04-29","visit":null},{"seq":"410","trt":"PLACEBO","dose":null,"doseu":null,"dosef":"QD","route":"ORAL","start_dtc":"2025-04-30","end_dtc":"2025-04-30","visit":null},{"seq":"411","trt":"PLACEBO","dose":null,"doseu":null,"dosef":"QD","route":"ORAL","start_dtc":"2025-05-01","end_dtc":"2025-05-01","visit":null},{"seq":"412","trt":"PLACEBO","dose":null,"doseu":null,"dosef":"QD","route":"ORAL","start_dtc":"2025-05-02","end_dtc":"2025-05-02","visit":null},{"seq":"413","trt":"PLACEBO","dose":null,"doseu":null,"dosef":"QD","route":"ORAL","start_dtc":"2025-05-03","end_dtc":"2025-05-03","visit":null},{"seq":"414","trt":"PLACEBO","dose":null,"doseu":null,"dosef":"QD","route":"ORAL","start_dtc":"2025-05-04","end_dtc":"2025-05-04","visit":null},{"seq":"415","trt":"PLACEBO","dose":null,"doseu":null,"dosef":"QD","route":"ORAL","start_dtc":"2025-05-05","end_dtc":"2025-05-05","visit":null},{"seq":"416","trt":"PLACEBO","dose":null,"doseu":null,"dosef":"QD","route":"ORAL","start_dtc":"2025-05-06","end_dtc":"2025-05-06","visit":null},{"seq":"417","trt":"PLACEBO","dose":null,"doseu":null,"dosef":"QD","route":"ORAL","start_dtc":"2025-05-07","end_dtc":"2025-05-07","visit":null},{"seq":"418","trt":"PLACEBO","dose":null,"doseu":null,"dosef":"QD","route":"ORAL","start_dtc":"2025-05-08","end_dtc":"2025-05-08","visit":null},{"seq":"419","trt":"PLACEBO","dose":null,"doseu":null,"dosef":"QD","route":"ORAL","start_dtc":"2025-05-09","end_dtc":"2025-05-09","visit":null},{"seq":"420","trt":"PLACEBO","dose":null,"doseu":null,"dosef":"QD","route":"ORAL","start_dtc":"2025-05-10","end_dtc":"2025-05-10","visit":null},{"seq":"421","trt":"PLACEBO","dose":null,"doseu":null,"dosef":"QD","route":"ORAL","start_dtc":"2025-05-11","end_dtc":"2025-05-11","visit":null},{"seq":"422","trt":"PLACEBO","dose":null,"doseu":null,"dosef":"QD","route":"ORAL","start_dtc":"2025-05-12","end_dtc":"2025-05-12","visit":null},{"seq":"423","trt":"PLACEBO","dose":null,"doseu":null,"dosef":"QD","route":"ORAL","start_dtc":"2025-05-13","end_dtc":"2025-05-13","visit":null},{"seq":"424","trt":"PLACEBO","dose":null,"doseu":null,"dosef":"QD","route":"ORAL","start_dtc":"2025-05-14","end_dtc":"2025-05-14","visit":null},{"seq":"425","trt":"PLACEBO","dose":null,"doseu":null,"dosef":"QD","route":"ORAL","start_dtc":"2025-05-15","end_dtc":"2025-05-15","visit":null},{"seq":"426","trt":"PLACEBO","dose":null,"doseu":null,"dosef":"QD","route":"ORAL","start_dtc":"2025-05-16","end_dtc":"2025-05-16","visit":null},{"seq":"427","trt":"PLACEBO","dose":null,"doseu":null,"dosef":"QD","route":"ORAL","start_dtc":"2025-05-17","end_dtc":"2025-05-17","visit":null},{"seq":"428","trt":"PLACEBO","dose":null,"doseu":null,"dosef":"QD","route":"ORAL","start_dtc":"2025-05-18","end_dtc":"2025-05-18","visit":null},{"seq":"429","trt":"PLACEBO","dose":null,"doseu":null,"dosef":"QD","route":"ORAL","start_dtc":"2025-05-19","end_dtc":"2025-05-19","visit":null},{"seq":"430","trt":"PLACEBO","dose":null,"doseu":null,"dosef":"QD","route":"ORAL","start_dtc":"2025-05-20","end_dtc":"2025-05-20","visit":null},{"seq":"431","trt":"PLACEBO","dose":null,"doseu":null,"dosef":"QD","route":"ORAL","start_dtc":"2025-05-21","end_dtc":"2025-05-21","visit":null},{"seq":"432","trt":"PLACEBO","dose":null,"doseu":null,"dosef":"QD","route":"ORAL","start_dtc":"2025-05-22","end_dtc":"2025-05-22","visit":null},{"seq":"433","trt":"PLACEBO","dose":null,"doseu":null,"dosef":"QD","route":"ORAL","start_dtc":"2025-05-23","end_dtc":"2025-05-23","visit":null},{"seq":"434","trt":"PLACEBO","dose":null,"doseu":null,"dosef":"QD","route":"ORAL","start_dtc":"2025-05-24","end_dtc":"2025-05-24","visit":null},{"seq":"435","trt":"PLACEBO","dose":null,"doseu":null,"dosef":"QD","route":"ORAL","start_dtc":"2025-05-25","end_dtc":"2025-05-25","visit":null},{"seq":"436","trt":"PLACEBO","dose":null,"doseu":null,"dosef":"QD","route":"ORAL","start_dtc":"2025-05-26","end_dtc":"2025-05-26","visit":null},{"seq":"437","trt":"PLACEBO","dose":null,"doseu":null,"dosef":"QD","route":"ORAL","start_dtc":"2025-05-27","end_dtc":"2025-05-27","visit":null},{"seq":"438","trt":"PLACEBO","dose":null,"doseu":null,"dosef":"QD","route":"ORAL","start_dtc":"2025-05-28","end_dtc":"2025-05-28","visit":null},{"seq":"439","trt":"PLACEBO","dose":null,"doseu":null,"dosef":"QD","route":"ORAL","start_dtc":"2025-05-29","end_dtc":"2025-05-29","visit":null},{"seq":"440","trt":"PLACEBO","dose":null,"doseu":null,"dosef":"QD","route":"ORAL","start_dtc":"2025-05-30","end_dtc":"2025-05-30","visit":null},{"seq":"441","trt":"PLACEBO","dose":null,"doseu":null,"dosef":"QD","route":"ORAL","start_dtc":"2025-05-31","end_dtc":"2025-05-31","visit":null},{"seq":"442","trt":"PLACEBO","dose":null,"doseu":null,"dosef":"QD","route":"ORAL","start_dtc":"2025-06-01","end_dtc":"2025-06-01","visit":null},{"seq":"443","trt":"PLACEBO","dose":null,"doseu":null,"dosef":"QD","route":"ORAL","start_dtc":"2025-06-02","end_dtc":"2025-06-02","visit":null},{"seq":"444","trt":"PLACEBO","dose":null,"doseu":null,"dosef":"QD","route":"ORAL","start_dtc":"2025-06-03","end_dtc":"2025-06-03","visit":null},{"seq":"445","trt":"PLACEBO","dose":null,"doseu":null,"dosef":"QD","route":"ORAL","start_dtc":"2025-06-04","end_dtc":"2025-06-04","visit":null},{"seq":"446","trt":"PLACEBO","dose":null,"doseu":null,"dosef":"QD","route":"ORAL","start_dtc":"2025-06-05","end_dtc":"2025-06-05","visit":null},{"seq":"447","trt":"PLACEBO","dose":null,"doseu":null,"dosef":"QD","route":"ORAL","start_dtc":"2025-06-06","end_dtc":"2025-06-06","visit":null},{"seq":"448","trt":"PLACEBO","dose":null,"doseu":null,"dosef":"QD","route":"ORAL","start_dtc":"2025-06-07","end_dtc":"2025-06-07","visit":null},{"seq":"449","trt":"PLACEBO","dose":null,"doseu":null,"dosef":"QD","route":"ORAL","start_dtc":"2025-06-08","end_dtc":"2025-06-08","visit":null},{"seq":"450","trt":"PLACEBO","dose":null,"doseu":null,"dosef":"QD","route":"ORAL","start_dtc":"2025-06-09","end_dtc":"2025-06-09","visit":null},{"seq":"451","trt":"PLACEBO","dose":null,"doseu":null,"dosef":"QD","route":"ORAL","start_dtc":"2025-06-10","end_dtc":"2025-06-10","visit":null},{"seq":"452","trt":"PLACEBO","dose":null,"doseu":null,"dosef":"QD","route":"ORAL","start_dtc":"2025-06-11","end_dtc":"2025-06-11","visit":null},{"seq":"453","trt":"PLACEBO","dose":null,"doseu":null,"dosef":"QD","route":"ORAL","start_dtc":"2025-06-12","end_dtc":"2025-06-12","visit":null},{"seq":"454","trt":"PLACEBO","dose":null,"doseu":null,"dosef":"QD","route":"ORAL","start_dtc":"2025-06-13","end_dtc":"2025-06-13","visit":null},{"seq":"455","trt":"PLACEBO","dose":null,"doseu":null,"dosef":"QD","route":"ORAL","start_dtc":"2025-06-14","end_dtc":"2025-06-14","visit":null},{"seq":"456","trt":"PLACEBO","dose":null,"doseu":null,"dosef":"QD","route":"ORAL","start_dtc":"2025-06-15","end_dtc":"2025-06-15","visit":null},{"seq":"457","trt":"PLACEBO","dose":null,"doseu":null,"dosef":"QD","route":"ORAL","start_dtc":"2025-06-16","end_dtc":"2025-06-16","visit":null},{"seq":"458","trt":"PLACEBO","dose":null,"doseu":null,"dosef":"QD","route":"ORAL","start_dtc":"2025-06-17","end_dtc":"2025-06-17","visit":null},{"seq":"459","trt":"PLACEBO","dose":null,"doseu":null,"dosef":"QD","route":"ORAL","start_dtc":"2025-06-18","end_dtc":"2025-06-18","visit":null},{"seq":"460","trt":"PLACEBO","dose":null,"doseu":null,"dosef":"QD","route":"ORAL","start_dtc":"2025-06-19","end_dtc":"2025-06-19","visit":null},{"seq":"461","trt":"PLACEBO","dose":null,"doseu":null,"dosef":"QD","route":"ORAL","start_dtc":"2025-06-20","end_dtc":"2025-06-20","visit":null},{"seq":"462","trt":"PLACEBO","dose":null,"doseu":null,"dosef":"QD","route":"ORAL","start_dtc":"2025-06-21","end_dtc":"2025-06-21","visit":null},{"seq":"463","trt":"PLACEBO","dose":null,"doseu":null,"dosef":"QD","route":"ORAL","start_dtc":"2025-06-22","end_dtc":"2025-06-22","visit":null},{"seq":"464","trt":"PLACEBO","dose":null,"doseu":null,"dosef":"QD","route":"ORAL","start_dtc":"2025-06-23","end_dtc":"2025-06-23","visit":null},{"seq":"465","trt":"PLACEBO","dose":null,"doseu":null,"dosef":"QD","route":"ORAL","start_dtc":"2025-06-24","end_dtc":"2025-06-24","visit":null},{"seq":"466","trt":"PLACEBO","dose":null,"doseu":null,"dosef":"QD","route":"ORAL","start_dtc":"2025-06-25","end_dtc":"2025-06-25","visit":null},{"seq":"467","trt":"PLACEBO","dose":null,"doseu":null,"dosef":"QD","route":"ORAL","start_dtc":"2025-06-26","end_dtc":"2025-06-26","visit":null},{"seq":"468","trt":"PLACEBO","dose":null,"doseu":null,"dosef":"QD","route":"ORAL","start_dtc":"2025-06-27","end_dtc":"2025-06-27","visit":null},{"seq":"469","trt":"PLACEBO","dose":null,"doseu":null,"dosef":"QD","route":"ORAL","start_dtc":"2025-06-28","end_dtc":"2025-06-28","visit":null},{"seq":"470","trt":"PLACEBO","dose":null,"doseu":null,"dosef":"QD","route":"ORAL","start_dtc":"2025-06-29","end_dtc":"2025-06-29","visit":null},{"seq":"471","trt":"PLACEBO","dose":null,"doseu":null,"dosef":"QD","route":"ORAL","start_dtc":"2025-06-30","end_dtc":"2025-06-30","visit":null},{"seq":"472","trt":"PLACEBO","dose":null,"doseu":null,"dosef":"QD","route":"ORAL","start_dtc":"2025-07-01","end_dtc":"2025-07-01","visit":null},{"seq":"473","trt":"PLACEBO","dose":null,"doseu":null,"dosef":"QD","route":"ORAL","start_dtc":"2025-07-02","end_dtc":"2025-07-02","visit":null},{"seq":"474","trt":"PLACEBO","dose":null,"doseu":null,"dosef":"QD","route":"ORAL","start_dtc":"2025-07-03","end_dtc":"2025-07-03","visit":null},{"seq":"475","trt":"PLACEBO","dose":null,"doseu":null,"dosef":"QD","route":"ORAL","start_dtc":"2025-07-04","end_dtc":"2025-07-04","visit":null},{"seq":"476","trt":"PLACEBO","dose":null,"doseu":null,"dosef":"QD","route":"ORAL","start_dtc":"2025-07-05","end_dtc":"2025-07-05","visit":null},{"seq":"477","trt":"PLACEBO","dose":null,"doseu":null,"dosef":"QD","route":"ORAL","start_dtc":"2025-07-06","end_dtc":"2025-07-06","visit":null},{"seq":"478","trt":"PLACEBO","dose":null,"doseu":null,"dosef":"QD","route":"ORAL","start_dtc":"2025-07-07","end_dtc":"2025-07-07","visit":null},{"seq":"479","trt":"PLACEBO","dose":null,"doseu":null,"dosef":"QD","route":"ORAL","start_dtc":"2025-07-08","end_dtc":"2025-07-08","visit":null},{"seq":"480","trt":"PLACEBO","dose":null,"doseu":null,"dosef":"QD","route":"ORAL","start_dtc":"2025-07-09","end_dtc":"2025-07-09","visit":null},{"seq":"481","trt":"PLACEBO","dose":null,"doseu":null,"dosef":"QD","route":"ORAL","start_dtc":"2025-07-10","end_dtc":"2025-07-10","visit":null},{"seq":"482","trt":"PLACEBO","dose":null,"doseu":null,"dosef":"QD","route":"ORAL","start_dtc":"2025-07-11","end_dtc":"2025-07-11","visit":null},{"seq":"483","trt":"PLACEBO","dose":null,"doseu":null,"dosef":"QD","route":"ORAL","start_dtc":"2025-07-12","end_dtc":"2025-07-12","visit":null},{"seq":"484","trt":"PLACEBO","dose":null,"doseu":null,"dosef":"QD","route":"ORAL","start_dtc":"2025-07-13","end_dtc":"2025-07-13","visit":null},{"seq":"485","trt":"PLACEBO","dose":null,"doseu":null,"dosef":"QD","route":"ORAL","start_dtc":"2025-07-14","end_dtc":"2025-07-14","visit":null},{"seq":"486","trt":"PLACEBO","dose":null,"doseu":null,"dosef":"QD","route":"ORAL","start_dtc":"2025-07-15","end_dtc":"2025-07-15","visit":null},{"seq":"487","trt":"PLACEBO","dose":null,"doseu":null,"dosef":"QD","route":"ORAL","start_dtc":"2025-07-16","end_dtc":"2025-07-16","visit":null},{"seq":"488","trt":"PLACEBO","dose":null,"doseu":null,"dosef":"QD","route":"ORAL","start_dtc":"2025-07-17","end_dtc":"2025-07-17","visit":null},{"seq":"489","trt":"PLACEBO","dose":null,"doseu":null,"dosef":"QD","route":"ORAL","start_dtc":"2025-07-18","end_dtc":"2025-07-18","visit":null},{"seq":"490","trt":"PLACEBO","dose":null,"doseu":null,"dosef":"QD","route":"ORAL","start_dtc":"2025-07-19","end_dtc":"2025-07-19","visit":null},{"seq":"491","trt":"PLACEBO","dose":null,"doseu":null,"dosef":"QD","route":"ORAL","start_dtc":"2025-07-20","end_dtc":"2025-07-20","visit":null},{"seq":"492","trt":"PLACEBO","dose":null,"doseu":null,"dosef":"QD","route":"ORAL","start_dtc":"2025-07-21","end_dtc":"2025-07-21","visit":null},{"seq":"493","trt":"PLACEBO","dose":null,"doseu":null,"dosef":"QD","route":"ORAL","start_dtc":"2025-07-22","end_dtc":"2025-07-22","visit":null},{"seq":"494","trt":"PLACEBO","dose":null,"doseu":null,"dosef":"QD","route":"ORAL","start_dtc":"2025-07-23","end_dtc":"2025-07-23","visit":null},{"seq":"495","trt":"PLACEBO","dose":null,"doseu":null,"dosef":"QD","route":"ORAL","start_dtc":"2025-07-24","end_dtc":"2025-07-24","visit":null},{"seq":"496","trt":"PLACEBO","dose":null,"doseu":null,"dosef":"QD","route":"ORAL","start_dtc":"2025-07-25","end_dtc":"2025-07-25","visit":null},{"seq":"497","trt":"PLACEBO","dose":null,"doseu":null,"dosef":"QD","route":"ORAL","start_dtc":"2025-07-26","end_dtc":"2025-07-26","visit":null},{"seq":"498","trt":"PLACEBO","dose":null,"doseu":null,"dosef":"QD","route":"ORAL","start_dtc":"2025-07-27","end_dtc":"2025-07-27","visit":null},{"seq":"499","trt":"PLACEBO","dose":null,"doseu":null,"dosef":"QD","route":"ORAL","start_dtc":"2025-07-28","end_dtc":"2025-07-28","visit":null},{"seq":"500","trt":"PLACEBO","dose":null,"doseu":null,"dosef":"QD","route":"ORAL","start_dtc":"2025-07-29","end_dtc":"2025-07-29","visit":null},{"seq":"501","trt":"PLACEBO","dose":null,"doseu":null,"dosef":"QD","route":"ORAL","start_dtc":"2025-07-30","end_dtc":"2025-07-30","visit":null},{"seq":"502","trt":"PLACEBO","dose":null,"doseu":null,"dosef":"QD","route":"ORAL","start_dtc":"2025-07-31","end_dtc":"2025-07-31","visit":null},{"seq":"503","trt":"PLACEBO","dose":null,"doseu":null,"dosef":"QD","route":"ORAL","start_dtc":"2025-08-01","end_dtc":"2025-08-01","visit":null},{"seq":"504","trt":"PLACEBO","dose":null,"doseu":null,"dosef":"QD","route":"ORAL","start_dtc":"2025-08-02","end_dtc":"2025-08-02","visit":null},{"seq":"505","trt":"PLACEBO","dose":null,"doseu":null,"dosef":"QD","route":"ORAL","start_dtc":"2025-08-03","end_dtc":"2025-08-03","visit":null},{"seq":"506","trt":"PLACEBO","dose":null,"doseu":null,"dosef":"QD","route":"ORAL","start_dtc":"2025-08-04","end_dtc":"2025-08-04","visit":null},{"seq":"507","trt":"PLACEBO","dose":null,"doseu":null,"dosef":"QD","route":"ORAL","start_dtc":"2025-08-05","end_dtc":"2025-08-05","visit":null},{"seq":"508","trt":"PLACEBO","dose":null,"doseu":null,"dosef":"QD","route":"ORAL","start_dtc":"2025-08-06","end_dtc":"2025-08-06","visit":null},{"seq":"509","trt":"PLACEBO","dose":null,"doseu":null,"dosef":"QD","route":"ORAL","start_dtc":"2025-08-07","end_dtc":"2025-08-07","visit":null},{"seq":"510","trt":"PLACEBO","dose":null,"doseu":null,"dosef":"QD","route":"ORAL","start_dtc":"2025-08-08","end_dtc":"2025-08-08","visit":null},{"seq":"511","trt":"PLACEBO","dose":null,"doseu":null,"dosef":"QD","route":"ORAL","start_dtc":"2025-08-09","end_dtc":"2025-08-09","visit":null},{"seq":"512","trt":"PLACEBO","dose":null,"doseu":null,"dosef":"QD","route":"ORAL","start_dtc":"2025-08-10","end_dtc":"2025-08-10","visit":null},{"seq":"513","trt":"PLACEBO","dose":null,"doseu":null,"dosef":"QD","route":"ORAL","start_dtc":"2025-08-11","end_dtc":"2025-08-11","visit":null},{"seq":"514","trt":"PLACEBO","dose":null,"doseu":null,"dosef":"QD","route":"ORAL","start_dtc":"2025-08-12","end_dtc":"2025-08-12","visit":null},{"seq":"515","trt":"PLACEBO","dose":null,"doseu":null,"dosef":"QD","route":"ORAL","start_dtc":"2025-08-13","end_dtc":"2025-08-13","visit":null},{"seq":"516","trt":"PLACEBO","dose":null,"doseu":null,"dosef":"QD","route":"ORAL","start_dtc":"2025-08-14","end_dtc":"2025-08-14","visit":null},{"seq":"517","trt":"PLACEBO","dose":null,"doseu":null,"dosef":"QD","route":"ORAL","start_dtc":"2025-08-15","end_dtc":"2025-08-15","visit":null},{"seq":"518","trt":"PLACEBO","dose":null,"doseu":null,"dosef":"QD","route":"ORAL","start_dtc":"2025-08-16","end_dtc":"2025-08-16","visit":null},{"seq":"519","trt":"PLACEBO","dose":null,"doseu":null,"dosef":"QD","route":"ORAL","start_dtc":"2025-08-17","end_dtc":"2025-08-17","visit":null},{"seq":"520","trt":"PLACEBO","dose":null,"doseu":null,"dosef":"QD","route":"ORAL","start_dtc":"2025-08-18","end_dtc":"2025-08-18","visit":null},{"seq":"521","trt":"PLACEBO","dose":null,"doseu":null,"dosef":"QD","route":"ORAL","start_dtc":"2025-08-19","end_dtc":"2025-08-19","visit":null},{"seq":"522","trt":"PLACEBO","dose":null,"doseu":null,"dosef":"QD","route":"ORAL","start_dtc":"2025-08-20","end_dtc":"2025-08-20","visit":null},{"seq":"523","trt":"PLACEBO","dose":null,"doseu":null,"dosef":"QD","route":"ORAL","start_dtc":"2025-08-21","end_dtc":"2025-08-21","visit":null},{"seq":"524","trt":"PLACEBO","dose":null,"doseu":null,"dosef":"QD","route":"ORAL","start_dtc":"2025-08-22","end_dtc":"2025-08-22","visit":null},{"seq":"525","trt":"PLACEBO","dose":null,"doseu":null,"dosef":"QD","route":"ORAL","start_dtc":"2025-08-23","end_dtc":"2025-08-23","visit":null},{"seq":"526","trt":"PLACEBO","dose":null,"doseu":null,"dosef":"QD","route":"ORAL","start_dtc":"2025-08-24","end_dtc":"2025-08-24","visit":null},{"seq":"527","trt":"PLACEBO","dose":null,"doseu":null,"dosef":"QD","route":"ORAL","start_dtc":"2025-08-25","end_dtc":"2025-08-25","visit":null},{"seq":"528","trt":"PLACEBO","dose":null,"doseu":null,"dosef":"QD","route":"ORAL","start_dtc":"2025-08-26","end_dtc":"2025-08-26","visit":null},{"seq":"529","trt":"PLACEBO","dose":null,"doseu":null,"dosef":"QD","route":"ORAL","start_dtc":"2025-08-27","end_dtc":"2025-08-27","visit":null},{"seq":"530","trt":"PLACEBO","dose":null,"doseu":null,"dosef":"QD","route":"ORAL","start_dtc":"2025-08-28","end_dtc":"2025-08-28","visit":null},{"seq":"531","trt":"PLACEBO","dose":null,"doseu":null,"dosef":"QD","route":"ORAL","start_dtc":"2025-08-29","end_dtc":"2025-08-29","visit":null},{"seq":"532","trt":"PLACEBO","dose":null,"doseu":null,"dosef":"QD","route":"ORAL","start_dtc":"2025-08-30","end_dtc":"2025-08-30","visit":null},{"seq":"533","trt":"PLACEBO","dose":null,"doseu":null,"dosef":"QD","route":"ORAL","start_dtc":"2025-08-31","end_dtc":"2025-08-31","visit":null},{"seq":"534","trt":"PLACEBO","dose":null,"doseu":null,"dosef":"QD","route":"ORAL","start_dtc":"2025-09-01","end_dtc":"2025-09-01","visit":null},{"seq":"535","trt":"PLACEBO","dose":null,"doseu":null,"dosef":"QD","route":"ORAL","start_dtc":"2025-09-02","end_dtc":"2025-09-02","visit":null},{"seq":"536","trt":"PLACEBO","dose":null,"doseu":null,"dosef":"QD","route":"ORAL","start_dtc":"2025-09-03","end_dtc":"2025-09-03","visit":null},{"seq":"537","trt":"PLACEBO","dose":null,"doseu":null,"dosef":"QD","route":"ORAL","start_dtc":"2025-09-04","end_dtc":"2025-09-04","visit":null},{"seq":"538","trt":"PLACEBO","dose":null,"doseu":null,"dosef":"QD","route":"ORAL","start_dtc":"2025-09-05","end_dtc":"2025-09-05","visit":null},{"seq":"539","trt":"PLACEBO","dose":null,"doseu":null,"dosef":"QD","route":"ORAL","start_dtc":"2025-09-06","end_dtc":"2025-09-06","visit":null},{"seq":"540","trt":"PLACEBO","dose":null,"doseu":null,"dosef":"QD","route":"ORAL","start_dtc":"2025-09-07","end_dtc":"2025-09-07","visit":null},{"seq":"541","trt":"PLACEBO","dose":null,"doseu":null,"dosef":"QD","route":"ORAL","start_dtc":"2025-09-08","end_dtc":"2025-09-08","visit":null},{"seq":"542","trt":"PLACEBO","dose":null,"doseu":null,"dosef":"QD","route":"ORAL","start_dtc":"2025-09-09","end_dtc":"2025-09-09","visit":null},{"seq":"543","trt":"PLACEBO","dose":null,"doseu":null,"dosef":"QD","route":"ORAL","start_dtc":"2025-09-10","end_dtc":"2025-09-10","visit":null},{"seq":"544","trt":"PLACEBO","dose":null,"doseu":null,"dosef":"QD","route":"ORAL","start_dtc":"2025-09-11","end_dtc":"2025-09-11","visit":"MONTH 18"},{"seq":"545","trt":"PLACEBO","dose":null,"doseu":null,"dosef":"QD","route":"ORAL","start_dtc":"2025-09-12","end_dtc":"2025-09-12","visit":"MONTH 18"},{"seq":"546","trt":"PLACEBO","dose":null,"doseu":null,"dosef":"QD","route":"ORAL","start_dtc":"2025-09-13","end_dtc":"2025-09-13","visit":"MONTH 18"},{"seq":"547","trt":"PLACEBO","dose":null,"doseu":null,"dosef":"QD","route":"ORAL","start_dtc":"2025-09-14","end_dtc":"2025-09-14","visit":"MONTH 18"},{"seq":"548","trt":"PLACEBO","dose":null,"doseu":null,"dosef":"QD","route":"ORAL","start_dtc":"2025-09-15","end_dtc":"2025-09-15","visit":"MONTH 18"},{"seq":"549","trt":"PLACEBO","dose":null,"doseu":null,"dosef":"QD","route":"ORAL","start_dtc":"2025-09-16","end_dtc":"2025-09-16","visit":"MONTH 18"},{"seq":"550","trt":"PLACEBO","dose":null,"doseu":null,"dosef":"QD","route":"ORAL","start_dtc":"2025-09-17","end_dtc":"2025-09-17","visit":"MONTH 18"},{"seq":"551","trt":"PLACEBO","dose":null,"doseu":null,"dosef":"QD","route":"ORAL","start_dtc":"2025-09-18","end_dtc":"2025-09-18","visit":null},{"seq":"552","trt":"PLACEBO","dose":null,"doseu":null,"dosef":"QD","route":"ORAL","start_dtc":"2025-09-19","end_dtc":"2025-09-19","visit":null},{"seq":"553","trt":"PLACEBO","dose":null,"doseu":null,"dosef":"QD","route":"ORAL","start_dtc":"2025-09-20","end_dtc":"2025-09-20","visit":null},{"seq":"554","trt":"PLACEBO","dose":null,"doseu":null,"dosef":"QD","route":"ORAL","start_dtc":"2025-09-21","end_dtc":"2025-09-21","visit":null},{"seq":"555","trt":"PLACEBO","dose":null,"doseu":null,"dosef":"QD","route":"ORAL","start_dtc":"2025-09-22","end_dtc":"2025-09-22","visit":null},{"seq":"556","trt":"PLACEBO","dose":null,"doseu":null,"dosef":"QD","route":"ORAL","start_dtc":"2025-09-23","end_dtc":"2025-09-23","visit":null},{"seq":"557","trt":"PLACEBO","dose":null,"doseu":null,"dosef":"QD","route":"ORAL","start_dtc":"2025-09-24","end_dtc":"2025-09-24","visit":null},{"seq":"558","trt":"PLACEBO","dose":null,"doseu":null,"dosef":"QD","route":"ORAL","start_dtc":"2025-09-25","end_dtc":"2025-09-25","visit":null},{"seq":"559","trt":"PLACEBO","dose":null,"doseu":null,"dosef":"QD","route":"ORAL","start_dtc":"2025-09-26","end_dtc":"2025-09-26","visit":null},{"seq":"560","trt":"PLACEBO","dose":null,"doseu":null,"dosef":"QD","route":"ORAL","start_dtc":"2025-09-27","end_dtc":"2025-09-27","visit":null},{"seq":"561","trt":"PLACEBO","dose":null,"doseu":null,"dosef":"QD","route":"ORAL","start_dtc":"2025-09-28","end_dtc":"2025-09-28","visit":null},{"seq":"562","trt":"PLACEBO","dose":null,"doseu":null,"dosef":"QD","route":"ORAL","start_dtc":"2025-09-29","end_dtc":"2025-09-29","visit":null},{"seq":"563","trt":"PLACEBO","dose":null,"doseu":null,"dosef":"QD","route":"ORAL","start_dtc":"2025-09-30","end_dtc":"2025-09-30","visit":null},{"seq":"564","trt":"PLACEBO","dose":null,"doseu":null,"dosef":"QD","route":"ORAL","start_dtc":"2025-10-01","end_dtc":"2025-10-01","visit":null},{"seq":"565","trt":"PLACEBO","dose":null,"doseu":null,"dosef":"QD","route":"ORAL","start_dtc":"2025-10-02","end_dtc":"2025-10-02","visit":null},{"seq":"566","trt":"PLACEBO","dose":null,"doseu":null,"dosef":"QD","route":"ORAL","start_dtc":"2025-10-03","end_dtc":"2025-10-03","visit":null},{"seq":"567","trt":"PLACEBO","dose":null,"doseu":null,"dosef":"QD","route":"ORAL","start_dtc":"2025-10-04","end_dtc":"2025-10-04","visit":null},{"seq":"568","trt":"PLACEBO","dose":null,"doseu":null,"dosef":"QD","route":"ORAL","start_dtc":"2025-10-05","end_dtc":"2025-10-05","visit":null},{"seq":"569","trt":"PLACEBO","dose":null,"doseu":null,"dosef":"QD","route":"ORAL","start_dtc":"2025-10-06","end_dtc":"2025-10-06","visit":null},{"seq":"570","trt":"PLACEBO","dose":null,"doseu":null,"dosef":"QD","route":"ORAL","start_dtc":"2025-10-07","end_dtc":"2025-10-07","visit":null},{"seq":"571","trt":"PLACEBO","dose":null,"doseu":null,"dosef":"QD","route":"ORAL","start_dtc":"2025-10-08","end_dtc":"2025-10-08","visit":null},{"seq":"572","trt":"PLACEBO","dose":null,"doseu":null,"dosef":"QD","route":"ORAL","start_dtc":"2025-10-09","end_dtc":"2025-10-09","visit":null},{"seq":"573","trt":"PLACEBO","dose":null,"doseu":null,"dosef":"QD","route":"ORAL","start_dtc":"2025-10-10","end_dtc":"2025-10-10","visit":null},{"seq":"574","trt":"PLACEBO","dose":null,"doseu":null,"dosef":"QD","route":"ORAL","start_dtc":"2025-10-11","end_dtc":"2025-10-11","visit":null},{"seq":"575","trt":"PLACEBO","dose":null,"doseu":null,"dosef":"QD","route":"ORAL","start_dtc":"2025-10-12","end_dtc":"2025-10-12","visit":null},{"seq":"576","trt":"PLACEBO","dose":null,"doseu":null,"dosef":"QD","route":"ORAL","start_dtc":"2025-10-13","end_dtc":"2025-10-13","visit":null},{"seq":"577","trt":"PLACEBO","dose":null,"doseu":null,"dosef":"QD","route":"ORAL","start_dtc":"2025-10-14","end_dtc":"2025-10-14","visit":null},{"seq":"578","trt":"PLACEBO","dose":null,"doseu":null,"dosef":"QD","route":"ORAL","start_dtc":"2025-10-15","end_dtc":"2025-10-15","visit":null},{"seq":"579","trt":"PLACEBO","dose":null,"doseu":null,"dosef":"QD","route":"ORAL","start_dtc":"2025-10-16","end_dtc":"2025-10-16","visit":null}]},"section_7_adverse_events":{"summary":{"total_aes":35,"serious_aes":5,"fatal_aes":0,"by_severity":{"MODERATE":13,"MILD":17,"SEVERE":5},"by_soc":{"Metabolism and nutrition disorders":5,"Nervous system disorders":6,"Gastrointestinal disorders":1,"Investigations":3,"Infections and infestations":10,"General disorders and administration site conditions":4,"Vascular disorders":4,"Cardiac disorders":1,"Renal and urinary disorders":1}},"events":[{"seq":"1","term":"HYPOGLYCAEMIA","decod":"Hypoglycaemia","llt":"Hypoglycaemia","hlt":"Hypoglycaemic conditions NEC","hlgt":"Glucose metabolism disorders (incl diabetes mellitus)","soc":"Metabolism and nutrition disorders","bodsys":"Metabolism and nutrition disorders","severity":"MODERATE","serious":"N","causality":"NOT RELATED","action_taken":"DOSE NOT CHANGED","outcome":"RECOVERED/RESOLVED","fatal":"N","hospitalization":"N","life_threatening":"N","onset_dtc":"2024-04-28","end_dtc":"2024-05-27","onset_dy":"43","end_dy":"72","duration":null,"epoch":"TREATMENT","visit":null,"supplemental":{"AETRTEM":"Y"}},{"seq":"2","term":"HEADACHE","decod":"Headache","llt":"Headache","hlt":"Headaches NEC","hlgt":"Headaches","soc":"Nervous system disorders","bodsys":"Nervous system disorders","severity":"MILD","serious":"N","causality":"NOT RELATED","action_taken":"DOSE NOT CHANGED","outcome":"RECOVERED/RESOLVED","fatal":"N","hospitalization":"N","life_threatening":"N","onset_dtc":"2024-05-04","end_dtc":"2024-05-05","onset_dy":"49","end_dy":"50","duration":null,"epoch":"TREATMENT","visit":null,"supplemental":{"AETRTEM":"Y"}},{"seq":"3","term":"NAUSEA","decod":"Nausea","llt":"Nausea","hlt":"Nausea and vomiting symptoms","hlgt":"Gastrointestinal signs and symptoms","soc":"Gastrointestinal disorders","bodsys":"Gastrointestinal disorders","severity":"MODERATE","serious":"N","causality":"NOT RELATED","action_taken":"DOSE NOT CHANGED","outcome":"RECOVERED/RESOLVED","fatal":"N","hospitalization":"N","life_threatening":"N","onset_dtc":"2024-05-09","end_dtc":"2024-05-11","onset_dy":"54","end_dy":"56","duration":null,"epoch":"TREATMENT","visit":null,"supplemental":{"AETRTEM":"Y"}},{"seq":"4","term":"HEADACHE","decod":"Headache","llt":"Headache","hlt":"Headaches NEC","hlgt":"Headaches","soc":"Nervous system disorders","bodsys":"Nervous system disorders","severity":"MILD","serious":"N","causality":"NOT RELATED","action_taken":"DOSE NOT CHANGED","outcome":"RECOVERED/RESOLVED","fatal":"N","hospitalization":"N","life_threatening":"N","onset_dtc":"2024-05-14","end_dtc":"2024-05-15","onset_dy":"59","end_dy":"60","duration":null,"epoch":"TREATMENT","visit":null,"supplemental":{"AETRTEM":"Y"}},{"seq":"5","term":"BLOOD CREATININE INCREASED","decod":"Blood creatinine increased","llt":"Blood creatinine increased","hlt":"Renal function analyses","hlgt":"Renal and urinary tract investigations and urinalyses","soc":"Investigations","bodsys":"Investigations","severity":"MILD","serious":"N","causality":"NOT RELATED","action_taken":"DOSE NOT CHANGED","outcome":"NOT RECOVERED/NOT RESOLVED","fatal":"N","hospitalization":"N","life_threatening":"N","onset_dtc":"2024-05-17","end_dtc":null,"onset_dy":"62","end_dy":null,"duration":null,"epoch":"TREATMENT","visit":null,"supplemental":{"AETRTEM":"Y"}},{"seq":"6","term":"URINARY TRACT INFECTION","decod":"Urinary tract infection","llt":"Urinary tract infection","hlt":"Urinary tract infections","hlgt":"Infections NEC","soc":"Infections and infestations","bodsys":"Infections and infestations","severity":"SEVERE","serious":"Y","causality":"NOT RELATED","action_taken":"DOSE NOT CHANGED","outcome":"NOT RECOVERED/NOT RESOLVED","fatal":"N","hospitalization":"N","life_threatening":"N","onset_dtc":"2024-09-01","end_dtc":null,"onset_dy":"169","end_dy":null,"duration":null,"epoch":"TREATMENT","visit":null,"supplemental":{"AETRTEM":"Y"}},{"seq":"7","term":"URINARY TRACT INFECTION","decod":"Urinary tract infection","llt":"Urinary tract infection","hlt":"Urinary tract infections","hlgt":"Infections NEC","soc":"Infections and infestations","bodsys":"Infections and infestations","severity":"MILD","serious":"N","causality":"NOT RELATED","action_taken":"DOSE NOT CHANGED","outcome":"RECOVERED/RESOLVED","fatal":"N","hospitalization":"N","life_threatening":"N","onset_dtc":"2024-09-08","end_dtc":"2024-09-11","onset_dy":"176","end_dy":"179","duration":null,"epoch":"TREATMENT","visit":null,"supplemental":{"AETRTEM":"Y"}},{"seq":"8","term":"FATIGUE","decod":"Fatigue","llt":"Fatigue","hlt":"Asthenic conditions","hlgt":"General system disorders NEC","soc":"General disorders and administration site conditions","bodsys":"General disorders and administration site conditions","severity":"MILD","serious":"N","causality":"NOT RELATED","action_taken":"DOSE NOT CHANGED","outcome":"RECOVERED/RESOLVED","fatal":"N","hospitalization":"N","life_threatening":"N","onset_dtc":"2024-09-13","end_dtc":"2024-09-24","onset_dy":"181","end_dy":"192","duration":null,"epoch":"TREATMENT","visit":null,"supplemental":{"AETRTEM":"Y"}},{"seq":"9","term":"DIZZINESS","decod":"Dizziness","llt":"Dizziness","hlt":"Dizziness and vertigo symptoms","hlgt":"Neurological signs and symptoms NEC","soc":"Nervous system disorders","bodsys":"Nervous system disorders","severity":"MILD","serious":"N","causality":"NOT RELATED","action_taken":"DOSE NOT CHANGED","outcome":"RECOVERED/RESOLVED","fatal":"N","hospitalization":"N","life_threatening":"N","onset_dtc":"2024-09-14","end_dtc":"2024-09-27","onset_dy":"182","end_dy":"195","duration":null,"epoch":"TREATMENT","visit":null,"supplemental":{"AETRTEM":"Y"}},{"seq":"10","term":"FATIGUE","decod":"Fatigue","llt":"Fatigue","hlt":"Asthenic conditions","hlgt":"General system disorders NEC","soc":"General disorders and administration site conditions","bodsys":"General disorders and administration site conditions","severity":"MODERATE","serious":"N","causality":"NOT RELATED","action_taken":"DOSE NOT CHANGED","outcome":"RECOVERED/RESOLVED","fatal":"N","hospitalization":"N","life_threatening":"N","onset_dtc":"2024-09-30","end_dtc":"2024-11-04","onset_dy":"198","end_dy":"233","duration":null,"epoch":"TREATMENT","visit":null,"supplemental":{"AETRTEM":"Y"}},{"seq":"11","term":"URINARY TRACT INFECTION","decod":"Urinary tract infection","llt":"Urinary tract infection","hlt":"Urinary tract infections","hlgt":"Infections NEC","soc":"Infections and infestations","bodsys":"Infections and infestations","severity":"MILD","serious":"N","causality":"NOT RELATED","action_taken":"DOSE NOT CHANGED","outcome":"RECOVERED/RESOLVED","fatal":"N","hospitalization":"N","life_threatening":"N","onset_dtc":"2025-01-03","end_dtc":"2025-01-06","onset_dy":"293","end_dy":"296","duration":null,"epoch":"TREATMENT","visit":null,"supplemental":{"AETRTEM":"Y"}},{"seq":"12","term":"URINARY TRACT INFECTION","decod":"Urinary tract infection","llt":"Urinary tract infection","hlt":"Urinary tract infections","hlgt":"Infections NEC","soc":"Infections and infestations","bodsys":"Infections and infestations","severity":"MODERATE","serious":"N","causality":"NOT RELATED","action_taken":"DOSE NOT CHANGED","outcome":"RECOVERED/RESOLVED","fatal":"N","hospitalization":"N","life_threatening":"N","onset_dtc":"2025-01-29","end_dtc":"2025-02-06","onset_dy":"319","end_dy":"327","duration":null,"epoch":"TREATMENT","visit":null,"supplemental":{"AETRTEM":"Y"}},{"seq":"13","term":"HYPOTENSION","decod":"Hypotension","llt":"Hypotension","hlt":"Vascular hypotensive disorders","hlgt":"Vascular disorders NEC","soc":"Vascular disorders","bodsys":"Vascular disorders","severity":"MODERATE","serious":"N","causality":"NOT RELATED","action_taken":"DOSE NOT CHANGED","outcome":"RECOVERED/RESOLVED","fatal":"N","hospitalization":"N","life_threatening":"N","onset_dtc":"2025-02-03","end_dtc":"2025-02-07","onset_dy":"324","end_dy":"328","duration":null,"epoch":"TREATMENT","visit":null,"supplemental":{"AETRTEM":"Y"}},{"seq":"14","term":"HYPOTENSION","decod":"Hypotension","llt":"Hypotension","hlt":"Vascular hypotensive disorders","hlgt":"Vascular disorders NEC","soc":"Vascular disorders","bodsys":"Vascular disorders","severity":"MILD","serious":"N","causality":"UNLIKELY RELATED","action_taken":"DOSE NOT CHANGED","outcome":"RECOVERED/RESOLVED","fatal":"N","hospitalization":"N","life_threatening":"N","onset_dtc":"2025-02-09","end_dtc":"2025-02-21","onset_dy":"330","end_dy":"342","duration":null,"epoch":"TREATMENT","visit":null,"supplemental":{"AETRTEM":"Y"}},{"seq":"15","term":"FATIGUE","decod":"Fatigue","llt":"Fatigue","hlt":"Asthenic conditions","hlgt":"General system disorders NEC","soc":"General disorders and administration site conditions","bodsys":"General disorders and administration site conditions","severity":"SEVERE","serious":"Y","causality":"NOT RELATED","action_taken":"DOSE NOT CHANGED","outcome":"RECOVERED/RESOLVED WITH SEQUELAE","fatal":"N","hospitalization":"Y","life_threatening":"N","onset_dtc":"2025-03-06","end_dtc":"2025-05-03","onset_dy":"355","end_dy":"413","duration":null,"epoch":"TREATMENT","visit":null,"supplemental":{"AETRTEM":"Y"}},{"seq":"16","term":"FATIGUE","decod":"Fatigue","llt":"Fatigue","hlt":"Asthenic conditions","hlgt":"General system disorders NEC","soc":"General disorders and administration site conditions","bodsys":"General disorders and administration site conditions","severity":"MODERATE","serious":"N","causality":"NOT RELATED","action_taken":"DOSE NOT CHANGED","outcome":"RECOVERED/RESOLVED","fatal":"N","hospitalization":"N","life_threatening":"N","onset_dtc":"2025-04-09","end_dtc":"2025-04-30","onset_dy":"389","end_dy":"410","duration":null,"epoch":"TREATMENT","visit":null,"supplemental":{"AETRTEM":"Y"}},{"seq":"17","term":"URINARY TRACT INFECTION","decod":"Urinary tract infection","llt":"Urinary tract infection","hlt":"Urinary tract infections","hlgt":"Infections NEC","soc":"Infections and infestations","bodsys":"Infections and infestations","severity":"MILD","serious":"N","causality":"NOT RELATED","action_taken":"DOSE NOT CHANGED","outcome":"RECOVERING/RESOLVING","fatal":"N","hospitalization":"N","life_threatening":"N","onset_dtc":"2025-04-13","end_dtc":"2025-04-16","onset_dy":"393","end_dy":"396","duration":null,"epoch":"TREATMENT","visit":null,"supplemental":{"AETRTEM":"Y"}},{"seq":"18","term":"DEHYDRATION","decod":"Dehydration","llt":"Dehydration","hlt":"Fluid intake decreased and dehydration","hlgt":"Fluid and electrolyte conditions NEC","soc":"Metabolism and nutrition disorders","bodsys":"Metabolism and nutrition disorders","severity":"MILD","serious":"N","causality":"NOT RELATED","action_taken":"DOSE NOT CHANGED","outcome":"RECOVERED/RESOLVED","fatal":"N","hospitalization":"N","life_threatening":"N","onset_dtc":"2025-04-21","end_dtc":"2025-04-27","onset_dy":"401","end_dy":"407","duration":null,"epoch":"TREATMENT","visit":null,"supplemental":{"AETRTEM":"Y"}},{"seq":"19","term":"URINARY TRACT INFECTION","decod":"Urinary tract infection","llt":"Urinary tract infection","hlt":"Urinary tract infections","hlgt":"Infections NEC","soc":"Infections and infestations","bodsys":"Infections and infestations","severity":"MILD","serious":"N","causality":"UNLIKELY RELATED","action_taken":"DOSE NOT CHANGED","outcome":"RECOVERED/RESOLVED","fatal":"N","hospitalization":"N","life_threatening":"N","onset_dtc":"2025-06-04","end_dtc":"2025-06-11","onset_dy":"445","end_dy":"452","duration":null,"epoch":"TREATMENT","visit":null,"supplemental":{"AETRTEM":"Y"}},{"seq":"20","term":"HEADACHE","decod":"Headache","llt":"Headache","hlt":"Headaches NEC","hlgt":"Headaches","soc":"Nervous system disorders","bodsys":"Nervous system disorders","severity":"MILD","serious":"N","causality":"NOT RELATED","action_taken":"DOSE NOT CHANGED","outcome":"RECOVERED/RESOLVED","fatal":"N","hospitalization":"N","life_threatening":"N","onset_dtc":"2025-06-15","end_dtc":"2025-06-16","onset_dy":"456","end_dy":"457","duration":null,"epoch":"TREATMENT","visit":null,"supplemental":{"AETRTEM":"Y"}},{"seq":"21","term":"HYPOTENSION","decod":"Hypotension","llt":"Hypotension","hlt":"Vascular hypotensive disorders","hlgt":"Vascular disorders NEC","soc":"Vascular disorders","bodsys":"Vascular disorders","severity":"MILD","serious":"N","causality":"NOT RELATED","action_taken":"DOSE NOT CHANGED","outcome":"RECOVERING/RESOLVING","fatal":"N","hospitalization":"N","life_threatening":"N","onset_dtc":"2025-06-20","end_dtc":"2025-06-27","onset_dy":"461","end_dy":"468","duration":null,"epoch":"TREATMENT","visit":null,"supplemental":{"AETRTEM":"Y"}},{"seq":"22","term":"HYPOGLYCAEMIA","decod":"Hypoglycaemia","llt":"Hypoglycaemia","hlt":"Hypoglycaemic conditions NEC","hlgt":"Glucose metabolism disorders (incl diabetes mellitus)","soc":"Metabolism and nutrition disorders","bodsys":"Metabolism and nutrition disorders","severity":"MILD","serious":"N","causality":"NOT RELATED","action_taken":"DOSE NOT CHANGED","outcome":"RECOVERED/RESOLVED","fatal":"N","hospitalization":"N","life_threatening":"N","onset_dtc":"2025-07-14","end_dtc":"2025-07-18","onset_dy":"485","end_dy":"489","duration":null,"epoch":"TREATMENT","visit":null,"supplemental":{"AETRTEM":"Y"}},{"seq":"23","term":"HYPOGLYCAEMIA","decod":"Hypoglycaemia","llt":"Hypoglycaemia","hlt":"Hypoglycaemic conditions NEC","hlgt":"Glucose metabolism disorders (incl diabetes mellitus)","soc":"Metabolism and nutrition disorders","bodsys":"Metabolism and nutrition disorders","severity":"MILD","serious":"N","causality":"NOT RELATED","action_taken":"DOSE NOT CHANGED","outcome":"RECOVERED/RESOLVED","fatal":"N","hospitalization":"N","life_threatening":"N","onset_dtc":"2025-08-05","end_dtc":"2025-08-18","onset_dy":"507","end_dy":"520","duration":null,"epoch":"TREATMENT","visit":null,"supplemental":{"AETRTEM":"Y"}},{"seq":"24","term":"DIZZINESS","decod":"Dizziness","llt":"Dizziness","hlt":"Dizziness and vertigo symptoms","hlgt":"Neurological signs and symptoms NEC","soc":"Nervous system disorders","bodsys":"Nervous system disorders","severity":"MODERATE","serious":"N","causality":"NOT RELATED","action_taken":"DOSE NOT CHANGED","outcome":"UNKNOWN","fatal":"N","hospitalization":"N","life_threatening":"N","onset_dtc":"2025-09-27","end_dtc":"2025-10-26","onset_dy":"560","end_dy":"589","duration":null,"epoch":"TREATMENT","visit":null,"supplemental":{"AETRTEM":"Y"}},{"seq":"25","term":"HYPOGLYCAEMIA","decod":"Hypoglycaemia","llt":"Hypoglycaemia","hlt":"Hypoglycaemic conditions NEC","hlgt":"Glucose metabolism disorders (incl diabetes mellitus)","soc":"Metabolism and nutrition disorders","bodsys":"Metabolism and nutrition disorders","severity":"MODERATE","serious":"N","causality":"NOT RELATED","action_taken":"DOSE NOT CHANGED","outcome":"RECOVERING/RESOLVING","fatal":"N","hospitalization":"N","life_threatening":"N","onset_dtc":"2025-09-28","end_dtc":"2025-10-11","onset_dy":"561","end_dy":"574","duration":null,"epoch":"TREATMENT","visit":null,"supplemental":{"AETRTEM":"Y"}},{"seq":"26","term":"GENITAL INFECTION FUNGAL","decod":"Genital infection fungal","llt":"Genital infection fungal","hlt":"Vulvovaginal infections","hlgt":"Infections NEC","soc":"Infections and infestations","bodsys":"Infections and infestations","severity":"MILD","serious":"N","causality":"NOT RELATED","action_taken":"DOSE NOT CHANGED","outcome":"RECOVERED/RESOLVED","fatal":"N","hospitalization":"N","life_threatening":"N","onset_dtc":"2025-10-01","end_dtc":"2025-10-05","onset_dy":"564","end_dy":"568","duration":null,"epoch":"TREATMENT","visit":null,"supplemental":{"AETRTEM":"Y"}},{"seq":"27","term":"CARDIAC FAILURE","decod":"Cardiac failure","llt":"Cardiac failure","hlt":"Cardiac failure signs and symptoms","hlgt":"Heart failures","soc":"Cardiac disorders","bodsys":"Cardiac disorders","severity":"MILD","serious":"N","causality":"UNLIKELY RELATED","action_taken":"DOSE NOT CHANGED","outcome":"NOT RECOVERED/NOT RESOLVED","fatal":"N","hospitalization":"N","life_threatening":"N","onset_dtc":"2025-10-13","end_dtc":null,"onset_dy":"576","end_dy":null,"duration":null,"epoch":"TREATMENT","visit":null,"supplemental":{"AETRTEM":"Y"}},{"seq":"28","term":"ACUTE KIDNEY INJURY","decod":"Acute kidney injury","llt":"Acute kidney injury","hlt":"Renal disorders NEC","hlgt":"Renal disorders (excl nephropathies)","soc":"Renal and urinary disorders","bodsys":"Renal and urinary disorders","severity":"MODERATE","serious":"N","causality":"NOT RELATED","action_taken":"DOSE NOT CHANGED","outcome":"RECOVERED/RESOLVED","fatal":"N","hospitalization":"N","life_threatening":"N","onset_dtc":"2025-12-13","end_dtc":"2026-01-10","onset_dy":"637","end_dy":"665","duration":null,"epoch":"TREATMENT","visit":null,"supplemental":{"AETRTEM":"Y"}},{"seq":"29","term":"HEADACHE","decod":"Headache","llt":"Headache","hlt":"Headaches NEC","hlgt":"Headaches","soc":"Nervous system disorders","bodsys":"Nervous system disorders","severity":"SEVERE","serious":"Y","causality":"NOT RELATED","action_taken":"DOSE NOT CHANGED","outcome":"RECOVERED/RESOLVED","fatal":"N","hospitalization":"Y","life_threatening":"N","onset_dtc":"2025-12-16","end_dtc":"2025-12-26","onset_dy":"640","end_dy":"650","duration":null,"epoch":"TREATMENT","visit":null,"supplemental":{"AETRTEM":"Y"}},{"seq":"30","term":"SEPSIS","decod":"Sepsis","llt":"Sepsis","hlt":"Sepsis, bacteraemia, viraemia and fungaemia NEC","hlgt":"Infections NEC","soc":"Infections and infestations","bodsys":"Infections and infestations","severity":"MODERATE","serious":"N","causality":"NOT RELATED","action_taken":"DOSE NOT CHANGED","outcome":"RECOVERED/RESOLVED","fatal":"N","hospitalization":"N","life_threatening":"N","onset_dtc":"2026-01-04","end_dtc":"2026-01-08","onset_dy":"659","end_dy":"663","duration":null,"epoch":"TREATMENT","visit":null,"supplemental":{"AETRTEM":"Y"}},{"seq":"31","term":"URINARY TRACT INFECTION","decod":"Urinary tract infection","llt":"Urinary tract infection","hlt":"Urinary tract infections","hlgt":"Infections NEC","soc":"Infections and infestations","bodsys":"Infections and infestations","severity":"MODERATE","serious":"N","causality":"NOT RELATED","action_taken":"DOSE NOT CHANGED","outcome":"NOT RECOVERED/NOT RESOLVED","fatal":"N","hospitalization":"N","life_threatening":"N","onset_dtc":"2026-01-14","end_dtc":null,"onset_dy":"669","end_dy":null,"duration":null,"epoch":"TREATMENT","visit":null,"supplemental":{"AETRTEM":"Y"}},{"seq":"32","term":"URINARY TRACT INFECTION","decod":"Urinary tract infection","llt":"Urinary tract infection","hlt":"Urinary tract infections","hlgt":"Infections NEC","soc":"Infections and infestations","bodsys":"Infections and infestations","severity":"SEVERE","serious":"Y","causality":"NOT RELATED","action_taken":"DOSE NOT CHANGED","outcome":"RECOVERED/RESOLVED","fatal":"N","hospitalization":"Y","life_threatening":"N","onset_dtc":"2026-02-14","end_dtc":"2026-02-25","onset_dy":"700","end_dy":"711","duration":null,"epoch":"TREATMENT","visit":null,"supplemental":{"AETRTEM":"Y"}},{"seq":"33","term":"HYPOTENSION","decod":"Hypotension","llt":"Hypotension","hlt":"Vascular hypotensive disorders","hlgt":"Vascular disorders NEC","soc":"Vascular disorders","bodsys":"Vascular disorders","severity":"MODERATE","serious":"N","causality":"NOT RELATED","action_taken":"DOSE NOT CHANGED","outcome":"RECOVERING/RESOLVING","fatal":"N","hospitalization":"N","life_threatening":"N","onset_dtc":"2026-03-07","end_dtc":"2026-03-30","onset_dy":"721","end_dy":"744","duration":null,"epoch":"TREATMENT","visit":null,"supplemental":{"AETRTEM":"Y"}},{"seq":"34","term":"BLOOD CREATININE INCREASED","decod":"Blood creatinine increased","llt":"Blood creatinine increased","hlt":"Renal function analyses","hlgt":"Renal and urinary tract investigations and urinalyses","soc":"Investigations","bodsys":"Investigations","severity":"MODERATE","serious":"N","causality":"NOT RELATED","action_taken":"DOSE NOT CHANGED","outcome":"RECOVERED/RESOLVED","fatal":"N","hospitalization":"N","life_threatening":"N","onset_dtc":"2026-04-12","end_dtc":"2026-05-05","onset_dy":"757","end_dy":"780","duration":null,"epoch":"TREATMENT","visit":null,"supplemental":{"AETRTEM":"Y"}},{"seq":"35","term":"BLOOD CREATININE INCREASED","decod":"Blood creatinine increased","llt":"Blood creatinine increased","hlt":"Renal function analyses","hlgt":"Renal and urinary tract investigations and urinalyses","soc":"Investigations","bodsys":"Investigations","severity":"SEVERE","serious":"Y","causality":"NOT RELATED","action_taken":"DOSE NOT CHANGED","outcome":"RECOVERED/RESOLVED","fatal":"N","hospitalization":"N","life_threatening":"N","onset_dtc":"2026-04-29","end_dtc":"2026-05-11","onset_dy":"774","end_dy":"786","duration":null,"epoch":"TREATMENT","visit":null,"supplemental":{"AETRTEM":"Y"}}]},"section_8_laboratory_results":{"summary":{"total_records":63,"abnormal_count":9,"abnormal_pct":14.3},"shift_summary":[{"testcd":"ALT","baseline_value":36.82,"baseline_nrind":"NORMAL","worst_post_baseline_value":36.75,"worst_post_baseline_nrind":"NORMAL","worst_visit":"WEEK 12"},{"testcd":"AST","baseline_value":35.56,"baseline_nrind":"NORMAL","worst_post_baseline_value":38.18,"worst_post_baseline_nrind":"NORMAL","worst_visit":"WEEK 4"},{"testcd":"CREAT","baseline_value":61.78,"baseline_nrind":"NORMAL","worst_post_baseline_value":64.15,"worst_post_baseline_nrind":"NORMAL","worst_visit":"WEEK 4"},{"testcd":"GLUC","baseline_value":6.11,"baseline_nrind":"HIGH","worst_post_baseline_value":6.32,"worst_post_baseline_nrind":"HIGH","worst_visit":"EOT"},{"testcd":"HGB","baseline_value":125.15,"baseline_nrind":"NORMAL","worst_post_baseline_value":127.58,"worst_post_baseline_nrind":"NORMAL","worst_visit":"BASELINE"},{"testcd":"PLAT","baseline_value":255.72,"baseline_nrind":"NORMAL","worst_post_baseline_value":272.67,"worst_post_baseline_nrind":"NORMAL","worst_visit":"BASELINE"},{"testcd":"WBC","baseline_value":5.3,"baseline_nrind":"NORMAL","worst_post_baseline_value":7.61,"worst_post_baseline_nrind":"NORMAL","worst_visit":"MONTH 6"}],"results":[{"seq":"1","testcd":"ALT","test":"Alanine Aminotransferase","cat":"CHEMISTRY","orres":"36.82","orresu":"U/L","stresc":"36.82","stresn":"36.82","stresu":"U/L","stnrlo":"7","stnrhi":"56","nrind":"NORMAL","fast":null,"dtc":"2024-01-28","dy":"-49","visit":"SCREENING","visitnum":"1.0","epoch":"SCREENING","spec":null,"method":null},{"seq":"2","testcd":"AST","test":"Aspartate Aminotransferase","cat":"CHEMISTRY","orres":"35.56","orresu":"U/L","stresc":"35.56","stresn":"35.56","stresu":"U/L","stnrlo":"10","stnrhi":"40","nrind":"NORMAL","fast":null,"dtc":"2024-01-28","dy":"-49","visit":"SCREENING","visitnum":"1.0","epoch":"SCREENING","spec":null,"method":null},{"seq":"3","testcd":"CREAT","test":"Creatinine","cat":"CHEMISTRY","orres":"61.78","orresu":"umol/L","stresc":"61.78","stresn":"61.78","stresu":"umol/L","stnrlo":"44","stnrhi":"80","nrind":"NORMAL","fast":null,"dtc":"2024-01-28","dy":"-49","visit":"SCREENING","visitnum":"1.0","epoch":"SCREENING","spec":null,"method":null},{"seq":"4","testcd":"GLUC","test":"Glucose","cat":"CHEMISTRY","orres":"6.11","orresu":"mmol/L","stresc":"6.11","stresn":"6.11","stresu":"mmol/L","stnrlo":"3.9","stnrhi":"5.6","nrind":"HIGH","fast":null,"dtc":"2024-01-28","dy":"-49","visit":"SCREENING","visitnum":"1.0","epoch":"SCREENING","spec":null,"method":null},{"seq":"5","testcd":"HGB","test":"Hemoglobin","cat":"HEMATOLOGY","orres":"125.15","orresu":"g/L","stresc":"125.15","stresn":"125.15","stresu":"g/L","stnrlo":"120","stnrhi":"155","nrind":"NORMAL","fast":null,"dtc":"2024-01-28","dy":"-49","visit":"SCREENING","visitnum":"1.0","epoch":"SCREENING","spec":null,"method":null},{"seq":"6","testcd":"PLAT","test":"Platelets","cat":"HEMATOLOGY","orres":"255.72","orresu":"10^9/L","stresc":"255.72","stresn":"255.72","stresu":"10^9/L","stnrlo":"150","stnrhi":"400","nrind":"NORMAL","fast":null,"dtc":"2024-01-28","dy":"-49","visit":"SCREENING","visitnum":"1.0","epoch":"SCREENING","spec":null,"method":null},{"seq":"7","testcd":"WBC","test":"Leukocytes","cat":"HEMATOLOGY","orres":"5.3","orresu":"10^9/L","stresc":"5.3","stresn":"5.3","stresu":"10^9/L","stnrlo":"4.0","stnrhi":"11.0","nrind":"NORMAL","fast":null,"dtc":"2024-01-28","dy":"-49","visit":"SCREENING","visitnum":"1.0","epoch":"SCREENING","spec":null,"method":null},{"seq":"8","testcd":"ALT","test":"Alanine Aminotransferase","cat":"CHEMISTRY","orres":"35.16","orresu":"U/L","stresc":"35.16","stresn":"35.16","stresu":"U/L","stnrlo":"7","stnrhi":"56","nrind":"NORMAL","fast":null,"dtc":"2024-03-17","dy":"1","visit":"BASELINE","visitnum":"2.0","epoch":"TREATMENT","spec":null,"method":null},{"seq":"9","testcd":"AST","test":"Aspartate Aminotransferase","cat":"CHEMISTRY","orres":"37.13","orresu":"U/L","stresc":"37.13","stresn":"37.13","stresu":"U/L","stnrlo":"10","stnrhi":"40","nrind":"NORMAL","fast":null,"dtc":"2024-03-17","dy":"1","visit":"BASELINE","visitnum":"2.0","epoch":"TREATMENT","spec":null,"method":null},{"seq":"10","testcd":"CREAT","test":"Creatinine","cat":"CHEMISTRY","orres":"62.69","orresu":"umol/L","stresc":"62.69","stresn":"62.69","stresu":"umol/L","stnrlo":"44","stnrhi":"80","nrind":"NORMAL","fast":null,"dtc":"2024-03-17","dy":"1","visit":"BASELINE","visitnum":"2.0","epoch":"TREATMENT","spec":null,"method":null},{"seq":"11","testcd":"GLUC","test":"Glucose","cat":"CHEMISTRY","orres":"6.08","orresu":"mmol/L","stresc":"6.08","stresn":"6.08","stresu":"mmol/L","stnrlo":"3.9","stnrhi":"5.6","nrind":"HIGH","fast":null,"dtc":"2024-03-17","dy":"1","visit":"BASELINE","visitnum":"2.0","epoch":"TREATMENT","spec":null,"method":null},{"seq":"12","testcd":"HGB","test":"Hemoglobin","cat":"HEMATOLOGY","orres":"127.58","orresu":"g/L","stresc":"127.58","stresn":"127.58","stresu":"g/L","stnrlo":"120","stnrhi":"155","nrind":"NORMAL","fast":null,"dtc":"2024-03-17","dy":"1","visit":"BASELINE","visitnum":"2.0","epoch":"TREATMENT","spec":null,"method":null},{"seq":"13","testcd":"PLAT","test":"Platelets","cat":"HEMATOLOGY","orres":"272.67","orresu":"10^9/L","stresc":"272.67","stresn":"272.67","stresu":"10^9/L","stnrlo":"150","stnrhi":"400","nrind":"NORMAL","fast":null,"dtc":"2024-03-17","dy":"1","visit":"BASELINE","visitnum":"2.0","epoch":"TREATMENT","spec":null,"method":null},{"seq":"14","testcd":"WBC","test":"Leukocytes","cat":"HEMATOLOGY","orres":"5.93","orresu":"10^9/L","stresc":"5.93","stresn":"5.93","stresu":"10^9/L","stnrlo":"4.0","stnrhi":"11.0","nrind":"NORMAL","fast":null,"dtc":"2024-03-17","dy":"1","visit":"BASELINE","visitnum":"2.0","epoch":"TREATMENT","spec":null,"method":null},{"seq":"15","testcd":"ALT","test":"Alanine Aminotransferase","cat":"CHEMISTRY","orres":"36.37","orresu":"U/L","stresc":"36.37","stresn":"36.37","stresu":"U/L","stnrlo":"7","stnrhi":"56","nrind":"NORMAL","fast":null,"dtc":"2024-04-16","dy":"31","visit":"WEEK 4","visitnum":"3.0","epoch":"TREATMENT","spec":null,"method":null},{"seq":"16","testcd":"AST","test":"Aspartate Aminotransferase","cat":"CHEMISTRY","orres":"38.18","orresu":"U/L","stresc":"38.18","stresn":"38.18","stresu":"U/L","stnrlo":"10","stnrhi":"40","nrind":"NORMAL","fast":null,"dtc":"2024-04-16","dy":"31","visit":"WEEK 4","visitnum":"3.0","epoch":"TREATMENT","spec":null,"method":null},{"seq":"17","testcd":"CREAT","test":"Creatinine","cat":"CHEMISTRY","orres":"64.15","orresu":"umol/L","stresc":"64.15","stresn":"64.15","stresu":"umol/L","stnrlo":"44","stnrhi":"80","nrind":"NORMAL","fast":null,"dtc":"2024-04-16","dy":"31","visit":"WEEK 4","visitnum":"3.0","epoch":"TREATMENT","spec":null,"method":null},{"seq":"18","testcd":"GLUC","test":"Glucose","cat":"CHEMISTRY","orres":"6.23","orresu":"mmol/L","stresc":"6.23","stresn":"6.23","stresu":"mmol/L","stnrlo":"3.9","stnrhi":"5.6","nrind":"HIGH","fast":null,"dtc":"2024-04-16","dy":"31","visit":"WEEK 4","visitnum":"3.0","epoch":"TREATMENT","spec":null,"method":null},{"seq":"19","testcd":"HGB","test":"Hemoglobin","cat":"HEMATOLOGY","orres":"129.15","orresu":"g/L","stresc":"129.15","stresn":"129.15","stresu":"g/L","stnrlo":"120","stnrhi":"155","nrind":"NORMAL","fast":null,"dtc":"2024-04-16","dy":"31","visit":"WEEK 4","visitnum":"3.0","epoch":"TREATMENT","spec":null,"method":null},{"seq":"20","testcd":"PLAT","test":"Platelets","cat":"HEMATOLOGY","orres":"251.32","orresu":"10^9/L","stresc":"251.32","stresn":"251.32","stresu":"10^9/L","stnrlo":"150","stnrhi":"400","nrind":"NORMAL","fast":null,"dtc":"2024-04-16","dy":"31","visit":"WEEK 4","visitnum":"3.0","epoch":"TREATMENT","spec":null,"method":null},{"seq":"21","testcd":"WBC","test":"Leukocytes","cat":"HEMATOLOGY","orres":"5.49","orresu":"10^9/L","stresc":"5.49","stresn":"5.49","stresu":"10^9/L","stnrlo":"4.0","stnrhi":"11.0","nrind":"NORMAL","fast":null,"dtc":"2024-04-16","dy":"31","visit":"WEEK 4","visitnum":"3.0","epoch":"TREATMENT","spec":null,"method":null},{"seq":"22","testcd":"ALT","test":"Alanine Aminotransferase","cat":"CHEMISTRY","orres":"36.75","orresu":"U/L","stresc":"36.75","stresn":"36.75","stresu":"U/L","stnrlo":"7","stnrhi":"56","nrind":"NORMAL","fast":null,"dtc":"2024-06-09","dy":"85","visit":"WEEK 12","visitnum":"4.0","epoch":"TREATMENT","spec":null,"method":null},{"seq":"23","testcd":"AST","test":"Aspartate Aminotransferase","cat":"CHEMISTRY","orres":"34.27","orresu":"U/L","stresc":"34.27","stresn":"34.27","stresu":"U/L","stnrlo":"10","stnrhi":"40","nrind":"NORMAL","fast":null,"dtc":"2024-06-09","dy":"85","visit":"WEEK 12","visitnum":"4.0","epoch":"TREATMENT","spec":null,"method":null},{"seq":"24","testcd":"CREAT","test":"Creatinine","cat":"CHEMISTRY","orres":"60.59","orresu":"umol/L","stresc":"60.59","stresn":"60.59","stresu":"umol/L","stnrlo":"44","stnrhi":"80","nrind":"NORMAL","fast":null,"dtc":"2024-06-09","dy":"85","visit":"WEEK 12","visitnum":"4.0","epoch":"TREATMENT","spec":null,"method":null},{"seq":"25","testcd":"GLUC","test":"Glucose","cat":"CHEMISTRY","orres":"6.04","orresu":"mmol/L","stresc":"6.04","stresn":"6.04","stresu":"mmol/L","stnrlo":"3.9","stnrhi":"5.6","nrind":"HIGH","fast":null,"dtc":"2024-06-09","dy":"85","visit":"WEEK 12","visitnum":"4.0","epoch":"TREATMENT","spec":null,"method":null},{"seq":"26","testcd":"HGB","test":"Hemoglobin","cat":"HEMATOLOGY","orres":"127.84","orresu":"g/L","stresc":"127.84","stresn":"127.84","stresu":"g/L","stnrlo":"120","stnrhi":"155","nrind":"NORMAL","fast":null,"dtc":"2024-06-09","dy":"85","visit":"WEEK 12","visitnum":"4.0","epoch":"TREATMENT","spec":null,"method":null},{"seq":"27","testcd":"PLAT","test":"Platelets","cat":"HEMATOLOGY","orres":"246.97","orresu":"10^9/L","stresc":"246.97","stresn":"246.97","stresu":"10^9/L","stnrlo":"150","stnrhi":"400","nrind":"NORMAL","fast":null,"dtc":"2024-06-09","dy":"85","visit":"WEEK 12","visitnum":"4.0","epoch":"TREATMENT","spec":null,"method":null},{"seq":"28","testcd":"WBC","test":"Leukocytes","cat":"HEMATOLOGY","orres":null,"orresu":null,"stresc":null,"stresn":null,"stresu":null,"stnrlo":null,"stnrhi":null,"nrind":null,"fast":null,"dtc":"2024-06-09","dy":"85","visit":"WEEK 12","visitnum":"4.0","epoch":"TREATMENT","spec":null,"method":null},{"seq":"29","testcd":"ALT","test":"Alanine Aminotransferase","cat":"CHEMISTRY","orres":"35.4","orresu":"U/L","stresc":"35.4","stresn":"35.4","stresu":"U/L","stnrlo":"7","stnrhi":"56","nrind":"NORMAL","fast":null,"dtc":"2024-09-29","dy":"197","visit":"MONTH 6","visitnum":"5.0","epoch":"TREATMENT","spec":null,"method":null},{"seq":"30","testcd":"AST","test":"Aspartate Aminotransferase","cat":"CHEMISTRY","orres":"35.34","orresu":"U/L","stresc":"35.34","stresn":"35.34","stresu":"U/L","stnrlo":"10","stnrhi":"40","nrind":"NORMAL","fast":null,"dtc":"2024-09-29","dy":"197","visit":"MONTH 6","visitnum":"5.0","epoch":"TREATMENT","spec":null,"method":null},{"seq":"31","testcd":"CREAT","test":"Creatinine","cat":"CHEMISTRY","orres":"62.49","orresu":"umol/L","stresc":"62.49","stresn":"62.49","stresu":"umol/L","stnrlo":"44","stnrhi":"80","nrind":"NORMAL","fast":null,"dtc":"2024-09-29","dy":"197","visit":"MONTH 6","visitnum":"5.0","epoch":"TREATMENT","spec":null,"method":null},{"seq":"32","testcd":"GLUC","test":"Glucose","cat":"CHEMISTRY","orres":"6.12","orresu":"mmol/L","stresc":"6.12","stresn":"6.12","stresu":"mmol/L","stnrlo":"3.9","stnrhi":"5.6","nrind":"HIGH","fast":null,"dtc":"2024-09-29","dy":"197","visit":"MONTH 6","visitnum":"5.0","epoch":"TREATMENT","spec":null,"method":null},{"seq":"33","testcd":"HGB","test":"Hemoglobin","cat":"HEMATOLOGY","orres":"129.31","orresu":"g/L","stresc":"129.31","stresn":"129.31","stresu":"g/L","stnrlo":"120","stnrhi":"155","nrind":"NORMAL","fast":null,"dtc":"2024-09-29","dy":"197","visit":"MONTH 6","visitnum":"5.0","epoch":"TREATMENT","spec":null,"method":null},{"seq":"34","testcd":"PLAT","test":"Platelets","cat":"HEMATOLOGY","orres":"259.43","orresu":"10^9/L","stresc":"259.43","stresn":"259.43","stresu":"10^9/L","stnrlo":"150","stnrhi":"400","nrind":"NORMAL","fast":null,"dtc":"2024-09-29","dy":"197","visit":"MONTH 6","visitnum":"5.0","epoch":"TREATMENT","spec":null,"method":null},{"seq":"35","testcd":"WBC","test":"Leukocytes","cat":"HEMATOLOGY","orres":"7.61","orresu":"10^9/L","stresc":"7.61","stresn":"7.61","stresu":"10^9/L","stnrlo":"4.0","stnrhi":"11.0","nrind":"NORMAL","fast":null,"dtc":"2024-09-29","dy":"197","visit":"MONTH 6","visitnum":"5.0","epoch":"TREATMENT","spec":null,"method":null},{"seq":"36","testcd":"ALT","test":"Alanine Aminotransferase","cat":"CHEMISTRY","orres":null,"orresu":null,"stresc":null,"stresn":null,"stresu":null,"stnrlo":null,"stnrhi":null,"nrind":null,"fast":null,"dtc":"2025-03-26","dy":"375","visit":"MONTH 12","visitnum":"6.0","epoch":"TREATMENT","spec":null,"method":null},{"seq":"37","testcd":"AST","test":"Aspartate Aminotransferase","cat":"CHEMISTRY","orres":"33.85","orresu":"U/L","stresc":"33.85","stresn":"33.85","stresu":"U/L","stnrlo":"10","stnrhi":"40","nrind":"NORMAL","fast":null,"dtc":"2025-03-26","dy":"375","visit":"MONTH 12","visitnum":"6.0","epoch":"TREATMENT","spec":null,"method":null},{"seq":"38","testcd":"CREAT","test":"Creatinine","cat":"CHEMISTRY","orres":"61.43","orresu":"umol/L","stresc":"61.43","stresn":"61.43","stresu":"umol/L","stnrlo":"44","stnrhi":"80","nrind":"NORMAL","fast":null,"dtc":"2025-03-26","dy":"375","visit":"MONTH 12","visitnum":"6.0","epoch":"TREATMENT","spec":null,"method":null},{"seq":"39","testcd":"GLUC","test":"Glucose","cat":"CHEMISTRY","orres":"6.11","orresu":"mmol/L","stresc":"6.11","stresn":"6.11","stresu":"mmol/L","stnrlo":"3.9","stnrhi":"5.6","nrind":"HIGH","fast":null,"dtc":"2025-03-26","dy":"375","visit":"MONTH 12","visitnum":"6.0","epoch":"TREATMENT","spec":null,"method":null},{"seq":"40","testcd":"HGB","test":"Hemoglobin","cat":"HEMATOLOGY","orres":"129.62","orresu":"g/L","stresc":"129.62","stresn":"129.62","stresu":"g/L","stnrlo":"120","stnrhi":"155","nrind":"NORMAL","fast":null,"dtc":"2025-03-26","dy":"375","visit":"MONTH 12","visitnum":"6.0","epoch":"TREATMENT","spec":null,"method":null},{"seq":"41","testcd":"PLAT","test":"Platelets","cat":"HEMATOLOGY","orres":"264.43","orresu":"10^9/L","stresc":"264.43","stresn":"264.43","stresu":"10^9/L","stnrlo":"150","stnrhi":"400","nrind":"NORMAL","fast":null,"dtc":"2025-03-26","dy":"375","visit":"MONTH 12","visitnum":"6.0","epoch":"TREATMENT","spec":null,"method":null},{"seq":"42","testcd":"WBC","test":"Leukocytes","cat":"HEMATOLOGY","orres":"4.45","orresu":"10^9/L","stresc":"4.45","stresn":"4.45","stresu":"10^9/L","stnrlo":"4.0","stnrhi":"11.0","nrind":"NORMAL","fast":null,"dtc":"2025-03-26","dy":"375","visit":"MONTH 12","visitnum":"6.0","epoch":"TREATMENT","spec":null,"method":null},{"seq":"43","testcd":"ALT","test":"Alanine Aminotransferase","cat":"CHEMISTRY","orres":"34.34","orresu":"U/L","stresc":"34.34","stresn":"34.34","stresu":"U/L","stnrlo":"7","stnrhi":"56","nrind":"NORMAL","fast":null,"dtc":"2025-09-24","dy":"557","visit":"MONTH 18","visitnum":"7.0","epoch":"TREATMENT","spec":null,"method":null},{"seq":"44","testcd":"AST","test":"Aspartate Aminotransferase","cat":"CHEMISTRY","orres":"35.75","orresu":"U/L","stresc":"35.75","stresn":"35.75","stresu":"U/L","stnrlo":"10","stnrhi":"40","nrind":"NORMAL","fast":null,"dtc":"2025-09-24","dy":"557","visit":"MONTH 18","visitnum":"7.0","epoch":"TREATMENT","spec":null,"method":null},{"seq":"45","testcd":"CREAT","test":"Creatinine","cat":"CHEMISTRY","orres":"60.93","orresu":"umol/L","stresc":"60.93","stresn":"60.93","stresu":"umol/L","stnrlo":"44","stnrhi":"80","nrind":"NORMAL","fast":null,"dtc":"2025-09-24","dy":"557","visit":"MONTH 18","visitnum":"7.0","epoch":"TREATMENT","spec":null,"method":null},{"seq":"46","testcd":"GLUC","test":"Glucose","cat":"CHEMISTRY","orres":"6.26","orresu":"mmol/L","stresc":"6.26","stresn":"6.26","stresu":"mmol/L","stnrlo":"3.9","stnrhi":"5.6","nrind":"HIGH","fast":null,"dtc":"2025-09-24","dy":"557","visit":"MONTH 18","visitnum":"7.0","epoch":"TREATMENT","spec":null,"method":null},{"seq":"47","testcd":"HGB","test":"Hemoglobin","cat":"HEMATOLOGY","orres":"129.99","orresu":"g/L","stresc":"129.99","stresn":"129.99","stresu":"g/L","stnrlo":"120","stnrhi":"155","nrind":"NORMAL","fast":null,"dtc":"2025-09-24","dy":"557","visit":"MONTH 18","visitnum":"7.0","epoch":"TREATMENT","spec":null,"method":null},{"seq":"48","testcd":"PLAT","test":"Platelets","cat":"HEMATOLOGY","orres":"250.72","orresu":"10^9/L","stresc":"250.72","stresn":"250.72","stresu":"10^9/L","stnrlo":"150","stnrhi":"400","nrind":"NORMAL","fast":null,"dtc":"2025-09-24","dy":"557","visit":"MONTH 18","visitnum":"7.0","epoch":"TREATMENT","spec":null,"method":null},{"seq":"49","testcd":"WBC","test":"Leukocytes","cat":"HEMATOLOGY","orres":"5.19","orresu":"10^9/L","stresc":"5.19","stresn":"5.19","stresu":"10^9/L","stnrlo":"4.0","stnrhi":"11.0","nrind":"NORMAL","fast":null,"dtc":"2025-09-24","dy":"557","visit":"MONTH 18","visitnum":"7.0","epoch":"TREATMENT","spec":null,"method":null},{"seq":"50","testcd":"ALT","test":"Alanine Aminotransferase","cat":"CHEMISTRY","orres":"33.03","orresu":"U/L","stresc":"33.03","stresn":"33.03","stresu":"U/L","stnrlo":"7","stnrhi":"56","nrind":"NORMAL","fast":null,"dtc":"2026-03-09","dy":"723","visit":"MONTH 24","visitnum":"8.0","epoch":"TREATMENT","spec":null,"method":null},{"seq":"51","testcd":"AST","test":"Aspartate Aminotransferase","cat":"CHEMISTRY","orres":"37.12","orresu":"U/L","stresc":"37.12","stresn":"37.12","stresu":"U/L","stnrlo":"10","stnrhi":"40","nrind":"NORMAL","fast":null,"dtc":"2026-03-09","dy":"723","visit":"MONTH 24","visitnum":"8.0","epoch":"TREATMENT","spec":null,"method":null},{"seq":"52","testcd":"CREAT","test":"Creatinine","cat":"CHEMISTRY","orres":"60.39","orresu":"umol/L","stresc":"60.39","stresn":"60.39","stresu":"umol/L","stnrlo":"44","stnrhi":"80","nrind":"NORMAL","fast":null,"dtc":"2026-03-09","dy":"723","visit":"MONTH 24","visitnum":"8.0","epoch":"TREATMENT","spec":null,"method":null},{"seq":"53","testcd":"GLUC","test":"Glucose","cat":"CHEMISTRY","orres":"6.16","orresu":"mmol/L","stresc":"6.16","stresn":"6.16","stresu":"mmol/L","stnrlo":"3.9","stnrhi":"5.6","nrind":"HIGH","fast":null,"dtc":"2026-03-09","dy":"723","visit":"MONTH 24","visitnum":"8.0","epoch":"TREATMENT","spec":null,"method":null},{"seq":"54","testcd":"HGB","test":"Hemoglobin","cat":"HEMATOLOGY","orres":null,"orresu":null,"stresc":null,"stresn":null,"stresu":null,"stnrlo":null,"stnrhi":null,"nrind":null,"fast":null,"dtc":"2026-03-09","dy":"723","visit":"MONTH 24","visitnum":"8.0","epoch":"TREATMENT","spec":null,"method":null},{"seq":"55","testcd":"PLAT","test":"Platelets","cat":"HEMATOLOGY","orres":"236.58","orresu":"10^9/L","stresc":"236.58","stresn":"236.58","stresu":"10^9/L","stnrlo":"150","stnrhi":"400","nrind":"NORMAL","fast":null,"dtc":"2026-03-09","dy":"723","visit":"MONTH 24","visitnum":"8.0","epoch":"TREATMENT","spec":null,"method":null},{"seq":"56","testcd":"WBC","test":"Leukocytes","cat":"HEMATOLOGY","orres":"5.82","orresu":"10^9/L","stresc":"5.82","stresn":"5.82","stresu":"10^9/L","stnrlo":"4.0","stnrhi":"11.0","nrind":"NORMAL","fast":null,"dtc":"2026-03-09","dy":"723","visit":"MONTH 24","visitnum":"8.0","epoch":"TREATMENT","spec":null,"method":null},{"seq":"57","testcd":"ALT","test":"Alanine Aminotransferase","cat":"CHEMISTRY","orres":null,"orresu":null,"stresc":null,"stresn":null,"stresu":null,"stnrlo":null,"stnrhi":null,"nrind":null,"fast":null,"dtc":"2026-05-25","dy":"800","visit":"EOT","visitnum":"9.0","epoch":"TREATMENT","spec":null,"method":null},{"seq":"58","testcd":"AST","test":"Aspartate Aminotransferase","cat":"CHEMISTRY","orres":"37.92","orresu":"U/L","stresc":"37.92","stresn":"37.92","stresu":"U/L","stnrlo":"10","stnrhi":"40","nrind":"NORMAL","fast":null,"dtc":"2026-05-25","dy":"800","visit":"EOT","visitnum":"9.0","epoch":"TREATMENT","spec":null,"method":null},{"seq":"59","testcd":"CREAT","test":"Creatinine","cat":"CHEMISTRY","orres":"60.34","orresu":"umol/L","stresc":"60.34","stresn":"60.34","stresu":"umol/L","stnrlo":"44","stnrhi":"80","nrind":"NORMAL","fast":null,"dtc":"2026-05-25","dy":"800","visit":"EOT","visitnum":"9.0","epoch":"TREATMENT","spec":null,"method":null},{"seq":"60","testcd":"GLUC","test":"Glucose","cat":"CHEMISTRY","orres":"6.32","orresu":"mmol/L","stresc":"6.32","stresn":"6.32","stresu":"mmol/L","stnrlo":"3.9","stnrhi":"5.6","nrind":"HIGH","fast":null,"dtc":"2026-05-25","dy":"800","visit":"EOT","visitnum":"9.0","epoch":"TREATMENT","spec":null,"method":null},{"seq":"61","testcd":"HGB","test":"Hemoglobin","cat":"HEMATOLOGY","orres":"129.32","orresu":"g/L","stresc":"129.32","stresn":"129.32","stresu":"g/L","stnrlo":"120","stnrhi":"155","nrind":"NORMAL","fast":null,"dtc":"2026-05-25","dy":"800","visit":"EOT","visitnum":"9.0","epoch":"TREATMENT","spec":null,"method":null},{"seq":"62","testcd":"PLAT","test":"Platelets","cat":"HEMATOLOGY","orres":null,"orresu":null,"stresc":null,"stresn":null,"stresu":null,"stnrlo":null,"stnrhi":null,"nrind":null,"fast":null,"dtc":"2026-05-25","dy":"800","visit":"EOT","visitnum":"9.0","epoch":"TREATMENT","spec":null,"method":null},{"seq":"63","testcd":"WBC","test":"Leukocytes","cat":"HEMATOLOGY","orres":"5.21","orresu":"10^9/L","stresc":"5.21","stresn":"5.21","stresu":"10^9/L","stnrlo":"4.0","stnrhi":"11.0","nrind":"NORMAL","fast":null,"dtc":"2026-05-25","dy":"800","visit":"EOT","visitnum":"9.0","epoch":"TREATMENT","spec":null,"method":null}]},"section_9_vital_signs":{"summary":{"total_records":77},"trends":{"BMI":[{"visit":"SCREENING","visitnum":"1.0","dtc":"2024-01-28","value":"34.1","unit":"kg/m2"},{"visit":"BASELINE","visitnum":"2.0","dtc":"2024-03-17","value":"33.5","unit":"kg/m2"},{"visit":"WEEK 4","visitnum":"3.0","dtc":"2024-04-16","value":"33.7","unit":"kg/m2"},{"visit":"WEEK 12","visitnum":"4.0","dtc":"2024-06-09","value":"34.8","unit":"kg/m2"},{"visit":"MONTH 6","visitnum":"5.0","dtc":"2024-09-29","value":"35.6","unit":"kg/m2"},{"visit":"MONTH 12","visitnum":"6.0","dtc":"2025-03-26","value":"36.1","unit":"kg/m2"},{"visit":"MONTH 18","visitnum":"7.0","dtc":"2025-09-24","value":"36.5","unit":"kg/m2"},{"visit":"MONTH 24","visitnum":"8.0","dtc":"2026-03-09","value":"36.4","unit":"kg/m2"},{"visit":"EOT","visitnum":"9.0","dtc":"2026-05-25","value":"36.4","unit":"kg/m2"}],"DIABP":[{"visit":"SCREENING","visitnum":"1.0","dtc":"2024-01-28","value":"69.6","unit":"mmHg"},{"visit":"BASELINE","visitnum":"2.0","dtc":"2024-03-17T07:45","value":"69.7","unit":"mmHg"},{"visit":"BASELINE","visitnum":"2.0","dtc":"2024-03-17T09:00","value":"70.6","unit":"mmHg"},{"visit":"WEEK 4","visitnum":"3.0","dtc":"2024-04-16","value":"67.2","unit":"mmHg"},{"visit":"WEEK 12","visitnum":"4.0","dtc":"2024-06-09","value":"67.4","unit":"mmHg"},{"visit":"MONTH 6","visitnum":"5.0","dtc":"2024-09-29","value":"68.6","unit":"mmHg"},{"visit":"MONTH 12","visitnum":"6.0","dtc":"2025-03-26","value":"69.4","unit":"mmHg"},{"visit":"MONTH 18","visitnum":"7.0","dtc":"2025-09-24","value":"68.3","unit":"mmHg"},{"visit":"MONTH 24","visitnum":"8.0","dtc":"2026-03-09","value":"55.7","unit":"mmHg"},{"visit":"EOT","visitnum":"9.0","dtc":"2026-05-25","value":"67.8","unit":"mmHg"}],"HEIGHT":[{"visit":"SCREENING","visitnum":"1.0","dtc":"2024-01-28","value":"142.7","unit":"cm"},{"visit":"BASELINE","visitnum":"2.0","dtc":"2024-03-17","value":"143.3","unit":"cm"},{"visit":"WEEK 4","visitnum":"3.0","dtc":"2024-04-16","value":"142.8","unit":"cm"},{"visit":"WEEK 12","visitnum":"4.0","dtc":"2024-06-09","value":"143.4","unit":"cm"},{"visit":"MONTH 6","visitnum":"5.0","dtc":"2024-09-29","value":"143.3","unit":"cm"},{"visit":"MONTH 12","visitnum":"6.0","dtc":"2025-03-26","value":"143.1","unit":"cm"},{"visit":"MONTH 18","visitnum":"7.0","dtc":"2025-09-24","value":"142.9","unit":"cm"},{"visit":"MONTH 24","visitnum":"8.0","dtc":"2026-03-09","value":"142.9","unit":"cm"},{"visit":"EOT","visitnum":"9.0","dtc":"2026-05-25","value":"143.2","unit":"cm"}],"PULSE":[{"visit":"SCREENING","visitnum":"1.0","dtc":"2024-01-28","value":"106.3","unit":"beats/min"},{"visit":"BASELINE","visitnum":"2.0","dtc":"2024-03-17T07:45","value":"104.9","unit":"beats/min"},{"visit":"BASELINE","visitnum":"2.0","dtc":"2024-03-17T09:00","value":"105.4","unit":"beats/min"},{"visit":"WEEK 4","visitnum":"3.0","dtc":"2024-04-16","value":"102.1","unit":"beats/min"},{"visit":"WEEK 12","visitnum":"4.0","dtc":"2024-06-09","value":"105.0","unit":"beats/min"},{"visit":"MONTH 6","visitnum":"5.0","dtc":"2024-09-29","value":"107.9","unit":"beats/min"},{"visit":"MONTH 12","visitnum":"6.0","dtc":"2025-03-26","value":"105.4","unit":"beats/min"},{"visit":"MONTH 18","visitnum":"7.0","dtc":"2025-09-24","value":"104.7","unit":"beats/min"},{"visit":"MONTH 24","visitnum":"8.0","dtc":"2026-03-09","value":"105.9","unit":"beats/min"},{"visit":"EOT","visitnum":"9.0","dtc":"2026-05-25","value":"106.1","unit":"beats/min"}],"RESP":[{"visit":"SCREENING","visitnum":"1.0","dtc":"2024-01-28","value":"18.7","unit":"breaths/min"},{"visit":"BASELINE","visitnum":"2.0","dtc":"2024-03-17T07:45","value":"19.5","unit":"breaths/min"},{"visit":"BASELINE","visitnum":"2.0","dtc":"2024-03-17T09:00","value":"19.7","unit":"breaths/min"},{"visit":"WEEK 4","visitnum":"3.0","dtc":"2024-04-16","value":"21.3","unit":"breaths/min"},{"visit":"WEEK 12","visitnum":"4.0","dtc":"2024-06-09","value":"20.5","unit":"breaths/min"},{"visit":"MONTH 6","visitnum":"5.0","dtc":"2024-09-29","value":"17.7","unit":"breaths/min"},{"visit":"MONTH 12","visitnum":"6.0","dtc":"2025-03-26","value":"19.3","unit":"breaths/min"},{"visit":"MONTH 18","visitnum":"7.0","dtc":"2025-09-24","value":"19.2","unit":"breaths/min"},{"visit":"MONTH 24","visitnum":"8.0","dtc":"2026-03-09","value":"16.8","unit":"breaths/min"},{"visit":"EOT","visitnum":"9.0","dtc":"2026-05-25","value":"17.7","unit":"breaths/min"}],"SYSBP":[{"visit":"SCREENING","visitnum":"1.0","dtc":"2024-01-28","value":"125.3","unit":"mmHg"},{"visit":"BASELINE","visitnum":"2.0","dtc":"2024-03-17T07:45","value":"127.4","unit":"mmHg"},{"visit":"BASELINE","visitnum":"2.0","dtc":"2024-03-17T09:00","value":"127.6","unit":"mmHg"},{"visit":"WEEK 4","visitnum":"3.0","dtc":"2024-04-16","value":"127.8","unit":"mmHg"},{"visit":"WEEK 12","visitnum":"4.0","dtc":"2024-06-09","value":"127.3","unit":"mmHg"},{"visit":"MONTH 6","visitnum":"5.0","dtc":"2024-09-29","value":"128.6","unit":"mmHg"},{"visit":"MONTH 12","visitnum":"6.0","dtc":"2025-03-26","value":"128.2","unit":"mmHg"},{"visit":"MONTH 18","visitnum":"7.0","dtc":"2025-09-24","value":"124.8","unit":"mmHg"},{"visit":"MONTH 24","visitnum":"8.0","dtc":"2026-03-09","value":"104.5","unit":"mmHg"},{"visit":"EOT","visitnum":"9.0","dtc":"2026-05-25","value":"124.2","unit":"mmHg"}],"TEMP":[{"visit":"SCREENING","visitnum":"1.0","dtc":"2024-01-28","value":"36.9","unit":"C"},{"visit":"BASELINE","visitnum":"2.0","dtc":"2024-03-17T07:45","value":"37.0","unit":"C"},{"visit":"BASELINE","visitnum":"2.0","dtc":"2024-03-17T09:00","value":"38.0","unit":"C"},{"visit":"WEEK 4","visitnum":"3.0","dtc":"2024-04-16","value":"36.9","unit":"C"},{"visit":"WEEK 12","visitnum":"4.0","dtc":"2024-06-09","value":"36.7","unit":"C"},{"visit":"MONTH 6","visitnum":"5.0","dtc":"2024-09-29","value":"37.0","unit":"C"},{"visit":"MONTH 12","visitnum":"6.0","dtc":"2025-03-26","value":"36.8","unit":"C"},{"visit":"MONTH 18","visitnum":"7.0","dtc":"2025-09-24","value":"37.2","unit":"C"},{"visit":"MONTH 24","visitnum":"8.0","dtc":"2026-03-09","value":"37.0","unit":"C"},{"visit":"EOT","visitnum":"9.0","dtc":"2026-05-25","value":"36.6","unit":"C"}],"WEIGHT":[{"visit":"SCREENING","visitnum":"1.0","dtc":"2024-01-28","value":"69.4","unit":"kg"},{"visit":"BASELINE","visitnum":"2.0","dtc":"2024-03-17","value":"68.8","unit":"kg"},{"visit":"WEEK 4","visitnum":"3.0","dtc":"2024-04-16","value":"68.7","unit":"kg"},{"visit":"WEEK 12","visitnum":"4.0","dtc":"2024-06-09","value":"71.6","unit":"kg"},{"visit":"MONTH 6","visitnum":"5.0","dtc":"2024-09-29","value":"73.2","unit":"kg"},{"visit":"MONTH 12","visitnum":"6.0","dtc":"2025-03-26","value":"74.0","unit":"kg"},{"visit":"MONTH 18","visitnum":"7.0","dtc":"2025-09-24","value":"74.5","unit":"kg"},{"visit":"MONTH 24","visitnum":"8.0","dtc":"2026-03-09","value":"74.3","unit":"kg"},{"visit":"EOT","visitnum":"9.0","dtc":"2026-05-25","value":"74.7","unit":"kg"}]},"results":[{"seq":"1","testcd":"BMI","test":"BMI","cat":null,"orres":null,"orresu":null,"stresc":"34.1","stresn":"34.1","stresu":"kg/m2","stnrlo":null,"stnrhi":null,"nrind":null,"pos":null,"loc":null,"dtc":"2024-01-28","dy":"-49","visit":"SCREENING","visitnum":"1.0","epoch":"SCREENING"},{"seq":"2","testcd":"DIABP","test":"Diastolic Blood Pressure","cat":null,"orres":"69.6","orresu":"mmHg","stresc":"69.6","stresn":"69.6","stresu":"mmHg","stnrlo":null,"stnrhi":null,"nrind":null,"pos":null,"loc":null,"dtc":"2024-01-28","dy":"-49","visit":"SCREENING","visitnum":"1.0","epoch":"SCREENING"},{"seq":"3","testcd":"HEIGHT","test":"Height","cat":null,"orres":"142.7","orresu":"cm","stresc":"142.7","stresn":"142.7","stresu":"cm","stnrlo":null,"stnrhi":null,"nrind":null,"pos":null,"loc":null,"dtc":"2024-01-28","dy":"-49","visit":"SCREENING","visitnum":"1.0","epoch":"SCREENING"},{"seq":"4","testcd":"PULSE","test":"Pulse Rate","cat":null,"orres":"106.3","orresu":"beats/min","stresc":"106.3","stresn":"106.3","stresu":"beats/min","stnrlo":null,"stnrhi":null,"nrind":null,"pos":null,"loc":null,"dtc":"2024-01-28","dy":"-49","visit":"SCREENING","visitnum":"1.0","epoch":"SCREENING"},{"seq":"5","testcd":"RESP","test":"Respiratory Rate","cat":null,"orres":"18.7","orresu":"breaths/min","stresc":"18.7","stresn":"18.7","stresu":"breaths/min","stnrlo":null,"stnrhi":null,"nrind":null,"pos":null,"loc":null,"dtc":"2024-01-28","dy":"-49","visit":"SCREENING","visitnum":"1.0","epoch":"SCREENING"},{"seq":"6","testcd":"SYSBP","test":"Systolic Blood Pressure","cat":null,"orres":"125.3","orresu":"mmHg","stresc":"125.3","stresn":"125.3","stresu":"mmHg","stnrlo":null,"stnrhi":null,"nrind":null,"pos":null,"loc":null,"dtc":"2024-01-28","dy":"-49","visit":"SCREENING","visitnum":"1.0","epoch":"SCREENING"},{"seq":"7","testcd":"TEMP","test":"Temperature","cat":null,"orres":"36.9","orresu":"C","stresc":"36.9","stresn":"36.9","stresu":"C","stnrlo":null,"stnrhi":null,"nrind":null,"pos":null,"loc":null,"dtc":"2024-01-28","dy":"-49","visit":"SCREENING","visitnum":"1.0","epoch":"SCREENING"},{"seq":"8","testcd":"WEIGHT","test":"Weight","cat":null,"orres":"69.4","orresu":"kg","stresc":"69.4","stresn":"69.4","stresu":"kg","stnrlo":null,"stnrhi":null,"nrind":null,"pos":null,"loc":null,"dtc":"2024-01-28","dy":"-49","visit":"SCREENING","visitnum":"1.0","epoch":"SCREENING"},{"seq":"9","testcd":"BMI","test":"BMI","cat":null,"orres":null,"orresu":null,"stresc":"33.5","stresn":"33.5","stresu":"kg/m2","stnrlo":null,"stnrhi":null,"nrind":null,"pos":null,"loc":null,"dtc":"2024-03-17","dy":"1","visit":"BASELINE","visitnum":"2.0","epoch":"TREATMENT"},{"seq":"12","testcd":"HEIGHT","test":"Height","cat":null,"orres":"143.3","orresu":"cm","stresc":"143.3","stresn":"143.3","stresu":"cm","stnrlo":null,"stnrhi":null,"nrind":null,"pos":null,"loc":null,"dtc":"2024-03-17","dy":"1","visit":"BASELINE","visitnum":"2.0","epoch":"TREATMENT"},{"seq":"21","testcd":"WEIGHT","test":"Weight","cat":null,"orres":"68.8","orresu":"kg","stresc":"68.8","stresn":"68.8","stresu":"kg","stnrlo":null,"stnrhi":null,"nrind":null,"pos":null,"loc":null,"dtc":"2024-03-17","dy":"1","visit":"BASELINE","visitnum":"2.0","epoch":"TREATMENT"},{"seq":"10","testcd":"DIABP","test":"Diastolic Blood Pressure","cat":null,"orres":"69.7","orresu":"mmHg","stresc":"69.7","stresn":"69.7","stresu":"mmHg","stnrlo":null,"stnrhi":null,"nrind":null,"pos":null,"loc":null,"dtc":"2024-03-17T07:45","dy":"1","visit":"BASELINE","visitnum":"2.0","epoch":"TREATMENT"},{"seq":"13","testcd":"PULSE","test":"Pulse Rate","cat":null,"orres":"104.9","orresu":"beats/min","stresc":"104.9","stresn":"104.9","stresu":"beats/min","stnrlo":null,"stnrhi":null,"nrind":null,"pos":null,"loc":null,"dtc":"2024-03-17T07:45","dy":"1","visit":"BASELINE","visitnum":"2.0","epoch":"TREATMENT"},{"seq":"15","testcd":"RESP","test":"Respiratory Rate","cat":null,"orres":"19.5","orresu":"breaths/min","stresc":"19.5","stresn":"19.5","stresu":"breaths/min","stnrlo":null,"stnrhi":null,"nrind":null,"pos":null,"loc":null,"dtc":"2024-03-17T07:45","dy":"1","visit":"BASELINE","visitnum":"2.0","epoch":"TREATMENT"},{"seq":"17","testcd":"SYSBP","test":"Systolic Blood Pressure","cat":null,"orres":"127.4","orresu":"mmHg","stresc":"127.4","stresn":"127.4","stresu":"mmHg","stnrlo":null,"stnrhi":null,"nrind":null,"pos":null,"loc":null,"dtc":"2024-03-17T07:45","dy":"1","visit":"BASELINE","visitnum":"2.0","epoch":"TREATMENT"},{"seq":"19","testcd":"TEMP","test":"Temperature","cat":null,"orres":"37.0","orresu":"C","stresc":"37.0","stresn":"37.0","stresu":"C","stnrlo":null,"stnrhi":null,"nrind":null,"pos":null,"loc":null,"dtc":"2024-03-17T07:45","dy":"1","visit":"BASELINE","visitnum":"2.0","epoch":"TREATMENT"},{"seq":"11","testcd":"DIABP","test":"Diastolic Blood Pressure","cat":null,"orres":"70.6","orresu":"mmHg","stresc":"70.6","stresn":"70.6","stresu":"mmHg","stnrlo":null,"stnrhi":null,"nrind":null,"pos":null,"loc":null,"dtc":"2024-03-17T09:00","dy":"1","visit":"BASELINE","visitnum":"2.0","epoch":"TREATMENT"},{"seq":"14","testcd":"PULSE","test":"Pulse Rate","cat":null,"orres":"105.4","orresu":"beats/min","stresc":"105.4","stresn":"105.4","stresu":"beats/min","stnrlo":null,"stnrhi":null,"nrind":null,"pos":null,"loc":null,"dtc":"2024-03-17T09:00","dy":"1","visit":"BASELINE","visitnum":"2.0","epoch":"TREATMENT"},{"seq":"16","testcd":"RESP","test":"Respiratory Rate","cat":null,"orres":"19.7","orresu":"breaths/min","stresc":"19.7","stresn":"19.7","stresu":"breaths/min","stnrlo":null,"stnrhi":null,"nrind":null,"pos":null,"loc":null,"dtc":"2024-03-17T09:00","dy":"1","visit":"BASELINE","visitnum":"2.0","epoch":"TREATMENT"},{"seq":"18","testcd":"SYSBP","test":"Systolic Blood Pressure","cat":null,"orres":"127.6","orresu":"mmHg","stresc":"127.6","stresn":"127.6","stresu":"mmHg","stnrlo":null,"stnrhi":null,"nrind":null,"pos":null,"loc":null,"dtc":"2024-03-17T09:00","dy":"1","visit":"BASELINE","visitnum":"2.0","epoch":"TREATMENT"},{"seq":"20","testcd":"TEMP","test":"Temperature","cat":null,"orres":"38.0","orresu":"C","stresc":"38.0","stresn":"38.0","stresu":"C","stnrlo":null,"stnrhi":null,"nrind":null,"pos":null,"loc":null,"dtc":"2024-03-17T09:00","dy":"1","visit":"BASELINE","visitnum":"2.0","epoch":"TREATMENT"},{"seq":"22","testcd":"BMI","test":"BMI","cat":null,"orres":null,"orresu":null,"stresc":"33.7","stresn":"33.7","stresu":"kg/m2","stnrlo":null,"stnrhi":null,"nrind":null,"pos":null,"loc":null,"dtc":"2024-04-16","dy":"31","visit":"WEEK 4","visitnum":"3.0","epoch":"TREATMENT"},{"seq":"23","testcd":"DIABP","test":"Diastolic Blood Pressure","cat":null,"orres":"67.2","orresu":"mmHg","stresc":"67.2","stresn":"67.2","stresu":"mmHg","stnrlo":null,"stnrhi":null,"nrind":null,"pos":null,"loc":null,"dtc":"2024-04-16","dy":"31","visit":"WEEK 4","visitnum":"3.0","epoch":"TREATMENT"},{"seq":"24","testcd":"HEIGHT","test":"Height","cat":null,"orres":"142.8","orresu":"cm","stresc":"142.8","stresn":"142.8","stresu":"cm","stnrlo":null,"stnrhi":null,"nrind":null,"pos":null,"loc":null,"dtc":"2024-04-16","dy":"31","visit":"WEEK 4","visitnum":"3.0","epoch":"TREATMENT"},{"seq":"25","testcd":"PULSE","test":"Pulse Rate","cat":null,"orres":"102.1","orresu":"beats/min","stresc":"102.1","stresn":"102.1","stresu":"beats/min","stnrlo":null,"stnrhi":null,"nrind":null,"pos":null,"loc":null,"dtc":"2024-04-16","dy":"31","visit":"WEEK 4","visitnum":"3.0","epoch":"TREATMENT"},{"seq":"26","testcd":"RESP","test":"Respiratory Rate","cat":null,"orres":"21.3","orresu":"breaths/min","stresc":"21.3","stresn":"21.3","stresu":"breaths/min","stnrlo":null,"stnrhi":null,"nrind":null,"pos":null,"loc":null,"dtc":"2024-04-16","dy":"31","visit":"WEEK 4","visitnum":"3.0","epoch":"TREATMENT"},{"seq":"27","testcd":"SYSBP","test":"Systolic Blood Pressure","cat":null,"orres":"127.8","orresu":"mmHg","stresc":"127.8","stresn":"127.8","stresu":"mmHg","stnrlo":null,"stnrhi":null,"nrind":null,"pos":null,"loc":null,"dtc":"2024-04-16","dy":"31","visit":"WEEK 4","visitnum":"3.0","epoch":"TREATMENT"},{"seq":"28","testcd":"TEMP","test":"Temperature","cat":null,"orres":"36.9","orresu":"C","stresc":"36.9","stresn":"36.9","stresu":"C","stnrlo":null,"stnrhi":null,"nrind":null,"pos":null,"loc":null,"dtc":"2024-04-16","dy":"31","visit":"WEEK 4","visitnum":"3.0","epoch":"TREATMENT"},{"seq":"29","testcd":"WEIGHT","test":"Weight","cat":null,"orres":"68.7","orresu":"kg","stresc":"68.7","stresn":"68.7","stresu":"kg","stnrlo":null,"stnrhi":null,"nrind":null,"pos":null,"loc":null,"dtc":"2024-04-16","dy":"31","visit":"WEEK 4","visitnum":"3.0","epoch":"TREATMENT"},{"seq":"30","testcd":"BMI","test":"BMI","cat":null,"orres":null,"orresu":null,"stresc":"34.8","stresn":"34.8","stresu":"kg/m2","stnrlo":null,"stnrhi":null,"nrind":null,"pos":null,"loc":null,"dtc":"2024-06-09","dy":"85","visit":"WEEK 12","visitnum":"4.0","epoch":"TREATMENT"},{"seq":"31","testcd":"DIABP","test":"Diastolic Blood Pressure","cat":null,"orres":"67.4","orresu":"mmHg","stresc":"67.4","stresn":"67.4","stresu":"mmHg","stnrlo":null,"stnrhi":null,"nrind":null,"pos":null,"loc":null,"dtc":"2024-06-09","dy":"85","visit":"WEEK 12","visitnum":"4.0","epoch":"TREATMENT"},{"seq":"32","testcd":"HEIGHT","test":"Height","cat":null,"orres":"143.4","orresu":"cm","stresc":"143.4","stresn":"143.4","stresu":"cm","stnrlo":null,"stnrhi":null,"nrind":null,"pos":null,"loc":null,"dtc":"2024-06-09","dy":"85","visit":"WEEK 12","visitnum":"4.0","epoch":"TREATMENT"},{"seq":"33","testcd":"PULSE","test":"Pulse Rate","cat":null,"orres":"105.0","orresu":"beats/min","stresc":"105.0","stresn":"105.0","stresu":"beats/min","stnrlo":null,"stnrhi":null,"nrind":null,"pos":null,"loc":null,"dtc":"2024-06-09","dy":"85","visit":"WEEK 12","visitnum":"4.0","epoch":"TREATMENT"},{"seq":"34","testcd":"RESP","test":"Respiratory Rate","cat":null,"orres":"20.5","orresu":"breaths/min","stresc":"20.5","stresn":"20.5","stresu":"breaths/min","stnrlo":null,"stnrhi":null,"nrind":null,"pos":null,"loc":null,"dtc":"2024-06-09","dy":"85","visit":"WEEK 12","visitnum":"4.0","epoch":"TREATMENT"},{"seq":"35","testcd":"SYSBP","test":"Systolic Blood Pressure","cat":null,"orres":"127.3","orresu":"mmHg","stresc":"127.3","stresn":"127.3","stresu":"mmHg","stnrlo":null,"stnrhi":null,"nrind":null,"pos":null,"loc":null,"dtc":"2024-06-09","dy":"85","visit":"WEEK 12","visitnum":"4.0","epoch":"TREATMENT"},{"seq":"36","testcd":"TEMP","test":"Temperature","cat":null,"orres":"36.7","orresu":"C","stresc":"36.7","stresn":"36.7","stresu":"C","stnrlo":null,"stnrhi":null,"nrind":null,"pos":null,"loc":null,"dtc":"2024-06-09","dy":"85","visit":"WEEK 12","visitnum":"4.0","epoch":"TREATMENT"},{"seq":"37","testcd":"WEIGHT","test":"Weight","cat":null,"orres":"71.6","orresu":"kg","stresc":"71.6","stresn":"71.6","stresu":"kg","stnrlo":null,"stnrhi":null,"nrind":null,"pos":null,"loc":null,"dtc":"2024-06-09","dy":"85","visit":"WEEK 12","visitnum":"4.0","epoch":"TREATMENT"},{"seq":"38","testcd":"BMI","test":"BMI","cat":null,"orres":null,"orresu":null,"stresc":"35.6","stresn":"35.6","stresu":"kg/m2","stnrlo":null,"stnrhi":null,"nrind":null,"pos":null,"loc":null,"dtc":"2024-09-29","dy":"197","visit":"MONTH 6","visitnum":"5.0","epoch":"TREATMENT"},{"seq":"39","testcd":"DIABP","test":"Diastolic Blood Pressure","cat":null,"orres":"68.6","orresu":"mmHg","stresc":"68.6","stresn":"68.6","stresu":"mmHg","stnrlo":null,"stnrhi":null,"nrind":null,"pos":null,"loc":null,"dtc":"2024-09-29","dy":"197","visit":"MONTH 6","visitnum":"5.0","epoch":"TREATMENT"},{"seq":"40","testcd":"HEIGHT","test":"Height","cat":null,"orres":"143.3","orresu":"cm","stresc":"143.3","stresn":"143.3","stresu":"cm","stnrlo":null,"stnrhi":null,"nrind":null,"pos":null,"loc":null,"dtc":"2024-09-29","dy":"197","visit":"MONTH 6","visitnum":"5.0","epoch":"TREATMENT"},{"seq":"41","testcd":"PULSE","test":"Pulse Rate","cat":null,"orres":"107.9","orresu":"beats/min","stresc":"107.9","stresn":"107.9","stresu":"beats/min","stnrlo":null,"stnrhi":null,"nrind":null,"pos":null,"loc":null,"dtc":"2024-09-29","dy":"197","visit":"MONTH 6","visitnum":"5.0","epoch":"TREATMENT"},{"seq":"42","testcd":"RESP","test":"Respiratory Rate","cat":null,"orres":"17.7","orresu":"breaths/min","stresc":"17.7","stresn":"17.7","stresu":"breaths/min","stnrlo":null,"stnrhi":null,"nrind":null,"pos":null,"loc":null,"dtc":"2024-09-29","dy":"197","visit":"MONTH 6","visitnum":"5.0","epoch":"TREATMENT"},{"seq":"43","testcd":"SYSBP","test":"Systolic Blood Pressure","cat":null,"orres":"128.6","orresu":"mmHg","stresc":"128.6","stresn":"128.6","stresu":"mmHg","stnrlo":null,"stnrhi":null,"nrind":null,"pos":null,"loc":null,"dtc":"2024-09-29","dy":"197","visit":"MONTH 6","visitnum":"5.0","epoch":"TREATMENT"},{"seq":"44","testcd":"TEMP","test":"Temperature","cat":null,"orres":"37.0","orresu":"C","stresc":"37.0","stresn":"37.0","stresu":"C","stnrlo":null,"stnrhi":null,"nrind":null,"pos":null,"loc":null,"dtc":"2024-09-29","dy":"197","visit":"MONTH 6","visitnum":"5.0","epoch":"TREATMENT"},{"seq":"45","testcd":"WEIGHT","test":"Weight","cat":null,"orres":"73.2","orresu":"kg","stresc":"73.2","stresn":"73.2","stresu":"kg","stnrlo":null,"stnrhi":null,"nrind":null,"pos":null,"loc":null,"dtc":"2024-09-29","dy":"197","visit":"MONTH 6","visitnum":"5.0","epoch":"TREATMENT"},{"seq":"46","testcd":"BMI","test":"BMI","cat":null,"orres":null,"orresu":null,"stresc":"36.1","stresn":"36.1","stresu":"kg/m2","stnrlo":null,"stnrhi":null,"nrind":null,"pos":null,"loc":null,"dtc":"2025-03-26","dy":"375","visit":"MONTH 12","visitnum":"6.0","epoch":"TREATMENT"},{"seq":"47","testcd":"DIABP","test":"Diastolic Blood Pressure","cat":null,"orres":"69.4","orresu":"mmHg","stresc":"69.4","stresn":"69.4","stresu":"mmHg","stnrlo":null,"stnrhi":null,"nrind":null,"pos":null,"loc":null,"dtc":"2025-03-26","dy":"375","visit":"MONTH 12","visitnum":"6.0","epoch":"TREATMENT"},{"seq":"48","testcd":"HEIGHT","test":"Height","cat":null,"orres":"143.1","orresu":"cm","stresc":"143.1","stresn":"143.1","stresu":"cm","stnrlo":null,"stnrhi":null,"nrind":null,"pos":null,"loc":null,"dtc":"2025-03-26","dy":"375","visit":"MONTH 12","visitnum":"6.0","epoch":"TREATMENT"},{"seq":"49","testcd":"PULSE","test":"Pulse Rate","cat":null,"orres":"105.4","orresu":"beats/min","stresc":"105.4","stresn":"105.4","stresu":"beats/min","stnrlo":null,"stnrhi":null,"nrind":null,"pos":null,"loc":null,"dtc":"2025-03-26","dy":"375","visit":"MONTH 12","visitnum":"6.0","epoch":"TREATMENT"},{"seq":"50","testcd":"RESP","test":"Respiratory Rate","cat":null,"orres":"19.3","orresu":"breaths/min","stresc":"19.3","stresn":"19.3","stresu":"breaths/min","stnrlo":null,"stnrhi":null,"nrind":null,"pos":null,"loc":null,"dtc":"2025-03-26","dy":"375","visit":"MONTH 12","visitnum":"6.0","epoch":"TREATMENT"},{"seq":"51","testcd":"SYSBP","test":"Systolic Blood Pressure","cat":null,"orres":"128.2","orresu":"mmHg","stresc":"128.2","stresn":"128.2","stresu":"mmHg","stnrlo":null,"stnrhi":null,"nrind":null,"pos":null,"loc":null,"dtc":"2025-03-26","dy":"375","visit":"MONTH 12","visitnum":"6.0","epoch":"TREATMENT"},{"seq":"52","testcd":"TEMP","test":"Temperature","cat":null,"orres":"36.8","orresu":"C","stresc":"36.8","stresn":"36.8","stresu":"C","stnrlo":null,"stnrhi":null,"nrind":null,"pos":null,"loc":null,"dtc":"2025-03-26","dy":"375","visit":"MONTH 12","visitnum":"6.0","epoch":"TREATMENT"},{"seq":"53","testcd":"WEIGHT","test":"Weight","cat":null,"orres":"74.0","orresu":"kg","stresc":"74.0","stresn":"74.0","stresu":"kg","stnrlo":null,"stnrhi":null,"nrind":null,"pos":null,"loc":null,"dtc":"2025-03-26","dy":"375","visit":"MONTH 12","visitnum":"6.0","epoch":"TREATMENT"},{"seq":"54","testcd":"BMI","test":"BMI","cat":null,"orres":null,"orresu":null,"stresc":"36.5","stresn":"36.5","stresu":"kg/m2","stnrlo":null,"stnrhi":null,"nrind":null,"pos":null,"loc":null,"dtc":"2025-09-24","dy":"557","visit":"MONTH 18","visitnum":"7.0","epoch":"TREATMENT"},{"seq":"55","testcd":"DIABP","test":"Diastolic Blood Pressure","cat":null,"orres":"68.3","orresu":"mmHg","stresc":"68.3","stresn":"68.3","stresu":"mmHg","stnrlo":null,"stnrhi":null,"nrind":null,"pos":null,"loc":null,"dtc":"2025-09-24","dy":"557","visit":"MONTH 18","visitnum":"7.0","epoch":"TREATMENT"},{"seq":"56","testcd":"HEIGHT","test":"Height","cat":null,"orres":"142.9","orresu":"cm","stresc":"142.9","stresn":"142.9","stresu":"cm","stnrlo":null,"stnrhi":null,"nrind":null,"pos":null,"loc":null,"dtc":"2025-09-24","dy":"557","visit":"MONTH 18","visitnum":"7.0","epoch":"TREATMENT"},{"seq":"57","testcd":"PULSE","test":"Pulse Rate","cat":null,"orres":"104.7","orresu":"beats/min","stresc":"104.7","stresn":"104.7","stresu":"beats/min","stnrlo":null,"stnrhi":null,"nrind":null,"pos":null,"loc":null,"dtc":"2025-09-24","dy":"557","visit":"MONTH 18","visitnum":"7.0","epoch":"TREATMENT"},{"seq":"58","testcd":"RESP","test":"Respiratory Rate","cat":null,"orres":"19.2","orresu":"breaths/min","stresc":"19.2","stresn":"19.2","stresu":"breaths/min","stnrlo":null,"stnrhi":null,"nrind":null,"pos":null,"loc":null,"dtc":"2025-09-24","dy":"557","visit":"MONTH 18","visitnum":"7.0","epoch":"TREATMENT"},{"seq":"59","testcd":"SYSBP","test":"Systolic Blood Pressure","cat":null,"orres":"124.8","orresu":"mmHg","stresc":"124.8","stresn":"124.8","stresu":"mmHg","stnrlo":null,"stnrhi":null,"nrind":null,"pos":null,"loc":null,"dtc":"2025-09-24","dy":"557","visit":"MONTH 18","visitnum":"7.0","epoch":"TREATMENT"},{"seq":"60","testcd":"TEMP","test":"Temperature","cat":null,"orres":"37.2","orresu":"C","stresc":"37.2","stresn":"37.2","stresu":"C","stnrlo":null,"stnrhi":null,"nrind":null,"pos":null,"loc":null,"dtc":"2025-09-24","dy":"557","visit":"MONTH 18","visitnum":"7.0","epoch":"TREATMENT"},{"seq":"61","testcd":"WEIGHT","test":"Weight","cat":null,"orres":"74.5","orresu":"kg","stresc":"74.5","stresn":"74.5","stresu":"kg","stnrlo":null,"stnrhi":null,"nrind":null,"pos":null,"loc":null,"dtc":"2025-09-24","dy":"557","visit":"MONTH 18","visitnum":"7.0","epoch":"TREATMENT"},{"seq":"62","testcd":"BMI","test":"BMI","cat":null,"orres":null,"orresu":null,"stresc":"36.4","stresn":"36.4","stresu":"kg/m2","stnrlo":null,"stnrhi":null,"nrind":null,"pos":null,"loc":null,"dtc":"2026-03-09","dy":"723","visit":"MONTH 24","visitnum":"8.0","epoch":"TREATMENT"},{"seq":"63","testcd":"DIABP","test":"Diastolic Blood Pressure","cat":null,"orres":"55.7","orresu":"mmHg","stresc":"55.7","stresn":"55.7","stresu":"mmHg","stnrlo":null,"stnrhi":null,"nrind":null,"pos":null,"loc":null,"dtc":"2026-03-09","dy":"723","visit":"MONTH 24","visitnum":"8.0","epoch":"TREATMENT"},{"seq":"64","testcd":"HEIGHT","test":"Height","cat":null,"orres":"142.9","orresu":"cm","stresc":"142.9","stresn":"142.9","stresu":"cm","stnrlo":null,"stnrhi":null,"nrind":null,"pos":null,"loc":null,"dtc":"2026-03-09","dy":"723","visit":"MONTH 24","visitnum":"8.0","epoch":"TREATMENT"},{"seq":"65","testcd":"PULSE","test":"Pulse Rate","cat":null,"orres":"105.9","orresu":"beats/min","stresc":"105.9","stresn":"105.9","stresu":"beats/min","stnrlo":null,"stnrhi":null,"nrind":null,"pos":null,"loc":null,"dtc":"2026-03-09","dy":"723","visit":"MONTH 24","visitnum":"8.0","epoch":"TREATMENT"},{"seq":"66","testcd":"RESP","test":"Respiratory Rate","cat":null,"orres":"16.8","orresu":"breaths/min","stresc":"16.8","stresn":"16.8","stresu":"breaths/min","stnrlo":null,"stnrhi":null,"nrind":null,"pos":null,"loc":null,"dtc":"2026-03-09","dy":"723","visit":"MONTH 24","visitnum":"8.0","epoch":"TREATMENT"},{"seq":"67","testcd":"SYSBP","test":"Systolic Blood Pressure","cat":null,"orres":"104.5","orresu":"mmHg","stresc":"104.5","stresn":"104.5","stresu":"mmHg","stnrlo":null,"stnrhi":null,"nrind":null,"pos":null,"loc":null,"dtc":"2026-03-09","dy":"723","visit":"MONTH 24","visitnum":"8.0","epoch":"TREATMENT"},{"seq":"68","testcd":"TEMP","test":"Temperature","cat":null,"orres":"37.0","orresu":"C","stresc":"37.0","stresn":"37.0","stresu":"C","stnrlo":null,"stnrhi":null,"nrind":null,"pos":null,"loc":null,"dtc":"2026-03-09","dy":"723","visit":"MONTH 24","visitnum":"8.0","epoch":"TREATMENT"},{"seq":"69","testcd":"WEIGHT","test":"Weight","cat":null,"orres":"74.3","orresu":"kg","stresc":"74.3","stresn":"74.3","stresu":"kg","stnrlo":null,"stnrhi":null,"nrind":null,"pos":null,"loc":null,"dtc":"2026-03-09","dy":"723","visit":"MONTH 24","visitnum":"8.0","epoch":"TREATMENT"},{"seq":"70","testcd":"BMI","test":"BMI","cat":null,"orres":null,"orresu":null,"stresc":"36.4","stresn":"36.4","stresu":"kg/m2","stnrlo":null,"stnrhi":null,"nrind":null,"pos":null,"loc":null,"dtc":"2026-05-25","dy":"800","visit":"EOT","visitnum":"9.0","epoch":"TREATMENT"},{"seq":"71","testcd":"DIABP","test":"Diastolic Blood Pressure","cat":null,"orres":"67.8","orresu":"mmHg","stresc":"67.8","stresn":"67.8","stresu":"mmHg","stnrlo":null,"stnrhi":null,"nrind":null,"pos":null,"loc":null,"dtc":"2026-05-25","dy":"800","visit":"EOT","visitnum":"9.0","epoch":"TREATMENT"},{"seq":"72","testcd":"HEIGHT","test":"Height","cat":null,"orres":"143.2","orresu":"cm","stresc":"143.2","stresn":"143.2","stresu":"cm","stnrlo":null,"stnrhi":null,"nrind":null,"pos":null,"loc":null,"dtc":"2026-05-25","dy":"800","visit":"EOT","visitnum":"9.0","epoch":"TREATMENT"},{"seq":"73","testcd":"PULSE","test":"Pulse Rate","cat":null,"orres":"106.1","orresu":"beats/min","stresc":"106.1","stresn":"106.1","stresu":"beats/min","stnrlo":null,"stnrhi":null,"nrind":null,"pos":null,"loc":null,"dtc":"2026-05-25","dy":"800","visit":"EOT","visitnum":"9.0","epoch":"TREATMENT"},{"seq":"74","testcd":"RESP","test":"Respiratory Rate","cat":null,"orres":"17.7","orresu":"breaths/min","stresc":"17.7","stresn":"17.7","stresu":"breaths/min","stnrlo":null,"stnrhi":null,"nrind":null,"pos":null,"loc":null,"dtc":"2026-05-25","dy":"800","visit":"EOT","visitnum":"9.0","epoch":"TREATMENT"},{"seq":"75","testcd":"SYSBP","test":"Systolic Blood Pressure","cat":null,"orres":"124.2","orresu":"mmHg","stresc":"124.2","stresn":"124.2","stresu":"mmHg","stnrlo":null,"stnrhi":null,"nrind":null,"pos":null,"loc":null,"dtc":"2026-05-25","dy":"800","visit":"EOT","visitnum":"9.0","epoch":"TREATMENT"},{"seq":"76","testcd":"TEMP","test":"Temperature","cat":null,"orres":"36.6","orresu":"C","stresc":"36.6","stresn":"36.6","stresu":"C","stnrlo":null,"stnrhi":null,"nrind":null,"pos":null,"loc":null,"dtc":"2026-05-25","dy":"800","visit":"EOT","visitnum":"9.0","epoch":"TREATMENT"},{"seq":"77","testcd":"WEIGHT","test":"Weight","cat":null,"orres":"74.7","orresu":"kg","stresc":"74.7","stresn":"74.7","stresu":"kg","stnrlo":null,"stnrhi":null,"nrind":null,"pos":null,"loc":null,"dtc":"2026-05-25","dy":"800","visit":"EOT","visitnum":"9.0","epoch":"TREATMENT"}]},"section_10_questionnaires_and_scores":{"questionnaires":[],"findings_about":[]},"section_11_protocol_deviations":{"deviations":[{"seq":"1","term":"Missed PLACEBO dose on 2024-03-26","decod":"MISSED DOSE","cat":"MINOR","scat":"DOSING","start_dtc":"2024-03-26","end_dtc":null,"visit":null},{"seq":"2","term":"Missed PLACEBO dose on 2024-04-24","decod":"MISSED DOSE","cat":"MINOR","scat":"DOSING","start_dtc":"2024-04-24","end_dtc":null,"visit":null},{"seq":"3","term":"Missed PLACEBO dose on 2024-04-27","decod":"MISSED DOSE","cat":"MINOR","scat":"DOSING","start_dtc":"2024-04-27","end_dtc":null,"visit":null},{"seq":"4","term":"Missed PLACEBO dose on 2024-05-25","decod":"MISSED DOSE","cat":"MINOR","scat":"DOSING","start_dtc":"2024-05-25","end_dtc":null,"visit":null},{"seq":"5","term":"Missed PLACEBO dose on 2024-06-02","decod":"MISSED DOSE","cat":"MINOR","scat":"DOSING","start_dtc":"2024-06-02","end_dtc":null,"visit":null},{"seq":"6","term":"Missed PLACEBO dose on 2024-06-08","decod":"MISSED DOSE","cat":"MINOR","scat":"DOSING","start_dtc":"2024-06-08","end_dtc":null,"visit":null},{"seq":"7","term":"Missed PLACEBO dose on 2024-06-11","decod":"MISSED DOSE","cat":"MINOR","scat":"DOSING","start_dtc":"2024-06-11","end_dtc":null,"visit":null},{"seq":"8","term":"Missed PLACEBO dose on 2024-07-07","decod":"MISSED DOSE","cat":"MINOR","scat":"DOSING","start_dtc":"2024-07-07","end_dtc":null,"visit":null},{"seq":"9","term":"Missed PLACEBO dose on 2024-07-10","decod":"MISSED DOSE","cat":"MINOR","scat":"DOSING","start_dtc":"2024-07-10","end_dtc":null,"visit":null},{"seq":"10","term":"Missed PLACEBO dose on 2024-07-28","decod":"MISSED DOSE","cat":"MINOR","scat":"DOSING","start_dtc":"2024-07-28","end_dtc":null,"visit":null},{"seq":"11","term":"Missed PLACEBO dose on 2024-08-21","decod":"MISSED DOSE","cat":"MINOR","scat":"DOSING","start_dtc":"2024-08-21","end_dtc":null,"visit":null},{"seq":"12","term":"Missed PLACEBO dose on 2024-08-30","decod":"MISSED DOSE","cat":"MINOR","scat":"DOSING","start_dtc":"2024-08-30","end_dtc":null,"visit":null},{"seq":"13","term":"Missed PLACEBO dose on 2024-09-03","decod":"MISSED DOSE","cat":"MINOR","scat":"DOSING","start_dtc":"2024-09-03","end_dtc":null,"visit":null},{"seq":"14","term":"Missed PLACEBO dose on 2024-09-13","decod":"MISSED DOSE","cat":"MINOR","scat":"DOSING","start_dtc":"2024-09-13","end_dtc":null,"visit":null},{"seq":"15","term":"Missed PLACEBO dose on 2024-10-08","decod":"MISSED DOSE","cat":"MINOR","scat":"DOSING","start_dtc":"2024-10-08","end_dtc":null,"visit":null},{"seq":"16","term":"Missed PLACEBO dose on 2024-10-09","decod":"MISSED DOSE","cat":"MINOR","scat":"DOSING","start_dtc":"2024-10-09","end_dtc":null,"visit":null},{"seq":"17","term":"Missed PLACEBO dose on 2024-10-15","decod":"MISSED DOSE","cat":"MINOR","scat":"DOSING","start_dtc":"2024-10-15","end_dtc":null,"visit":null},{"seq":"18","term":"Missed PLACEBO dose on 2024-10-19","decod":"MISSED DOSE","cat":"MINOR","scat":"DOSING","start_dtc":"2024-10-19","end_dtc":null,"visit":null},{"seq":"19","term":"Missed PLACEBO dose on 2024-10-30","decod":"MISSED DOSE","cat":"MINOR","scat":"DOSING","start_dtc":"2024-10-30","end_dtc":null,"visit":null},{"seq":"20","term":"Missed PLACEBO dose on 2024-12-11","decod":"MISSED DOSE","cat":"MINOR","scat":"DOSING","start_dtc":"2024-12-11","end_dtc":null,"visit":null},{"seq":"21","term":"Missed PLACEBO dose on 2024-12-20","decod":"MISSED DOSE","cat":"MINOR","scat":"DOSING","start_dtc":"2024-12-20","end_dtc":null,"visit":null},{"seq":"22","term":"Missed PLACEBO dose on 2024-12-22","decod":"MISSED DOSE","cat":"MINOR","scat":"DOSING","start_dtc":"2024-12-22","end_dtc":null,"visit":null},{"seq":"23","term":"Missed PLACEBO dose on 2024-12-28","decod":"MISSED DOSE","cat":"MINOR","scat":"DOSING","start_dtc":"2024-12-28","end_dtc":null,"visit":null},{"seq":"24","term":"Missed PLACEBO dose on 2024-12-29","decod":"MISSED DOSE","cat":"MINOR","scat":"DOSING","start_dtc":"2024-12-29","end_dtc":null,"visit":null},{"seq":"25","term":"Missed PLACEBO dose on 2025-01-27","decod":"MISSED DOSE","cat":"MINOR","scat":"DOSING","start_dtc":"2025-01-27","end_dtc":null,"visit":null},{"seq":"26","term":"Missed PLACEBO dose on 2025-01-29","decod":"MISSED DOSE","cat":"MINOR","scat":"DOSING","start_dtc":"2025-01-29","end_dtc":null,"visit":null},{"seq":"27","term":"Missed PLACEBO dose on 2025-02-25","decod":"MISSED DOSE","cat":"MINOR","scat":"DOSING","start_dtc":"2025-02-25","end_dtc":null,"visit":null},{"seq":"28","term":"Missed PLACEBO dose on 2025-03-04","decod":"MISSED DOSE","cat":"MINOR","scat":"DOSING","start_dtc":"2025-03-04","end_dtc":null,"visit":null},{"seq":"29","term":"Missed PLACEBO dose on 2025-03-12","decod":"MISSED DOSE","cat":"MINOR","scat":"DOSING","start_dtc":"2025-03-12","end_dtc":null,"visit":null},{"seq":"30","term":"Missed PLACEBO dose on 2025-03-17","decod":"MISSED DOSE","cat":"MINOR","scat":"DOSING","start_dtc":"2025-03-17","end_dtc":null,"visit":null},{"seq":"31","term":"Visit MONTH 12 occurred 10 days late (Day 375 vs planned Day 365)","decod":"VISIT OCCURRED OUTSIDE VISIT WINDOW","cat":"MINOR","scat":"VISIT WINDOW","start_dtc":"2025-03-26","end_dtc":null,"visit":null},{"seq":"32","term":"Missed PLACEBO dose on 2025-03-27","decod":"MISSED DOSE","cat":"MINOR","scat":"DOSING","start_dtc":"2025-03-27","end_dtc":null,"visit":null},{"seq":"33","term":"Missed PLACEBO dose on 2025-04-04","decod":"MISSED DOSE","cat":"MINOR","scat":"DOSING","start_dtc":"2025-04-04","end_dtc":null,"visit":null},{"seq":"34","term":"Missed PLACEBO dose on 2025-04-09","decod":"MISSED DOSE","cat":"MINOR","scat":"DOSING","start_dtc":"2025-04-09","end_dtc":null,"visit":null},{"seq":"35","term":"Missed PLACEBO dose on 2025-04-21","decod":"MISSED DOSE","cat":"MINOR","scat":"DOSING","start_dtc":"2025-04-21","end_dtc":null,"visit":null},{"seq":"36","term":"Missed PLACEBO dose on 2025-04-25","decod":"MISSED DOSE","cat":"MINOR","scat":"DOSING","start_dtc":"2025-04-25","end_dtc":null,"visit":null},{"seq":"37","term":"Missed PLACEBO dose on 2025-04-26","decod":"MISSED DOSE","cat":"MINOR","scat":"DOSING","start_dtc":"2025-04-26","end_dtc":null,"visit":null},{"seq":"38","term":"Missed PLACEBO dose on 2025-05-08","decod":"MISSED DOSE","cat":"MINOR","scat":"DOSING","start_dtc":"2025-05-08","end_dtc":null,"visit":null},{"seq":"39","term":"Missed PLACEBO dose on 2025-06-18","decod":"MISSED DOSE","cat":"MINOR","scat":"DOSING","start_dtc":"2025-06-18","end_dtc":null,"visit":null},{"seq":"40","term":"Missed PLACEBO dose on 2025-07-07","decod":"MISSED DOSE","cat":"MINOR","scat":"DOSING","start_dtc":"2025-07-07","end_dtc":null,"visit":null},{"seq":"41","term":"Missed PLACEBO dose on 2025-08-19","decod":"MISSED DOSE","cat":"MINOR","scat":"DOSING","start_dtc":"2025-08-19","end_dtc":null,"visit":null},{"seq":"42","term":"Missed PLACEBO dose on 2025-08-31","decod":"MISSED DOSE","cat":"MINOR","scat":"DOSING","start_dtc":"2025-08-31","end_dtc":null,"visit":null},{"seq":"43","term":"Visit MONTH 18 occurred 10 days late (Day 557 vs planned Day 547)","decod":"VISIT OCCURRED OUTSIDE VISIT WINDOW","cat":"MINOR","scat":"VISIT WINDOW","start_dtc":"2025-09-24","end_dtc":null,"visit":null},{"seq":"44","term":"Missed PLACEBO dose on 2025-10-01","decod":"MISSED DOSE","cat":"MINOR","scat":"DOSING","start_dtc":"2025-10-01","end_dtc":null,"visit":null},{"seq":"45","term":"Missed PLACEBO dose on 2025-10-13","decod":"MISSED DOSE","cat":"MINOR","scat":"DOSING","start_dtc":"2025-10-13","end_dtc":null,"visit":null},{"seq":"46","term":"Visit EOT occurred 8 days early (Day 800 vs planned Day 808)","decod":"VISIT OCCURRED OUTSIDE VISIT WINDOW","cat":"MINOR","scat":"VISIT WINDOW","start_dtc":"2026-05-25","end_dtc":null,"visit":null}],"total":46},"section_12_disposition":{"completion_status":"COMPLETED","disposition_records":[{"seq":"1","term":"INFORMED CONSENT OBTAINED","decod":"INFORMED CONSENT OBTAINED","cat":"PROTOCOL MILESTONE","scat":null,"dtc":"2024-02-21","dy":null,"visit":null,"epoch":"SCREENING"},{"seq":"2","term":"RANDOMIZED","decod":"RANDOMIZED","cat":"PROTOCOL MILESTONE","scat":null,"dtc":"2024-03-17","dy":null,"visit":null,"epoch":"TREATMENT"},{"seq":"3","term":"COMPLETED","decod":"COMPLETED","cat":"DISPOSITION EVENT","scat":null,"dtc":"2026-07-02","dy":null,"visit":null,"epoch":"FOLLOW-UP"}],"death":null},"section_13_hospitalizations":{"items":[{"seq":"1","term":"Fatigue","decod":"Fatigue","cat":"EMERGENCY ROOM VISIT","start_dtc":"2025-03-06","end_dtc":"2025-03-13","epoch":"TREATMENT"},{"seq":"2","term":"Headache","decod":"Headache","cat":"HOSPITALIZATION","start_dtc":"2025-12-16","end_dtc":"2025-12-21","epoch":"TREATMENT"},{"seq":"3","term":"Urinary tract infection","decod":"Urinary tract infection","cat":"HOSPITALIZATION","start_dtc":"2026-02-14","end_dtc":"2026-02-28","epoch":"TREATMENT"}],"total":3},"section_14_substance_use":{"items":[{"seq":"1","substance":"BEER/WINE/SPIRITS","decod":"ETHANOL","cat":"ALCOHOL","scat":null,"usage":"Y","dose":"9.0","dosu":"DRINKS/WEEK","freq":"QW","start_dtc":"2005-02-25","end_dtc":null},{"seq":"2","substance":"COFFEE","decod":"COFFEE","cat":"CAFFEINE","scat":null,"usage":"Y","dose":"2.0","dosu":"CUPS/DAY","freq":"QD","start_dtc":"2011-02-24","end_dtc":null},{"seq":"3","substance":"CIGARETTES","decod":"CIGARETTES","cat":"TOBACCO","scat":null,"usage":"Y","dose":null,"dosu":null,"freq":null,"start_dtc":"2001-02-26","end_dtc":"2020-02-22"}],"total":3},"section_15_subject_status":{"items":[{"seq":"1","testcd":"SURVSTAT","test":"Survival Status","orres":"ALIVE","stresc":"ALIVE","dtc":"2026-07-02","visit":"SAFETY FU","epoch":"FOLLOW-UP"}],"total":1}}