STUDYID,DOMAIN,USUBJID,AESEQ,AELNKID,AETERM,AELLT,AELLTCD,AEDECOD,AEPTCD,AEHLT,AEHLTCD,AEHLGT,AEHLGTCD,AEBODSYS,AEBDSYCD,AESOC,AESOCCD,AESEV,AESER,AEACN,AEREL,AEOUT,AESCONG,AESDISAB,AESDTH,AESHOSP,AESLIFE,AESMIE,AECONTRT,EPOCH,AESTDTC,AEENDTC,AESTDY,AEENDY,AEENRF
COVHIC001-CHALLENGE,AE,COVHIC001-CHALLENGE-UK_ICL_HVIVO01-0001,1,AE1,NASAL CONGESTION,Nasal congestion,,Nasal congestion,10028728,Nasal disorders NEC,10028749,Respiratory tract signs and symptoms,10038734,"Respiratory, thoracic and mediastinal disorders",10038738,"Respiratory, thoracic and mediastinal disorders",10038738,MODERATE,N,DOSE NOT CHANGED,NOT RELATED,RECOVERED/RESOLVED,N,N,N,N,N,N,Y,TREATMENT,2024-04-10,2024-05-01,13,34,
COVHIC001-CHALLENGE,AE,COVHIC001-CHALLENGE-UK_ICL_HVIVO01-0005,1,AE1,FATIGUE,Fatigue,,Fatigue,10016256,Asthenic conditions,10003550,General system disorders NEC,10060892,General disorders and administration site conditions,10018065,General disorders and administration site conditions,10018065,SEVERE,Y,DOSE NOT CHANGED,UNLIKELY RELATED,RECOVERING/RESOLVING,N,N,N,Y,N,N,N,TREATMENT,2024-03-21,2024-05-03,8,51,
COVHIC001-CHALLENGE,AE,COVHIC001-CHALLENGE-UK_ICL_HVIVO01-0012,1,AE1,SORE THROAT,Sore throat,,Sore throat,10068319,Oral soft tissue conditions NEC,10068876,Oral soft tissue conditions,10061998,Gastrointestinal disorders,10017947,Gastrointestinal disorders,10017947,MILD,N,DOSE REDUCED,POSSIBLY RELATED,RECOVERED/RESOLVED,N,N,N,N,N,N,N,TREATMENT,2024-02-25,2024-02-27,6,8,
COVHIC001-CHALLENGE,AE,COVHIC001-CHALLENGE-UK_ICL_HVIVO01-0016,1,AE1,HEADACHE,Headache,,Headache,10019211,Headaches NEC,10019233,Headaches,10019231,Nervous system disorders,10029205,Nervous system disorders,10029205,MODERATE,N,DOSE NOT CHANGED,POSSIBLY RELATED,RECOVERING/RESOLVING,N,N,N,N,N,N,Y,TREATMENT,2024-04-13,2024-04-18,6,11,
COVHIC001-CHALLENGE,AE,COVHIC001-CHALLENGE-UK_ICL_HVIVO01-0017,1,AE1,AGEUSIA,Ageusia,,Ageusia,10061928,Neurological signs and symptoms NEC,10049372,Neurological signs and symptoms NEC,10049372,Nervous system disorders,10029205,Nervous system disorders,10029205,SEVERE,Y,DOSE NOT CHANGED,NOT RELATED,RECOVERED/RESOLVED,N,N,N,N,N,Y,N,TREATMENT,2024-03-19,2024-04-15,13,40,
