STUDYID,DOMAIN,USUBJID,SUBJID,RFSTDTC,RFENDTC,RFXSTDTC,RFXENDTC,RFICDTC,RFPENDTC,DTHDTC,DTHFL,SITEID,INVNAM,BRTHDTC,AGE,AGEU,SEX,RACE,ETHNIC,ARMCD,ARM,ACTARMCD,ACTARM,ARMNRS,ACTARMUD,COUNTRY
COVHIC001-CHALLENGE,DM,COVHIC001-CHALLENGE-UK_ICL_HVIVO01-0001,0001,2024-03-29,2025-04-25,2024-03-29,2024-04-02,2024-03-21,2025-04-25,,,UK_ICL_HVIVO01,Dr. Investigator UK_ICL_HVIVO01,2001,23,YEARS,F,WHITE,NOT HISPANIC OR LATINO,DOSE3,Dose 3 — 1000 TCID50 intranasal SARS-CoV-2 + pre-emptive remdesivir,DOSE3,Dose 3 — 1000 TCID50 intranasal SARS-CoV-2 + pre-emptive remdesivir,,,GBR
COVHIC001-CHALLENGE,DM,COVHIC001-CHALLENGE-UK_ICL_HVIVO01-0002,0002,2024-02-23,2025-03-21,2024-02-23,2024-02-27,2024-01-28,2025-03-21,,,UK_ICL_HVIVO01,Dr. Investigator UK_ICL_HVIVO01,2003,21,YEARS,M,WHITE,NOT HISPANIC OR LATINO,DOSE1,Dose 1 — 10 TCID50 intranasal SARS-CoV-2 + pre-emptive remdesivir,DOSE1,Dose 1 — 10 TCID50 intranasal SARS-CoV-2 + pre-emptive remdesivir,,,GBR
COVHIC001-CHALLENGE,DM,COVHIC001-CHALLENGE-UK_ICL_HVIVO01-0003,0003,2024-02-18,2025-03-16,2024-02-18,2024-02-23,2024-01-17,2025-03-16,,,UK_ICL_HVIVO01,Dr. Investigator UK_ICL_HVIVO01,1997,27,YEARS,M,WHITE,NOT HISPANIC OR LATINO,DOSE1,Dose 1 — 10 TCID50 intranasal SARS-CoV-2 + pre-emptive remdesivir,DOSE1,Dose 1 — 10 TCID50 intranasal SARS-CoV-2 + pre-emptive remdesivir,,,GBR
COVHIC001-CHALLENGE,DM,COVHIC001-CHALLENGE-UK_ICL_HVIVO01-0004,0004,2024-03-11,2025-04-07,2024-03-11,2024-03-15,2024-02-12,2025-04-07,,,UK_ICL_HVIVO01,Dr. Investigator UK_ICL_HVIVO01,1998,26,YEARS,M,WHITE,NOT HISPANIC OR LATINO,DOSE1,Dose 1 — 10 TCID50 intranasal SARS-CoV-2 + pre-emptive remdesivir,DOSE1,Dose 1 — 10 TCID50 intranasal SARS-CoV-2 + pre-emptive remdesivir,,,GBR
COVHIC001-CHALLENGE,DM,COVHIC001-CHALLENGE-UK_ICL_HVIVO01-0005,0005,2024-03-14,2025-04-10,2024-03-14,2024-03-18,2024-02-14,2025-04-10,,,UK_ICL_HVIVO01,Dr. Investigator UK_ICL_HVIVO01,2002,22,YEARS,F,WHITE,NOT HISPANIC OR LATINO,DOSE3,Dose 3 — 1000 TCID50 intranasal SARS-CoV-2 + pre-emptive remdesivir,DOSE3,Dose 3 — 1000 TCID50 intranasal SARS-CoV-2 + pre-emptive remdesivir,,,GBR
COVHIC001-CHALLENGE,DM,COVHIC001-CHALLENGE-UK_ICL_HVIVO01-0006,0006,2024-03-30,2025-04-26,2024-03-30,2024-04-04,2024-03-10,2025-04-26,,,UK_ICL_HVIVO01,Dr. Investigator UK_ICL_HVIVO01,1998,26,YEARS,M,ASIAN,NOT HISPANIC OR LATINO,DOSE2,Dose 2 — 100 TCID50 intranasal SARS-CoV-2 + pre-emptive remdesivir,DOSE2,Dose 2 — 100 TCID50 intranasal SARS-CoV-2 + pre-emptive remdesivir,,,GBR
COVHIC001-CHALLENGE,DM,COVHIC001-CHALLENGE-UK_ICL_HVIVO01-0007,0007,,,,,2024-03-04,,,,UK_ICL_HVIVO01,Dr. Investigator UK_ICL_HVIVO01,1997,27,YEARS,F,WHITE,NOT HISPANIC OR LATINO,,,,,SCREEN FAILURE,,GBR
COVHIC001-CHALLENGE,DM,COVHIC001-CHALLENGE-UK_ICL_HVIVO01-0008,0008,,,,,2024-03-30,,,,UK_ICL_HVIVO01,Dr. Investigator UK_ICL_HVIVO01,2002,22,YEARS,M,BLACK OR AFRICAN AMERICAN,NOT HISPANIC OR LATINO,,,,,SCREEN FAILURE,,GBR
COVHIC001-CHALLENGE,DM,COVHIC001-CHALLENGE-UK_ICL_HVIVO01-0009,0009,,,,,2024-01-31,,,,UK_ICL_HVIVO01,Dr. Investigator UK_ICL_HVIVO01,2005,19,YEARS,M,WHITE,NOT HISPANIC OR LATINO,,,,,SCREEN FAILURE,,GBR
COVHIC001-CHALLENGE,DM,COVHIC001-CHALLENGE-UK_ICL_HVIVO01-0010,0010,2024-02-19,2025-03-17,2024-02-19,2024-02-23,2024-01-19,2025-03-17,,,UK_ICL_HVIVO01,Dr. Investigator UK_ICL_HVIVO01,2005,19,YEARS,F,WHITE,NOT HISPANIC OR LATINO,DOSE1,Dose 1 — 10 TCID50 intranasal SARS-CoV-2 + pre-emptive remdesivir,DOSE1,Dose 1 — 10 TCID50 intranasal SARS-CoV-2 + pre-emptive remdesivir,,,GBR
COVHIC001-CHALLENGE,DM,COVHIC001-CHALLENGE-UK_ICL_HVIVO01-0011,0011,2024-04-15,2025-05-12,2024-04-15,2024-04-20,2024-03-28,2025-05-12,,,UK_ICL_HVIVO01,Dr. Investigator UK_ICL_HVIVO01,2000,24,YEARS,M,WHITE,NOT HISPANIC OR LATINO,DOSE3,Dose 3 — 1000 TCID50 intranasal SARS-CoV-2 + pre-emptive remdesivir,DOSE3,Dose 3 — 1000 TCID50 intranasal SARS-CoV-2 + pre-emptive remdesivir,,,GBR
COVHIC001-CHALLENGE,DM,COVHIC001-CHALLENGE-UK_ICL_HVIVO01-0012,0012,2024-02-20,2025-03-18,2024-02-20,2024-02-25,2024-01-18,2025-03-18,,,UK_ICL_HVIVO01,Dr. Investigator UK_ICL_HVIVO01,2000,24,YEARS,F,WHITE,NOT HISPANIC OR LATINO,DOSE1,Dose 1 — 10 TCID50 intranasal SARS-CoV-2 + pre-emptive remdesivir,DOSE1,Dose 1 — 10 TCID50 intranasal SARS-CoV-2 + pre-emptive remdesivir,,,GBR
COVHIC001-CHALLENGE,DM,COVHIC001-CHALLENGE-UK_ICL_HVIVO01-0013,0013,2024-05-13,2025-06-09,2024-05-13,2024-05-18,2024-04-11,2025-06-09,,,UK_ICL_HVIVO01,Dr. Investigator UK_ICL_HVIVO01,2003,21,YEARS,F,OTHER,NOT HISPANIC OR LATINO,DOSE3,Dose 3 — 1000 TCID50 intranasal SARS-CoV-2 + pre-emptive remdesivir,DOSE3,Dose 3 — 1000 TCID50 intranasal SARS-CoV-2 + pre-emptive remdesivir,,,GBR
COVHIC001-CHALLENGE,DM,COVHIC001-CHALLENGE-UK_ICL_HVIVO01-0014,0014,,,,,2024-02-10,,,,UK_ICL_HVIVO01,Dr. Investigator UK_ICL_HVIVO01,2004,20,YEARS,M,OTHER,NOT HISPANIC OR LATINO,,,,,SCREEN FAILURE,,GBR
COVHIC001-CHALLENGE,DM,COVHIC001-CHALLENGE-UK_ICL_HVIVO01-0015,0015,2024-04-06,2025-05-03,2024-04-06,2024-04-10,2024-03-04,2025-05-03,,,UK_ICL_HVIVO01,Dr. Investigator UK_ICL_HVIVO01,2002,22,YEARS,M,WHITE,NOT HISPANIC OR LATINO,DOSE1,Dose 1 — 10 TCID50 intranasal SARS-CoV-2 + pre-emptive remdesivir,DOSE1,Dose 1 — 10 TCID50 intranasal SARS-CoV-2 + pre-emptive remdesivir,,,GBR
COVHIC001-CHALLENGE,DM,COVHIC001-CHALLENGE-UK_ICL_HVIVO01-0016,0016,2024-04-08,2025-05-05,2024-04-08,2024-04-12,2024-04-01,2025-05-05,,,UK_ICL_HVIVO01,Dr. Investigator UK_ICL_HVIVO01,1998,26,YEARS,F,ASIAN,NOT HISPANIC OR LATINO,DOSE3,Dose 3 — 1000 TCID50 intranasal SARS-CoV-2 + pre-emptive remdesivir,DOSE3,Dose 3 — 1000 TCID50 intranasal SARS-CoV-2 + pre-emptive remdesivir,,,GBR
COVHIC001-CHALLENGE,DM,COVHIC001-CHALLENGE-UK_ICL_HVIVO01-0017,0017,2024-03-07,2025-04-03,2024-03-07,2024-03-11,2024-02-04,2025-04-03,,,UK_ICL_HVIVO01,Dr. Investigator UK_ICL_HVIVO01,1998,26,YEARS,M,WHITE,NOT HISPANIC OR LATINO,DOSE2,Dose 2 — 100 TCID50 intranasal SARS-CoV-2 + pre-emptive remdesivir,DOSE2,Dose 2 — 100 TCID50 intranasal SARS-CoV-2 + pre-emptive remdesivir,,,GBR
COVHIC001-CHALLENGE,DM,COVHIC001-CHALLENGE-UK_ICL_HVIVO01-0018,0018,,,,,2024-04-12,,,,UK_ICL_HVIVO01,Dr. Investigator UK_ICL_HVIVO01,2003,21,YEARS,M,WHITE,NOT HISPANIC OR LATINO,,,,,SCREEN FAILURE,,GBR
COVHIC001-CHALLENGE,DM,COVHIC001-CHALLENGE-UK_ICL_HVIVO01-0019,0019,2024-01-30,2025-02-25,2024-01-30,2024-02-03,2024-01-23,2025-02-25,,,UK_ICL_HVIVO01,Dr. Investigator UK_ICL_HVIVO01,2003,21,YEARS,M,WHITE,NOT HISPANIC OR LATINO,DOSE3,Dose 3 — 1000 TCID50 intranasal SARS-CoV-2 + pre-emptive remdesivir,DOSE3,Dose 3 — 1000 TCID50 intranasal SARS-CoV-2 + pre-emptive remdesivir,,,GBR
COVHIC001-CHALLENGE,DM,COVHIC001-CHALLENGE-UK_ICL_HVIVO01-0020,0020,2024-04-14,2025-05-11,2024-04-14,2024-04-19,2024-04-03,2025-05-11,,,UK_ICL_HVIVO01,Dr. Investigator UK_ICL_HVIVO01,2003,21,YEARS,M,WHITE,NOT HISPANIC OR LATINO,DOSE3,Dose 3 — 1000 TCID50 intranasal SARS-CoV-2 + pre-emptive remdesivir,DOSE3,Dose 3 — 1000 TCID50 intranasal SARS-CoV-2 + pre-emptive remdesivir,,,GBR
