STUDYID,DOMAIN,USUBJID,EXSEQ,EXTRT,EXDOSE,EXDOSU,EXDOSFRM,EXDOSFRQ,EXROUTE,EPOCH,EXSTDTC,EXENDTC,EXSTDY,EXENDY
COVHIC001-CHALLENGE,EX,COVHIC001-CHALLENGE-UK_ICL_HVIVO01-0001,1,SARS-COV-2-CHALLENGE,1000.0,TCID50,SUSPENSION,ONCE,NASAL,TREATMENT,2024-03-29,2024-03-29,1,1
COVHIC001-CHALLENGE,EX,COVHIC001-CHALLENGE-UK_ICL_HVIVO01-0001,2,REMDESIVIR,200.0,mg,INFUSION,ONCE,INTRAVENOUS,TREATMENT,2024-03-31,2024-03-31,3,3
COVHIC001-CHALLENGE,EX,COVHIC001-CHALLENGE-UK_ICL_HVIVO01-0001,3,REMDESIVIR,100.0,mg,INFUSION,QD,INTRAVENOUS,TREATMENT,2024-04-01,2024-04-02,4,5
COVHIC001-CHALLENGE,EX,COVHIC001-CHALLENGE-UK_ICL_HVIVO01-0002,1,SARS-COV-2-CHALLENGE,10.0,TCID50,SUSPENSION,ONCE,NASAL,TREATMENT,2024-02-23,2024-02-23,1,1
COVHIC001-CHALLENGE,EX,COVHIC001-CHALLENGE-UK_ICL_HVIVO01-0002,2,REMDESIVIR,200.0,mg,INFUSION,ONCE,INTRAVENOUS,TREATMENT,2024-02-25,2024-02-25,3,3
COVHIC001-CHALLENGE,EX,COVHIC001-CHALLENGE-UK_ICL_HVIVO01-0002,3,REMDESIVIR,100.0,mg,INFUSION,QD,INTRAVENOUS,TREATMENT,2024-02-26,2024-02-27,4,5
COVHIC001-CHALLENGE,EX,COVHIC001-CHALLENGE-UK_ICL_HVIVO01-0003,1,SARS-COV-2-CHALLENGE,10.0,TCID50,SUSPENSION,ONCE,NASAL,TREATMENT,2024-02-18,2024-02-18,1,1
COVHIC001-CHALLENGE,EX,COVHIC001-CHALLENGE-UK_ICL_HVIVO01-0003,2,REMDESIVIR,200.0,mg,INFUSION,ONCE,INTRAVENOUS,TREATMENT,2024-02-20,2024-02-20,3,3
COVHIC001-CHALLENGE,EX,COVHIC001-CHALLENGE-UK_ICL_HVIVO01-0003,3,REMDESIVIR,100.0,mg,INFUSION,QD,INTRAVENOUS,TREATMENT,2024-02-21,2024-02-23,4,6
COVHIC001-CHALLENGE,EX,COVHIC001-CHALLENGE-UK_ICL_HVIVO01-0004,1,REMDESIVIR,200.0,mg,INFUSION,ONCE,INTRAVENOUS,TREATMENT,2024-03-13,2024-03-13,3,3
COVHIC001-CHALLENGE,EX,COVHIC001-CHALLENGE-UK_ICL_HVIVO01-0004,2,REMDESIVIR,100.0,mg,INFUSION,QD,INTRAVENOUS,TREATMENT,2024-03-14,2024-03-15,4,5
COVHIC001-CHALLENGE,EX,COVHIC001-CHALLENGE-UK_ICL_HVIVO01-0005,1,SARS-COV-2-CHALLENGE,1000.0,TCID50,SUSPENSION,ONCE,NASAL,TREATMENT,2024-03-14,2024-03-14,1,1
COVHIC001-CHALLENGE,EX,COVHIC001-CHALLENGE-UK_ICL_HVIVO01-0005,2,REMDESIVIR,200.0,mg,INFUSION,ONCE,INTRAVENOUS,TREATMENT,2024-03-16,2024-03-16,3,3
COVHIC001-CHALLENGE,EX,COVHIC001-CHALLENGE-UK_ICL_HVIVO01-0005,3,REMDESIVIR,100.0,mg,INFUSION,QD,INTRAVENOUS,TREATMENT,2024-03-17,2024-03-18,4,5
COVHIC001-CHALLENGE,EX,COVHIC001-CHALLENGE-UK_ICL_HVIVO01-0006,1,SARS-COV-2-CHALLENGE,100.0,TCID50,SUSPENSION,ONCE,NASAL,TREATMENT,2024-03-30,2024-03-30,1,1
COVHIC001-CHALLENGE,EX,COVHIC001-CHALLENGE-UK_ICL_HVIVO01-0006,2,REMDESIVIR,200.0,mg,INFUSION,ONCE,INTRAVENOUS,TREATMENT,2024-04-01,2024-04-01,3,3
COVHIC001-CHALLENGE,EX,COVHIC001-CHALLENGE-UK_ICL_HVIVO01-0006,3,REMDESIVIR,100.0,mg,INFUSION,QD,INTRAVENOUS,TREATMENT,2024-04-02,2024-04-04,4,6
COVHIC001-CHALLENGE,EX,COVHIC001-CHALLENGE-UK_ICL_HVIVO01-0010,1,SARS-COV-2-CHALLENGE,10.0,TCID50,SUSPENSION,ONCE,NASAL,TREATMENT,2024-02-19,2024-02-19,1,1
COVHIC001-CHALLENGE,EX,COVHIC001-CHALLENGE-UK_ICL_HVIVO01-0010,2,REMDESIVIR,200.0,mg,INFUSION,ONCE,INTRAVENOUS,TREATMENT,2024-02-21,2024-02-21,3,3
COVHIC001-CHALLENGE,EX,COVHIC001-CHALLENGE-UK_ICL_HVIVO01-0010,3,REMDESIVIR,100.0,mg,INFUSION,QD,INTRAVENOUS,TREATMENT,2024-02-22,2024-02-23,4,5
COVHIC001-CHALLENGE,EX,COVHIC001-CHALLENGE-UK_ICL_HVIVO01-0011,1,SARS-COV-2-CHALLENGE,1000.0,TCID50,SUSPENSION,ONCE,NASAL,TREATMENT,2024-04-15,2024-04-15,1,1
COVHIC001-CHALLENGE,EX,COVHIC001-CHALLENGE-UK_ICL_HVIVO01-0011,2,REMDESIVIR,200.0,mg,INFUSION,ONCE,INTRAVENOUS,TREATMENT,2024-04-17,2024-04-17,3,3
COVHIC001-CHALLENGE,EX,COVHIC001-CHALLENGE-UK_ICL_HVIVO01-0011,3,REMDESIVIR,100.0,mg,INFUSION,QD,INTRAVENOUS,TREATMENT,2024-04-18,2024-04-20,4,6
COVHIC001-CHALLENGE,EX,COVHIC001-CHALLENGE-UK_ICL_HVIVO01-0012,1,SARS-COV-2-CHALLENGE,10.0,TCID50,SUSPENSION,ONCE,NASAL,TREATMENT,2024-02-20,2024-02-20,1,1
COVHIC001-CHALLENGE,EX,COVHIC001-CHALLENGE-UK_ICL_HVIVO01-0012,2,REMDESIVIR,200.0,mg,INFUSION,ONCE,INTRAVENOUS,TREATMENT,2024-02-22,2024-02-22,3,3
COVHIC001-CHALLENGE,EX,COVHIC001-CHALLENGE-UK_ICL_HVIVO01-0012,3,REMDESIVIR,100.0,mg,INFUSION,QD,INTRAVENOUS,TREATMENT,2024-02-23,2024-02-25,4,6
COVHIC001-CHALLENGE,EX,COVHIC001-CHALLENGE-UK_ICL_HVIVO01-0013,1,SARS-COV-2-CHALLENGE,1000.0,TCID50,SUSPENSION,ONCE,NASAL,TREATMENT,2024-05-13,2024-05-13,1,1
COVHIC001-CHALLENGE,EX,COVHIC001-CHALLENGE-UK_ICL_HVIVO01-0013,2,REMDESIVIR,200.0,mg,INFUSION,ONCE,INTRAVENOUS,TREATMENT,2024-05-15,2024-05-15,3,3
COVHIC001-CHALLENGE,EX,COVHIC001-CHALLENGE-UK_ICL_HVIVO01-0013,3,REMDESIVIR,100.0,mg,INFUSION,QD,INTRAVENOUS,TREATMENT,2024-05-16,2024-05-18,4,6
COVHIC001-CHALLENGE,EX,COVHIC001-CHALLENGE-UK_ICL_HVIVO01-0015,1,SARS-COV-2-CHALLENGE,10.0,TCID50,SUSPENSION,ONCE,NASAL,TREATMENT,2024-04-06,2024-04-06,1,1
COVHIC001-CHALLENGE,EX,COVHIC001-CHALLENGE-UK_ICL_HVIVO01-0015,2,REMDESIVIR,200.0,mg,INFUSION,ONCE,INTRAVENOUS,TREATMENT,2024-04-08,2024-04-08,3,3
COVHIC001-CHALLENGE,EX,COVHIC001-CHALLENGE-UK_ICL_HVIVO01-0015,3,REMDESIVIR,100.0,mg,INFUSION,QD,INTRAVENOUS,TREATMENT,2024-04-09,2024-04-10,4,5
COVHIC001-CHALLENGE,EX,COVHIC001-CHALLENGE-UK_ICL_HVIVO01-0016,1,SARS-COV-2-CHALLENGE,1000.0,TCID50,SUSPENSION,ONCE,NASAL,TREATMENT,2024-04-08,2024-04-08,1,1
COVHIC001-CHALLENGE,EX,COVHIC001-CHALLENGE-UK_ICL_HVIVO01-0016,2,REMDESIVIR,200.0,mg,INFUSION,ONCE,INTRAVENOUS,TREATMENT,2024-04-10,2024-04-10,3,3
COVHIC001-CHALLENGE,EX,COVHIC001-CHALLENGE-UK_ICL_HVIVO01-0016,3,REMDESIVIR,100.0,mg,INFUSION,QD,INTRAVENOUS,TREATMENT,2024-04-11,2024-04-12,4,5
COVHIC001-CHALLENGE,EX,COVHIC001-CHALLENGE-UK_ICL_HVIVO01-0017,1,SARS-COV-2-CHALLENGE,100.0,TCID50,SUSPENSION,ONCE,NASAL,TREATMENT,2024-03-07,2024-03-07,1,1
COVHIC001-CHALLENGE,EX,COVHIC001-CHALLENGE-UK_ICL_HVIVO01-0017,2,REMDESIVIR,200.0,mg,INFUSION,ONCE,INTRAVENOUS,TREATMENT,2024-03-09,2024-03-09,3,3
COVHIC001-CHALLENGE,EX,COVHIC001-CHALLENGE-UK_ICL_HVIVO01-0017,3,REMDESIVIR,100.0,mg,INFUSION,QD,INTRAVENOUS,TREATMENT,2024-03-10,2024-03-11,4,5
COVHIC001-CHALLENGE,EX,COVHIC001-CHALLENGE-UK_ICL_HVIVO01-0019,1,SARS-COV-2-CHALLENGE,1000.0,TCID50,SUSPENSION,ONCE,NASAL,TREATMENT,2024-01-30,2024-01-30,1,1
COVHIC001-CHALLENGE,EX,COVHIC001-CHALLENGE-UK_ICL_HVIVO01-0019,2,REMDESIVIR,200.0,mg,INFUSION,ONCE,INTRAVENOUS,TREATMENT,2024-02-01,2024-02-01,3,3
COVHIC001-CHALLENGE,EX,COVHIC001-CHALLENGE-UK_ICL_HVIVO01-0019,3,REMDESIVIR,100.0,mg,INFUSION,QD,INTRAVENOUS,TREATMENT,2024-02-02,2024-02-03,4,5
COVHIC001-CHALLENGE,EX,COVHIC001-CHALLENGE-UK_ICL_HVIVO01-0020,1,SARS-COV-2-CHALLENGE,1000.0,TCID50,SUSPENSION,ONCE,NASAL,TREATMENT,2024-04-14,2024-04-14,1,1
COVHIC001-CHALLENGE,EX,COVHIC001-CHALLENGE-UK_ICL_HVIVO01-0020,2,REMDESIVIR,200.0,mg,INFUSION,ONCE,INTRAVENOUS,TREATMENT,2024-04-16,2024-04-16,3,3
COVHIC001-CHALLENGE,EX,COVHIC001-CHALLENGE-UK_ICL_HVIVO01-0020,3,REMDESIVIR,100.0,mg,INFUSION,QD,INTRAVENOUS,TREATMENT,2024-04-17,2024-04-19,4,6
