STUDYID,DOMAIN,USUBJID,HOSEQ,HOTERM,HODECOD,HOCAT,EPOCH,HOSTDTC,HOENDTC,HOSTDY,HOENDY
COVHIC001-CHALLENGE,HO,COVHIC001-CHALLENGE-UK_ICL_HVIVO01-0005,1,Fatigue,Fatigue,HOSPITALIZATION,TREATMENT,2024-03-21,2024-03-29,8,16
