STUDYID,DOMAIN,USUBJID,IESEQ,IETESTCD,IETEST,IECAT,IEORRES,IESTRESC,VISITNUM,VISIT,EPOCH,IEDTC,IEDY
COVHIC001-CHALLENGE,IE,COVHIC001-CHALLENGE-UK_ICL_HVIVO01-0007,1,EXCL01,Subject has a known hypersensitivity to study drug or excipients,EXCLUSION,Y,Y,1.0,SCREENING,SCREENING,2024-03-04,
COVHIC001-CHALLENGE,IE,COVHIC001-CHALLENGE-UK_ICL_HVIVO01-0008,1,EXCL03,Subject has severe hepatic impairment (ALT/AST > 5x ULN),EXCLUSION,Y,Y,1.0,SCREENING,SCREENING,2024-03-30,
COVHIC001-CHALLENGE,IE,COVHIC001-CHALLENGE-UK_ICL_HVIVO01-0009,1,INCL04,Subject has adequate organ function based on screening labs,INCLUSION,N,N,1.0,SCREENING,SCREENING,2024-01-31,
COVHIC001-CHALLENGE,IE,COVHIC001-CHALLENGE-UK_ICL_HVIVO01-0014,1,INCL03,Subject meets diagnosis criteria for the study indication,INCLUSION,N,N,1.0,SCREENING,SCREENING,2024-02-10,
COVHIC001-CHALLENGE,IE,COVHIC001-CHALLENGE-UK_ICL_HVIVO01-0018,1,EXCL04,Subject has uncontrolled concurrent illness,EXCLUSION,Y,Y,1.0,SCREENING,SCREENING,2024-04-12,
