STUDYID,RDOMAIN,USUBJID,IDVAR,IDVARVAL,QNAM,QLABEL,QVAL,QORIG,QEVAL
COVHIC001-CHALLENGE,AE,COVHIC001-CHALLENGE-UK_ICL_HVIVO01-0001,AESEQ,1,AETRTEM,Treatment Emergent Flag,Y,DERIVED,
COVHIC001-CHALLENGE,AE,COVHIC001-CHALLENGE-UK_ICL_HVIVO01-0005,AESEQ,1,AETRTEM,Treatment Emergent Flag,Y,DERIVED,
COVHIC001-CHALLENGE,AE,COVHIC001-CHALLENGE-UK_ICL_HVIVO01-0012,AESEQ,1,AETRTEM,Treatment Emergent Flag,Y,DERIVED,
COVHIC001-CHALLENGE,AE,COVHIC001-CHALLENGE-UK_ICL_HVIVO01-0016,AESEQ,1,AETRTEM,Treatment Emergent Flag,Y,DERIVED,
COVHIC001-CHALLENGE,AE,COVHIC001-CHALLENGE-UK_ICL_HVIVO01-0017,AESEQ,1,AETRTEM,Treatment Emergent Flag,Y,DERIVED,
