{"subject_id":"VISION-NSCLC-SITE003-0042","study_id":"VISION-NSCLC","generated_at":"2026-06-29T10:42:54.814058+00:00","sdtmig_version":"3.4","flags":{"has_serious_ae":true,"has_fatal_ae":false,"has_protocol_deviation":true,"n_protocol_deviations":11,"n_adverse_events":7,"n_concomitant_meds":5,"max_ae_severity":"SEVERE","screen_failure":false,"discontinued_early":false,"discontinuation_reason":null,"death":false,"exposure_days":104},"timeline":[{"dtc":"2024-02-21","dy":"-33","event":"INFORMED CONSENT OBTAINED","domain":"DS","category":"milestone"},{"dtc":"2024-03-15","dy":"-10","event":"VISIT: SCREENING","domain":"SV","category":"visit"},{"dtc":"2024-03-25","dy":"1","event":"RANDOMIZED","domain":"DS","category":"milestone"},{"dtc":"2024-03-25","dy":"1","event":"FIRST DOSE: TEPOTINIB","domain":"EX","category":"exposure"},{"dtc":"2024-03-25","dy":"1","event":"VISIT: C1D1","domain":"SV","category":"visit"},{"dtc":"2024-03-31","dy":"7","event":"DEVIATION: MISSED DOSE","domain":"DV","category":"deviation"},{"dtc":"2024-04-06","dy":"13","event":"DEVIATION: MISSED DOSE","domain":"DV","category":"deviation"},{"dtc":"2024-04-06","dy":"13","event":"VISIT: C1D15","domain":"SV","category":"visit"},{"dtc":"2024-04-11","dy":"18","event":"DEVIATION: MISSED DOSE","domain":"DV","category":"deviation"},{"dtc":"2024-04-22","dy":"29","event":"DEVIATION: MISSED DOSE","domain":"DV","category":"deviation"},{"dtc":"2024-04-24","dy":"31","event":"VISIT: C2D1","domain":"SV","category":"visit"},{"dtc":"2024-05-07","dy":"44","event":"AE: Vomiting (MODERATE)","domain":"AE","category":"adverse_event"},{"dtc":"2024-05-16","dy":"53","event":"DEVIATION: MISSED DOSE","domain":"DV","category":"deviation"},{"dtc":"2024-05-17","dy":"54","event":"AE: Diarrhoea (MILD)","domain":"AE","category":"adverse_event"},{"dtc":"2024-05-17","dy":"54","event":"CM START: LOPERAMIDE","domain":"CM","category":"concomitant_med"},{"dtc":"2024-05-21","dy":"58","event":"DEVIATION: VISIT OCCURRED OUTSIDE VISIT WINDOW","domain":"DV","category":"deviation"},{"dtc":"2024-05-21","dy":"58","event":"VISIT: C3D1","domain":"SV","category":"visit"},{"dtc":"2024-05-26","dy":"63","event":"AE: Oedema peripheral (MODERATE)","domain":"AE","category":"adverse_event"},{"dtc":"2024-05-26","dy":"63","event":"CM START: FUROSEMIDE","domain":"CM","category":"concomitant_med"},{"dtc":"2024-06-01","dy":"69","event":"AE: Vomiting (MILD)","domain":"AE","category":"adverse_event"},{"dtc":"2024-06-03","dy":"71","event":"AE: Nausea (MILD)","domain":"AE","category":"adverse_event"},{"dtc":"2024-06-03","dy":"71","event":"CM START: ONDANSETRON","domain":"CM","category":"concomitant_med"},{"dtc":"2024-06-15","dy":"83","event":"DEVIATION: MISSED DOSE","domain":"DV","category":"deviation"},{"dtc":"2024-06-18","dy":"86","event":"DEVIATION: VISIT OCCURRED OUTSIDE VISIT WINDOW","domain":"DV","category":"deviation"},{"dtc":"2024-06-18","dy":"86","event":"VISIT: C4D1","domain":"SV","category":"visit"},{"dtc":"2024-07-07","dy":"105","event":"LAST DOSE: TEPOTINIB","domain":"EX","category":"exposure"},{"dtc":"2024-07-27","dy":"125","event":"AE: Blood creatinine increased (SEVERE) [SERIOUS]","domain":"AE","category":"adverse_event"},{"dtc":"2024-07-27","dy":"125","event":"CM START: PARACETAMOL","domain":"CM","category":"concomitant_med"},{"dtc":"2024-08-13","dy":"142","event":"DEVIATION: VISIT OCCURRED OUTSIDE VISIT WINDOW","domain":"DV","category":"deviation"},{"dtc":"2024-08-13","dy":"142","event":"VISIT: C6D1","domain":"SV","category":"visit"},{"dtc":"2024-08-22","dy":"151","event":"AE: Aspartate aminotransferase increased (SEVERE) [SERIOUS]","domain":"AE","category":"adverse_event"},{"dtc":"2024-08-22","dy":"151","event":"CM START: PARACETAMOL","domain":"CM","category":"concomitant_med"},{"dtc":"2024-09-15","dy":"175","event":"DEVIATION: MISSED ASSESSMENT","domain":"DV","category":"deviation"},{"dtc":"2024-09-15","dy":"175","event":"VISIT: EOT","domain":"SV","category":"visit"},{"dtc":"2024-10-11","dy":"201","event":"DEVIATION: VISIT OCCURRED OUTSIDE VISIT WINDOW","domain":"DV","category":"deviation"},{"dtc":"2024-10-11","dy":"201","event":"VISIT: FOLLOW-UP","domain":"SV","category":"visit"},{"dtc":"2024-11-05","dy":"226","event":"COMPLETED","domain":"DS","category":"milestone"}],"section_1_demographics":{"usubjid":"VISION-NSCLC-SITE003-0042","subjid":"0042","siteid":"SITE003","age":"36","ageu":"YEARS","sex":"F","race":"WHITE","ethnicity":"NOT HISPANIC OR LATINO","country":"USA","arm":"Tepotinib 500mg QD","armcd":"TEP500","actarm":"Tepotinib 500mg QD","actarmcd":"TEP500","randomization_date":null,"informed_consent_date":"2024-02-21","reference_start_date":"2024-03-25","reference_end_date":"2024-11-05","screen_failure":false,"death_flag":null,"death_date":null,"subject_characteristics":[{"testcd":"ALCUSE","test":"Alcohol Use","orres":"CURRENT DRINKER","stresc":"CURRENT DRINKER","visit":null,"dtc":"2024-02-21"},{"testcd":"BMI","test":"Body Mass Index","orres":"22.5","stresc":"22.5","visit":null,"dtc":"2024-02-21"},{"testcd":"DURDIS","test":"Duration of Disease","orres":"73 months","stresc":"73","visit":null,"dtc":"2024-02-21"},{"testcd":"TOBUSE","test":"Tobacco Use","orres":"NEVER SMOKED","stresc":"NEVER SMOKED","visit":null,"dtc":"2024-02-21"}]},"section_2_medical_history":{"items":[{"seq":"1","term":"DEPRESSION","decod":"DEPRESSION","cat":"PSYCHIATRIC","scat":null,"presp":null,"occur":null,"status":null,"onset_dtc":"2018-02-22","end_dtc":"2021-11-04","visit":null},{"seq":"2","term":"GASTROESOPHAGEAL REFLUX DISEASE","decod":"GASTROESOPHAGEAL REFLUX DISEASE","cat":"GASTROINTESTINAL","scat":null,"presp":null,"occur":null,"status":null,"onset_dtc":"2023-02-21","end_dtc":"2023-12-10","visit":null}]},"section_3_inclusion_exclusion":{"criteria":[]},"section_4_trial_participation":{"visits":[{"visitnum":"1.0","visit":"SCREENING","start_dtc":"2024-03-15","end_dtc":"2024-03-15","updes":null},{"visitnum":"2.0","visit":"C1D1","start_dtc":"2024-03-25","end_dtc":"2024-03-25","updes":null},{"visitnum":"3.0","visit":"C1D15","start_dtc":"2024-04-06","end_dtc":"2024-04-06","updes":null},{"visitnum":"4.0","visit":"C2D1","start_dtc":"2024-04-24","end_dtc":"2024-04-24","updes":null},{"visitnum":"5.0","visit":"C3D1","start_dtc":"2024-05-21","end_dtc":"2024-05-21","updes":null},{"visitnum":"6.0","visit":"C4D1","start_dtc":"2024-06-18","end_dtc":"2024-06-18","updes":null},{"visitnum":"7.0","visit":"C6D1","start_dtc":"2024-08-13","end_dtc":"2024-08-13","updes":null},{"visitnum":"8.0","visit":"EOT","start_dtc":"2024-09-15","end_dtc":"2024-09-15","updes":null},{"visitnum":"9.0","visit":"FOLLOW-UP","start_dtc":"2024-10-11","end_dtc":"2024-10-11","updes":null}],"epochs":[{"seq":"1","etcd":"SCRN","element":"Screening","start_dtc":"2024-02-26","end_dtc":"2024-03-25","updes":null},{"seq":"2","etcd":"TRT","element":"Treatment","start_dtc":"2024-03-25","end_dtc":"2024-09-09","updes":null},{"seq":"3","etcd":"FU","element":"Follow-up","start_dtc":"2024-09-09","end_dtc":"2024-10-08","updes":null}],"visit_count":9},"section_5_concomitant_medications":{"medications":[{"seq":"1","trt":"LOPERAMIDE","decod":"LOPERAMIDE","cat":"CONCOMITANT","dose":"2","doseu":null,"dosef":"PRN","route":"ORAL","indication":"DIARRHOEA","start_dtc":"2024-05-17","end_dtc":"2024-06-05","ongoing":null,"visit":null},{"seq":"2","trt":"FUROSEMIDE","decod":"FUROSEMIDE","cat":"CONCOMITANT","dose":"20.0","doseu":null,"dosef":"QD","route":"ORAL","indication":"OEDEMA PERIPHERAL","start_dtc":"2024-05-26","end_dtc":"2024-06-02","ongoing":null,"visit":null},{"seq":"3","trt":"ONDANSETRON","decod":"ONDANSETRON","cat":"CONCOMITANT","dose":"4","doseu":null,"dosef":"PRN","route":"ORAL","indication":"NAUSEA","start_dtc":"2024-06-03","end_dtc":"2024-06-09","ongoing":null,"visit":null},{"seq":"4","trt":"PARACETAMOL","decod":"PARACETAMOL","cat":"CONCOMITANT","dose":"500","doseu":null,"dosef":"PRN","route":"ORAL","indication":"BLOOD CREATININE INCREASED","start_dtc":"2024-07-27","end_dtc":"2024-08-08","ongoing":null,"visit":null},{"seq":"5","trt":"PARACETAMOL","decod":"PARACETAMOL","cat":"CONCOMITANT","dose":"500","doseu":null,"dosef":"PRN","route":"ORAL","indication":"ASPARTATE AMINOTRANSFERASE INCREASED","start_dtc":"2024-08-22","end_dtc":"2024-09-16","ongoing":null,"visit":null}]},"section_6_exposure":{"exposure_as_administered":[{"seq":"1","trt":"TEPOTINIB","dose":"500.0","doseu":null,"dosef":"QD","route":"ORAL","lot":null,"start_dtc":"2024-03-25","end_dtc":"2024-05-31","start_dy":"1","end_dy":"68","epoch":"TREATMENT","visit":null},{"seq":"2","trt":"TEPOTINIB","dose":"250.0","doseu":null,"dosef":"QD","route":"ORAL","lot":null,"start_dtc":"2024-06-01","end_dtc":"2024-06-02","start_dy":"69","end_dy":"70","epoch":"TREATMENT","visit":null},{"seq":"3","trt":"TEPOTINIB","dose":"250.0","doseu":null,"dosef":"QD","route":"ORAL","lot":null,"start_dtc":"2024-06-03","end_dtc":"2024-07-07","start_dy":"71","end_dy":"105","epoch":"TREATMENT","visit":null}],"exposure_as_collected":[{"seq":"1","trt":"TEPOTINIB","dose":"500.0","doseu":null,"dosef":"QD","route":"ORAL","start_dtc":"2024-03-25","end_dtc":"2024-03-25","visit":"C1D1"},{"seq":"2","trt":"TEPOTINIB","dose":"500.0","doseu":null,"dosef":"QD","route":"ORAL","start_dtc":"2024-03-26","end_dtc":"2024-03-26","visit":"C1D1"},{"seq":"3","trt":"TEPOTINIB","dose":"500.0","doseu":null,"dosef":"QD","route":"ORAL","start_dtc":"2024-03-27","end_dtc":"2024-03-27","visit":"C1D1"},{"seq":"4","trt":"TEPOTINIB","dose":"500.0","doseu":null,"dosef":"QD","route":"ORAL","start_dtc":"2024-03-28","end_dtc":"2024-03-28","visit":"C1D1"},{"seq":"5","trt":"TEPOTINIB","dose":"500.0","doseu":null,"dosef":"QD","route":"ORAL","start_dtc":"2024-03-29","end_dtc":"2024-03-29","visit":null},{"seq":"6","trt":"TEPOTINIB","dose":"500.0","doseu":null,"dosef":"QD","route":"ORAL","start_dtc":"2024-03-30","end_dtc":"2024-03-30","visit":null},{"seq":"7","trt":"TEPOTINIB","dose":null,"doseu":null,"dosef":"QD","route":"ORAL","start_dtc":"2024-03-31","end_dtc":"2024-03-31","visit":null},{"seq":"8","trt":"TEPOTINIB","dose":"500.0","doseu":null,"dosef":"QD","route":"ORAL","start_dtc":"2024-04-01","end_dtc":"2024-04-01","visit":null},{"seq":"9","trt":"TEPOTINIB","dose":"500.0","doseu":null,"dosef":"QD","route":"ORAL","start_dtc":"2024-04-02","end_dtc":"2024-04-02","visit":null},{"seq":"10","trt":"TEPOTINIB","dose":"500.0","doseu":null,"dosef":"QD","route":"ORAL","start_dtc":"2024-04-03","end_dtc":"2024-04-03","visit":null},{"seq":"11","trt":"TEPOTINIB","dose":"500.0","doseu":null,"dosef":"QD","route":"ORAL","start_dtc":"2024-04-04","end_dtc":"2024-04-04","visit":null},{"seq":"12","trt":"TEPOTINIB","dose":"500.0","doseu":null,"dosef":"QD","route":"ORAL","start_dtc":"2024-04-05","end_dtc":"2024-04-05","visit":"C1D15"},{"seq":"13","trt":"TEPOTINIB","dose":null,"doseu":null,"dosef":"QD","route":"ORAL","start_dtc":"2024-04-06","end_dtc":"2024-04-06","visit":"C1D15"},{"seq":"14","trt":"TEPOTINIB","dose":"500.0","doseu":null,"dosef":"QD","route":"ORAL","start_dtc":"2024-04-07","end_dtc":"2024-04-07","visit":"C1D15"},{"seq":"15","trt":"TEPOTINIB","dose":"500.0","doseu":null,"dosef":"QD","route":"ORAL","start_dtc":"2024-04-08","end_dtc":"2024-04-08","visit":"C1D15"},{"seq":"16","trt":"TEPOTINIB","dose":"500.0","doseu":null,"dosef":"QD","route":"ORAL","start_dtc":"2024-04-09","end_dtc":"2024-04-09","visit":"C1D15"},{"seq":"17","trt":"TEPOTINIB","dose":"500.0","doseu":null,"dosef":"QD","route":"ORAL","start_dtc":"2024-04-10","end_dtc":"2024-04-10","visit":"C1D15"},{"seq":"18","trt":"TEPOTINIB","dose":null,"doseu":null,"dosef":"QD","route":"ORAL","start_dtc":"2024-04-11","end_dtc":"2024-04-11","visit":"C1D15"},{"seq":"19","trt":"TEPOTINIB","dose":"500.0","doseu":null,"dosef":"QD","route":"ORAL","start_dtc":"2024-04-12","end_dtc":"2024-04-12","visit":null},{"seq":"20","trt":"TEPOTINIB","dose":"500.0","doseu":null,"dosef":"QD","route":"ORAL","start_dtc":"2024-04-13","end_dtc":"2024-04-13","visit":null},{"seq":"21","trt":"TEPOTINIB","dose":"500.0","doseu":null,"dosef":"QD","route":"ORAL","start_dtc":"2024-04-14","end_dtc":"2024-04-14","visit":null},{"seq":"22","trt":"TEPOTINIB","dose":"500.0","doseu":null,"dosef":"QD","route":"ORAL","start_dtc":"2024-04-15","end_dtc":"2024-04-15","visit":null},{"seq":"23","trt":"TEPOTINIB","dose":"500.0","doseu":null,"dosef":"QD","route":"ORAL","start_dtc":"2024-04-16","end_dtc":"2024-04-16","visit":null},{"seq":"24","trt":"TEPOTINIB","dose":"500.0","doseu":null,"dosef":"QD","route":"ORAL","start_dtc":"2024-04-17","end_dtc":"2024-04-17","visit":null},{"seq":"25","trt":"TEPOTINIB","dose":"500.0","doseu":null,"dosef":"QD","route":"ORAL","start_dtc":"2024-04-18","end_dtc":"2024-04-18","visit":null},{"seq":"26","trt":"TEPOTINIB","dose":"500.0","doseu":null,"dosef":"QD","route":"ORAL","start_dtc":"2024-04-19","end_dtc":"2024-04-19","visit":"C2D1"},{"seq":"27","trt":"TEPOTINIB","dose":"500.0","doseu":null,"dosef":"QD","route":"ORAL","start_dtc":"2024-04-20","end_dtc":"2024-04-20","visit":"C2D1"},{"seq":"28","trt":"TEPOTINIB","dose":"500.0","doseu":null,"dosef":"QD","route":"ORAL","start_dtc":"2024-04-21","end_dtc":"2024-04-21","visit":"C2D1"},{"seq":"29","trt":"TEPOTINIB","dose":null,"doseu":null,"dosef":"QD","route":"ORAL","start_dtc":"2024-04-22","end_dtc":"2024-04-22","visit":"C2D1"},{"seq":"30","trt":"TEPOTINIB","dose":"500.0","doseu":null,"dosef":"QD","route":"ORAL","start_dtc":"2024-04-23","end_dtc":"2024-04-23","visit":"C2D1"},{"seq":"31","trt":"TEPOTINIB","dose":"500.0","doseu":null,"dosef":"QD","route":"ORAL","start_dtc":"2024-04-24","end_dtc":"2024-04-24","visit":"C2D1"},{"seq":"32","trt":"TEPOTINIB","dose":"500.0","doseu":null,"dosef":"QD","route":"ORAL","start_dtc":"2024-04-25","end_dtc":"2024-04-25","visit":"C2D1"},{"seq":"33","trt":"TEPOTINIB","dose":"500.0","doseu":null,"dosef":"QD","route":"ORAL","start_dtc":"2024-04-26","end_dtc":"2024-04-26","visit":null},{"seq":"34","trt":"TEPOTINIB","dose":"500.0","doseu":null,"dosef":"QD","route":"ORAL","start_dtc":"2024-04-27","end_dtc":"2024-04-27","visit":null},{"seq":"35","trt":"TEPOTINIB","dose":"500.0","doseu":null,"dosef":"QD","route":"ORAL","start_dtc":"2024-04-28","end_dtc":"2024-04-28","visit":null},{"seq":"36","trt":"TEPOTINIB","dose":"500.0","doseu":null,"dosef":"QD","route":"ORAL","start_dtc":"2024-04-29","end_dtc":"2024-04-29","visit":null},{"seq":"37","trt":"TEPOTINIB","dose":"500.0","doseu":null,"dosef":"QD","route":"ORAL","start_dtc":"2024-04-30","end_dtc":"2024-04-30","visit":null},{"seq":"38","trt":"TEPOTINIB","dose":"500.0","doseu":null,"dosef":"QD","route":"ORAL","start_dtc":"2024-05-01","end_dtc":"2024-05-01","visit":null},{"seq":"39","trt":"TEPOTINIB","dose":"500.0","doseu":null,"dosef":"QD","route":"ORAL","start_dtc":"2024-05-02","end_dtc":"2024-05-02","visit":null},{"seq":"40","trt":"TEPOTINIB","dose":"500.0","doseu":null,"dosef":"QD","route":"ORAL","start_dtc":"2024-05-03","end_dtc":"2024-05-03","visit":null},{"seq":"41","trt":"TEPOTINIB","dose":"500.0","doseu":null,"dosef":"QD","route":"ORAL","start_dtc":"2024-05-04","end_dtc":"2024-05-04","visit":null},{"seq":"42","trt":"TEPOTINIB","dose":"500.0","doseu":null,"dosef":"QD","route":"ORAL","start_dtc":"2024-05-05","end_dtc":"2024-05-05","visit":null},{"seq":"43","trt":"TEPOTINIB","dose":"500.0","doseu":null,"dosef":"QD","route":"ORAL","start_dtc":"2024-05-06","end_dtc":"2024-05-06","visit":null},{"seq":"44","trt":"TEPOTINIB","dose":"500.0","doseu":null,"dosef":"QD","route":"ORAL","start_dtc":"2024-05-07","end_dtc":"2024-05-07","visit":null},{"seq":"45","trt":"TEPOTINIB","dose":"500.0","doseu":null,"dosef":"QD","route":"ORAL","start_dtc":"2024-05-08","end_dtc":"2024-05-08","visit":null},{"seq":"46","trt":"TEPOTINIB","dose":"500.0","doseu":null,"dosef":"QD","route":"ORAL","start_dtc":"2024-05-09","end_dtc":"2024-05-09","visit":null},{"seq":"47","trt":"TEPOTINIB","dose":"500.0","doseu":null,"dosef":"QD","route":"ORAL","start_dtc":"2024-05-10","end_dtc":"2024-05-10","visit":null},{"seq":"48","trt":"TEPOTINIB","dose":"500.0","doseu":null,"dosef":"QD","route":"ORAL","start_dtc":"2024-05-11","end_dtc":"2024-05-11","visit":null},{"seq":"49","trt":"TEPOTINIB","dose":"500.0","doseu":null,"dosef":"QD","route":"ORAL","start_dtc":"2024-05-12","end_dtc":"2024-05-12","visit":null},{"seq":"50","trt":"TEPOTINIB","dose":"500.0","doseu":null,"dosef":"QD","route":"ORAL","start_dtc":"2024-05-13","end_dtc":"2024-05-13","visit":null},{"seq":"51","trt":"TEPOTINIB","dose":"500.0","doseu":null,"dosef":"QD","route":"ORAL","start_dtc":"2024-05-14","end_dtc":"2024-05-14","visit":null},{"seq":"52","trt":"TEPOTINIB","dose":"500.0","doseu":null,"dosef":"QD","route":"ORAL","start_dtc":"2024-05-15","end_dtc":"2024-05-15","visit":null},{"seq":"53","trt":"TEPOTINIB","dose":null,"doseu":null,"dosef":"QD","route":"ORAL","start_dtc":"2024-05-16","end_dtc":"2024-05-16","visit":null},{"seq":"54","trt":"TEPOTINIB","dose":"500.0","doseu":null,"dosef":"QD","route":"ORAL","start_dtc":"2024-05-17","end_dtc":"2024-05-17","visit":"C3D1"},{"seq":"55","trt":"TEPOTINIB","dose":"500.0","doseu":null,"dosef":"QD","route":"ORAL","start_dtc":"2024-05-18","end_dtc":"2024-05-18","visit":"C3D1"},{"seq":"56","trt":"TEPOTINIB","dose":"500.0","doseu":null,"dosef":"QD","route":"ORAL","start_dtc":"2024-05-19","end_dtc":"2024-05-19","visit":"C3D1"},{"seq":"57","trt":"TEPOTINIB","dose":"500.0","doseu":null,"dosef":"QD","route":"ORAL","start_dtc":"2024-05-20","end_dtc":"2024-05-20","visit":"C3D1"},{"seq":"58","trt":"TEPOTINIB","dose":"500.0","doseu":null,"dosef":"QD","route":"ORAL","start_dtc":"2024-05-21","end_dtc":"2024-05-21","visit":"C3D1"},{"seq":"59","trt":"TEPOTINIB","dose":"500.0","doseu":null,"dosef":"QD","route":"ORAL","start_dtc":"2024-05-22","end_dtc":"2024-05-22","visit":"C3D1"},{"seq":"60","trt":"TEPOTINIB","dose":"500.0","doseu":null,"dosef":"QD","route":"ORAL","start_dtc":"2024-05-23","end_dtc":"2024-05-23","visit":"C3D1"},{"seq":"61","trt":"TEPOTINIB","dose":"500.0","doseu":null,"dosef":"QD","route":"ORAL","start_dtc":"2024-05-24","end_dtc":"2024-05-24","visit":null},{"seq":"62","trt":"TEPOTINIB","dose":"500.0","doseu":null,"dosef":"QD","route":"ORAL","start_dtc":"2024-05-25","end_dtc":"2024-05-25","visit":null},{"seq":"63","trt":"TEPOTINIB","dose":"500.0","doseu":null,"dosef":"QD","route":"ORAL","start_dtc":"2024-05-26","end_dtc":"2024-05-26","visit":null},{"seq":"64","trt":"TEPOTINIB","dose":"500.0","doseu":null,"dosef":"QD","route":"ORAL","start_dtc":"2024-05-27","end_dtc":"2024-05-27","visit":null},{"seq":"65","trt":"TEPOTINIB","dose":"500.0","doseu":null,"dosef":"QD","route":"ORAL","start_dtc":"2024-05-28","end_dtc":"2024-05-28","visit":null},{"seq":"66","trt":"TEPOTINIB","dose":"500.0","doseu":null,"dosef":"QD","route":"ORAL","start_dtc":"2024-05-29","end_dtc":"2024-05-29","visit":null},{"seq":"67","trt":"TEPOTINIB","dose":"500.0","doseu":null,"dosef":"QD","route":"ORAL","start_dtc":"2024-05-30","end_dtc":"2024-05-30","visit":null},{"seq":"68","trt":"TEPOTINIB","dose":"500.0","doseu":null,"dosef":"QD","route":"ORAL","start_dtc":"2024-05-31","end_dtc":"2024-05-31","visit":null},{"seq":"69","trt":"TEPOTINIB","dose":"250.0","doseu":null,"dosef":"QD","route":"ORAL","start_dtc":"2024-06-01","end_dtc":"2024-06-01","visit":null},{"seq":"70","trt":"TEPOTINIB","dose":"250.0","doseu":null,"dosef":"QD","route":"ORAL","start_dtc":"2024-06-02","end_dtc":"2024-06-02","visit":null},{"seq":"71","trt":"TEPOTINIB","dose":"250.0","doseu":null,"dosef":"QD","route":"ORAL","start_dtc":"2024-06-03","end_dtc":"2024-06-03","visit":null},{"seq":"72","trt":"TEPOTINIB","dose":"250.0","doseu":null,"dosef":"QD","route":"ORAL","start_dtc":"2024-06-04","end_dtc":"2024-06-04","visit":null},{"seq":"73","trt":"TEPOTINIB","dose":"250.0","doseu":null,"dosef":"QD","route":"ORAL","start_dtc":"2024-06-05","end_dtc":"2024-06-05","visit":null},{"seq":"74","trt":"TEPOTINIB","dose":"250.0","doseu":null,"dosef":"QD","route":"ORAL","start_dtc":"2024-06-06","end_dtc":"2024-06-06","visit":null},{"seq":"75","trt":"TEPOTINIB","dose":"250.0","doseu":null,"dosef":"QD","route":"ORAL","start_dtc":"2024-06-07","end_dtc":"2024-06-07","visit":null},{"seq":"76","trt":"TEPOTINIB","dose":"250.0","doseu":null,"dosef":"QD","route":"ORAL","start_dtc":"2024-06-08","end_dtc":"2024-06-08","visit":null},{"seq":"77","trt":"TEPOTINIB","dose":"250.0","doseu":null,"dosef":"QD","route":"ORAL","start_dtc":"2024-06-09","end_dtc":"2024-06-09","visit":null},{"seq":"78","trt":"TEPOTINIB","dose":"250.0","doseu":null,"dosef":"QD","route":"ORAL","start_dtc":"2024-06-10","end_dtc":"2024-06-10","visit":null},{"seq":"79","trt":"TEPOTINIB","dose":"250.0","doseu":null,"dosef":"QD","route":"ORAL","start_dtc":"2024-06-11","end_dtc":"2024-06-11","visit":null},{"seq":"80","trt":"TEPOTINIB","dose":"250.0","doseu":null,"dosef":"QD","route":"ORAL","start_dtc":"2024-06-12","end_dtc":"2024-06-12","visit":null},{"seq":"81","trt":"TEPOTINIB","dose":"250.0","doseu":null,"dosef":"QD","route":"ORAL","start_dtc":"2024-06-13","end_dtc":"2024-06-13","visit":null},{"seq":"82","trt":"TEPOTINIB","dose":"250.0","doseu":null,"dosef":"QD","route":"ORAL","start_dtc":"2024-06-14","end_dtc":"2024-06-14","visit":"C4D1"},{"seq":"83","trt":"TEPOTINIB","dose":null,"doseu":null,"dosef":"QD","route":"ORAL","start_dtc":"2024-06-15","end_dtc":"2024-06-15","visit":"C4D1"},{"seq":"84","trt":"TEPOTINIB","dose":"250.0","doseu":null,"dosef":"QD","route":"ORAL","start_dtc":"2024-06-16","end_dtc":"2024-06-16","visit":"C4D1"},{"seq":"85","trt":"TEPOTINIB","dose":"250.0","doseu":null,"dosef":"QD","route":"ORAL","start_dtc":"2024-06-17","end_dtc":"2024-06-17","visit":"C4D1"},{"seq":"86","trt":"TEPOTINIB","dose":"250.0","doseu":null,"dosef":"QD","route":"ORAL","start_dtc":"2024-06-18","end_dtc":"2024-06-18","visit":"C4D1"},{"seq":"87","trt":"TEPOTINIB","dose":"250.0","doseu":null,"dosef":"QD","route":"ORAL","start_dtc":"2024-06-19","end_dtc":"2024-06-19","visit":"C4D1"},{"seq":"88","trt":"TEPOTINIB","dose":"250.0","doseu":null,"dosef":"QD","route":"ORAL","start_dtc":"2024-06-20","end_dtc":"2024-06-20","visit":"C4D1"},{"seq":"89","trt":"TEPOTINIB","dose":"250.0","doseu":null,"dosef":"QD","route":"ORAL","start_dtc":"2024-06-21","end_dtc":"2024-06-21","visit":null},{"seq":"90","trt":"TEPOTINIB","dose":"250.0","doseu":null,"dosef":"QD","route":"ORAL","start_dtc":"2024-06-22","end_dtc":"2024-06-22","visit":null},{"seq":"91","trt":"TEPOTINIB","dose":"250.0","doseu":null,"dosef":"QD","route":"ORAL","start_dtc":"2024-06-23","end_dtc":"2024-06-23","visit":null},{"seq":"92","trt":"TEPOTINIB","dose":"250.0","doseu":null,"dosef":"QD","route":"ORAL","start_dtc":"2024-06-24","end_dtc":"2024-06-24","visit":null},{"seq":"93","trt":"TEPOTINIB","dose":"250.0","doseu":null,"dosef":"QD","route":"ORAL","start_dtc":"2024-06-25","end_dtc":"2024-06-25","visit":null},{"seq":"94","trt":"TEPOTINIB","dose":"250.0","doseu":null,"dosef":"QD","route":"ORAL","start_dtc":"2024-06-26","end_dtc":"2024-06-26","visit":null},{"seq":"95","trt":"TEPOTINIB","dose":"250.0","doseu":null,"dosef":"QD","route":"ORAL","start_dtc":"2024-06-27","end_dtc":"2024-06-27","visit":null},{"seq":"96","trt":"TEPOTINIB","dose":"250.0","doseu":null,"dosef":"QD","route":"ORAL","start_dtc":"2024-06-28","end_dtc":"2024-06-28","visit":null},{"seq":"97","trt":"TEPOTINIB","dose":"250.0","doseu":null,"dosef":"QD","route":"ORAL","start_dtc":"2024-06-29","end_dtc":"2024-06-29","visit":null},{"seq":"98","trt":"TEPOTINIB","dose":"250.0","doseu":null,"dosef":"QD","route":"ORAL","start_dtc":"2024-06-30","end_dtc":"2024-06-30","visit":null},{"seq":"99","trt":"TEPOTINIB","dose":"250.0","doseu":null,"dosef":"QD","route":"ORAL","start_dtc":"2024-07-01","end_dtc":"2024-07-01","visit":null},{"seq":"100","trt":"TEPOTINIB","dose":"250.0","doseu":null,"dosef":"QD","route":"ORAL","start_dtc":"2024-07-02","end_dtc":"2024-07-02","visit":null},{"seq":"101","trt":"TEPOTINIB","dose":"250.0","doseu":null,"dosef":"QD","route":"ORAL","start_dtc":"2024-07-03","end_dtc":"2024-07-03","visit":null},{"seq":"102","trt":"TEPOTINIB","dose":"250.0","doseu":null,"dosef":"QD","route":"ORAL","start_dtc":"2024-07-04","end_dtc":"2024-07-04","visit":null},{"seq":"103","trt":"TEPOTINIB","dose":"250.0","doseu":null,"dosef":"QD","route":"ORAL","start_dtc":"2024-07-05","end_dtc":"2024-07-05","visit":null},{"seq":"104","trt":"TEPOTINIB","dose":"250.0","doseu":null,"dosef":"QD","route":"ORAL","start_dtc":"2024-07-06","end_dtc":"2024-07-06","visit":null},{"seq":"105","trt":"TEPOTINIB","dose":"250.0","doseu":null,"dosef":"QD","route":"ORAL","start_dtc":"2024-07-07","end_dtc":"2024-07-07","visit":null}]},"section_7_adverse_events":{"summary":{"total_aes":7,"serious_aes":2,"fatal_aes":0,"by_severity":{"MODERATE":2,"MILD":3,"SEVERE":2},"by_soc":{"Gastrointestinal disorders":4,"General disorders and administration site conditions":1,"Investigations":2}},"events":[{"seq":"1","term":"VOMITING","decod":"Vomiting","llt":"Vomiting","hlt":"Nausea and vomiting symptoms","hlgt":"Gastrointestinal signs and symptoms","soc":"Gastrointestinal disorders","bodsys":"Gastrointestinal disorders","severity":"MODERATE","serious":"N","causality":"NOT RELATED","action_taken":"DOSE NOT CHANGED","outcome":"RECOVERED/RESOLVED","fatal":"N","hospitalization":"N","life_threatening":"N","onset_dtc":"2024-05-07","end_dtc":"2024-05-10","onset_dy":"44","end_dy":"47","duration":null,"epoch":"TREATMENT","visit":null,"supplemental":{}},{"seq":"2","term":"DIARRHOEA","decod":"Diarrhoea","llt":"Diarrhoea","hlt":"Diarrhoea (excl infective)","hlgt":"Gastrointestinal motility and defaecation conditions","soc":"Gastrointestinal disorders","bodsys":"Gastrointestinal disorders","severity":"MILD","serious":"N","causality":"POSSIBLY RELATED","action_taken":"DOSE NOT CHANGED","outcome":"RECOVERED/RESOLVED","fatal":"N","hospitalization":"N","life_threatening":"N","onset_dtc":"2024-05-17","end_dtc":"2024-05-20","onset_dy":"54","end_dy":"57","duration":null,"epoch":"TREATMENT","visit":null,"supplemental":{}},{"seq":"3","term":"OEDEMA PERIPHERAL","decod":"Oedema peripheral","llt":"Oedema peripheral","hlt":"Oedema NEC","hlgt":"Oedema NEC","soc":"General disorders and administration site conditions","bodsys":"General disorders and administration site conditions","severity":"MODERATE","serious":"N","causality":"PROBABLY RELATED","action_taken":"DOSE NOT CHANGED","outcome":"RECOVERING/RESOLVING","fatal":"N","hospitalization":"N","life_threatening":"N","onset_dtc":"2024-05-26","end_dtc":"2024-06-19","onset_dy":"63","end_dy":"87","duration":null,"epoch":"TREATMENT","visit":null,"supplemental":{}},{"seq":"4","term":"VOMITING","decod":"Vomiting","llt":"Vomiting","hlt":"Nausea and vomiting symptoms","hlgt":"Gastrointestinal signs and symptoms","soc":"Gastrointestinal disorders","bodsys":"Gastrointestinal disorders","severity":"MILD","serious":"N","causality":"POSSIBLY RELATED","action_taken":"DOSE REDUCED","outcome":"RECOVERING/RESOLVING","fatal":"N","hospitalization":"N","life_threatening":"N","onset_dtc":"2024-06-01","end_dtc":"2024-06-02","onset_dy":"69","end_dy":"70","duration":null,"epoch":"TREATMENT","visit":null,"supplemental":{}},{"seq":"5","term":"NAUSEA","decod":"Nausea","llt":"Nausea","hlt":"Nausea and vomiting symptoms","hlgt":"Gastrointestinal signs and symptoms","soc":"Gastrointestinal disorders","bodsys":"Gastrointestinal disorders","severity":"MILD","serious":"N","causality":"POSSIBLY RELATED","action_taken":"DOSE REDUCED","outcome":"RECOVERED/RESOLVED","fatal":"N","hospitalization":"N","life_threatening":"N","onset_dtc":"2024-06-03","end_dtc":"2024-06-05","onset_dy":"71","end_dy":"73","duration":null,"epoch":"TREATMENT","visit":null,"supplemental":{}},{"seq":"6","term":"BLOOD CREATININE INCREASED","decod":"Blood creatinine increased","llt":"Blood creatinine increased","hlt":"Renal function analyses","hlgt":"Renal and urinary tract investigations and urinalyses","soc":"Investigations","bodsys":"Investigations","severity":"SEVERE","serious":"Y","causality":"NOT RELATED","action_taken":"DOSE NOT CHANGED","outcome":"NOT RECOVERED/NOT RESOLVED","fatal":"N","hospitalization":"N","life_threatening":"N","onset_dtc":"2024-07-27","end_dtc":null,"onset_dy":"125","end_dy":null,"duration":null,"epoch":"TREATMENT","visit":null,"supplemental":{}},{"seq":"7","term":"ASPARTATE AMINOTRANSFERASE INCREASED","decod":"Aspartate aminotransferase increased","llt":"Aspartate aminotransferase increased","hlt":"Liver function analyses","hlgt":"Hepatobiliary investigations","soc":"Investigations","bodsys":"Investigations","severity":"SEVERE","serious":"Y","causality":"NOT RELATED","action_taken":"DOSE NOT CHANGED","outcome":"RECOVERED/RESOLVED","fatal":"N","hospitalization":"Y","life_threatening":"N","onset_dtc":"2024-08-22","end_dtc":"2024-10-07","onset_dy":"151","end_dy":"197","duration":null,"epoch":"TREATMENT","visit":null,"supplemental":{}}]},"section_8_laboratory_results":{"summary":{"total_records":56,"abnormal_count":8,"abnormal_pct":14.3},"shift_summary":[{"testcd":"ALT","baseline_value":16.97,"baseline_nrind":"NORMAL","worst_post_baseline_value":20.46,"worst_post_baseline_nrind":"NORMAL","worst_visit":"C2D1"},{"testcd":"AST","baseline_value":20.57,"baseline_nrind":"NORMAL","worst_post_baseline_value":22.26,"worst_post_baseline_nrind":"NORMAL","worst_visit":"C2D1"},{"testcd":"CREAT","baseline_value":61.84,"baseline_nrind":"NORMAL","worst_post_baseline_value":66.68,"worst_post_baseline_nrind":"NORMAL","worst_visit":"EOT"},{"testcd":"GLUC","baseline_value":4.13,"baseline_nrind":"NORMAL","worst_post_baseline_value":4.08,"worst_post_baseline_nrind":"NORMAL","worst_visit":"FOLLOW-UP"},{"testcd":"HGB","baseline_value":151.87,"baseline_nrind":"NORMAL","worst_post_baseline_value":148.11,"worst_post_baseline_nrind":"NORMAL","worst_visit":"FOLLOW-UP"},{"testcd":"PLAT","baseline_value":248.94,"baseline_nrind":"NORMAL","worst_post_baseline_value":264.61,"worst_post_baseline_nrind":"NORMAL","worst_visit":"FOLLOW-UP"},{"testcd":"WBC","baseline_value":11.87,"baseline_nrind":"HIGH","worst_post_baseline_value":11.95,"worst_post_baseline_nrind":"HIGH","worst_visit":"C1D1"}],"results":[{"seq":"1","testcd":"ALT","test":"Alanine Aminotransferase","cat":"CHEMISTRY","orres":"16.97","orresu":"U/L","stresc":"16.97","stresn":"16.97","stresu":"U/L","stnrlo":"7","stnrhi":"56","nrind":"NORMAL","fast":null,"dtc":"2024-03-15","dy":"-10","visit":"SCREENING","visitnum":"1.0","epoch":"SCREENING","spec":null,"method":null},{"seq":"2","testcd":"AST","test":"Aspartate Aminotransferase","cat":"CHEMISTRY","orres":"20.57","orresu":"U/L","stresc":"20.57","stresn":"20.57","stresu":"U/L","stnrlo":"10","stnrhi":"40","nrind":"NORMAL","fast":null,"dtc":"2024-03-15","dy":"-10","visit":"SCREENING","visitnum":"1.0","epoch":"SCREENING","spec":null,"method":null},{"seq":"3","testcd":"CREAT","test":"Creatinine","cat":"CHEMISTRY","orres":"61.84","orresu":"umol/L","stresc":"61.84","stresn":"61.84","stresu":"umol/L","stnrlo":"44","stnrhi":"80","nrind":"NORMAL","fast":null,"dtc":"2024-03-15","dy":"-10","visit":"SCREENING","visitnum":"1.0","epoch":"SCREENING","spec":null,"method":null},{"seq":"4","testcd":"GLUC","test":"Glucose","cat":"CHEMISTRY","orres":"4.13","orresu":"mmol/L","stresc":"4.13","stresn":"4.13","stresu":"mmol/L","stnrlo":"3.9","stnrhi":"5.6","nrind":"NORMAL","fast":null,"dtc":"2024-03-15","dy":"-10","visit":"SCREENING","visitnum":"1.0","epoch":"SCREENING","spec":null,"method":null},{"seq":"5","testcd":"HGB","test":"Hemoglobin","cat":"HEMATOLOGY","orres":"151.87","orresu":"g/L","stresc":"151.87","stresn":"151.87","stresu":"g/L","stnrlo":"120","stnrhi":"155","nrind":"NORMAL","fast":null,"dtc":"2024-03-15","dy":"-10","visit":"SCREENING","visitnum":"1.0","epoch":"SCREENING","spec":null,"method":null},{"seq":"6","testcd":"PLAT","test":"Platelets","cat":"HEMATOLOGY","orres":"248.94","orresu":"10^9/L","stresc":"248.94","stresn":"248.94","stresu":"10^9/L","stnrlo":"150","stnrhi":"400","nrind":"NORMAL","fast":null,"dtc":"2024-03-15","dy":"-10","visit":"SCREENING","visitnum":"1.0","epoch":"SCREENING","spec":null,"method":null},{"seq":"7","testcd":"WBC","test":"Leukocytes","cat":"HEMATOLOGY","orres":"11.87","orresu":"10^9/L","stresc":"11.87","stresn":"11.87","stresu":"10^9/L","stnrlo":"4.0","stnrhi":"11.0","nrind":"HIGH","fast":null,"dtc":"2024-03-15","dy":"-10","visit":"SCREENING","visitnum":"1.0","epoch":"SCREENING","spec":null,"method":null},{"seq":"8","testcd":"ALT","test":"Alanine Aminotransferase","cat":"CHEMISTRY","orres":"16.32","orresu":"U/L","stresc":"16.32","stresn":"16.32","stresu":"U/L","stnrlo":"7","stnrhi":"56","nrind":"NORMAL","fast":null,"dtc":"2024-03-25","dy":"1","visit":"C1D1","visitnum":"2.0","epoch":"TREATMENT","spec":null,"method":null},{"seq":"9","testcd":"AST","test":"Aspartate Aminotransferase","cat":"CHEMISTRY","orres":"19.86","orresu":"U/L","stresc":"19.86","stresn":"19.86","stresu":"U/L","stnrlo":"10","stnrhi":"40","nrind":"NORMAL","fast":null,"dtc":"2024-03-25","dy":"1","visit":"C1D1","visitnum":"2.0","epoch":"TREATMENT","spec":null,"method":null},{"seq":"10","testcd":"CREAT","test":"Creatinine","cat":"CHEMISTRY","orres":"63.43","orresu":"umol/L","stresc":"63.43","stresn":"63.43","stresu":"umol/L","stnrlo":"44","stnrhi":"80","nrind":"NORMAL","fast":null,"dtc":"2024-03-25","dy":"1","visit":"C1D1","visitnum":"2.0","epoch":"TREATMENT","spec":null,"method":null},{"seq":"11","testcd":"GLUC","test":"Glucose","cat":"CHEMISTRY","orres":"4.07","orresu":"mmol/L","stresc":"4.07","stresn":"4.07","stresu":"mmol/L","stnrlo":"3.9","stnrhi":"5.6","nrind":"NORMAL","fast":null,"dtc":"2024-03-25","dy":"1","visit":"C1D1","visitnum":"2.0","epoch":"TREATMENT","spec":null,"method":null},{"seq":"12","testcd":"HGB","test":"Hemoglobin","cat":"HEMATOLOGY","orres":"150.37","orresu":"g/L","stresc":"150.37","stresn":"150.37","stresu":"g/L","stnrlo":"120","stnrhi":"155","nrind":"NORMAL","fast":null,"dtc":"2024-03-25","dy":"1","visit":"C1D1","visitnum":"2.0","epoch":"TREATMENT","spec":null,"method":null},{"seq":"13","testcd":"PLAT","test":"Platelets","cat":"HEMATOLOGY","orres":"241.59","orresu":"10^9/L","stresc":"241.59","stresn":"241.59","stresu":"10^9/L","stnrlo":"150","stnrhi":"400","nrind":"NORMAL","fast":null,"dtc":"2024-03-25","dy":"1","visit":"C1D1","visitnum":"2.0","epoch":"TREATMENT","spec":null,"method":null},{"seq":"14","testcd":"WBC","test":"Leukocytes","cat":"HEMATOLOGY","orres":"11.95","orresu":"10^9/L","stresc":"11.95","stresn":"11.95","stresu":"10^9/L","stnrlo":"4.0","stnrhi":"11.0","nrind":"HIGH","fast":null,"dtc":"2024-03-25","dy":"1","visit":"C1D1","visitnum":"2.0","epoch":"TREATMENT","spec":null,"method":null},{"seq":"15","testcd":"ALT","test":"Alanine Aminotransferase","cat":"CHEMISTRY","orres":"18.09","orresu":"U/L","stresc":"18.09","stresn":"18.09","stresu":"U/L","stnrlo":"7","stnrhi":"56","nrind":"NORMAL","fast":null,"dtc":"2024-04-06","dy":"13","visit":"C1D15","visitnum":"3.0","epoch":"TREATMENT","spec":null,"method":null},{"seq":"16","testcd":"AST","test":"Aspartate Aminotransferase","cat":"CHEMISTRY","orres":"21.65","orresu":"U/L","stresc":"21.65","stresn":"21.65","stresu":"U/L","stnrlo":"10","stnrhi":"40","nrind":"NORMAL","fast":null,"dtc":"2024-04-06","dy":"13","visit":"C1D15","visitnum":"3.0","epoch":"TREATMENT","spec":null,"method":null},{"seq":"17","testcd":"CREAT","test":"Creatinine","cat":"CHEMISTRY","orres":"63.9","orresu":"umol/L","stresc":"63.9","stresn":"63.9","stresu":"umol/L","stnrlo":"44","stnrhi":"80","nrind":"NORMAL","fast":null,"dtc":"2024-04-06","dy":"13","visit":"C1D15","visitnum":"3.0","epoch":"TREATMENT","spec":null,"method":null},{"seq":"18","testcd":"GLUC","test":"Glucose","cat":"CHEMISTRY","orres":"3.91","orresu":"mmol/L","stresc":"3.91","stresn":"3.91","stresu":"mmol/L","stnrlo":"3.9","stnrhi":"5.6","nrind":"NORMAL","fast":null,"dtc":"2024-04-06","dy":"13","visit":"C1D15","visitnum":"3.0","epoch":"TREATMENT","spec":null,"method":null},{"seq":"19","testcd":"HGB","test":"Hemoglobin","cat":"HEMATOLOGY","orres":"151.16","orresu":"g/L","stresc":"151.16","stresn":"151.16","stresu":"g/L","stnrlo":"120","stnrhi":"155","nrind":"NORMAL","fast":null,"dtc":"2024-04-06","dy":"13","visit":"C1D15","visitnum":"3.0","epoch":"TREATMENT","spec":null,"method":null},{"seq":"20","testcd":"PLAT","test":"Platelets","cat":"HEMATOLOGY","orres":"242.79","orresu":"10^9/L","stresc":"242.79","stresn":"242.79","stresu":"10^9/L","stnrlo":"150","stnrhi":"400","nrind":"NORMAL","fast":null,"dtc":"2024-04-06","dy":"13","visit":"C1D15","visitnum":"3.0","epoch":"TREATMENT","spec":null,"method":null},{"seq":"21","testcd":"WBC","test":"Leukocytes","cat":"HEMATOLOGY","orres":"11.89","orresu":"10^9/L","stresc":"11.89","stresn":"11.89","stresu":"10^9/L","stnrlo":"4.0","stnrhi":"11.0","nrind":"HIGH","fast":null,"dtc":"2024-04-06","dy":"13","visit":"C1D15","visitnum":"3.0","epoch":"TREATMENT","spec":null,"method":null},{"seq":"22","testcd":"ALT","test":"Alanine Aminotransferase","cat":"CHEMISTRY","orres":"20.46","orresu":"U/L","stresc":"20.46","stresn":"20.46","stresu":"U/L","stnrlo":"7","stnrhi":"56","nrind":"NORMAL","fast":null,"dtc":"2024-04-24","dy":"31","visit":"C2D1","visitnum":"4.0","epoch":"TREATMENT","spec":null,"method":null},{"seq":"23","testcd":"AST","test":"Aspartate Aminotransferase","cat":"CHEMISTRY","orres":"22.26","orresu":"U/L","stresc":"22.26","stresn":"22.26","stresu":"U/L","stnrlo":"10","stnrhi":"40","nrind":"NORMAL","fast":null,"dtc":"2024-04-24","dy":"31","visit":"C2D1","visitnum":"4.0","epoch":"TREATMENT","spec":null,"method":null},{"seq":"24","testcd":"CREAT","test":"Creatinine","cat":"CHEMISTRY","orres":"63.59","orresu":"umol/L","stresc":"63.59","stresn":"63.59","stresu":"umol/L","stnrlo":"44","stnrhi":"80","nrind":"NORMAL","fast":null,"dtc":"2024-04-24","dy":"31","visit":"C2D1","visitnum":"4.0","epoch":"TREATMENT","spec":null,"method":null},{"seq":"25","testcd":"GLUC","test":"Glucose","cat":"CHEMISTRY","orres":"3.87","orresu":"mmol/L","stresc":"3.87","stresn":"3.87","stresu":"mmol/L","stnrlo":"3.9","stnrhi":"5.6","nrind":"LOW","fast":null,"dtc":"2024-04-24","dy":"31","visit":"C2D1","visitnum":"4.0","epoch":"TREATMENT","spec":null,"method":null},{"seq":"26","testcd":"HGB","test":"Hemoglobin","cat":"HEMATOLOGY","orres":"150.79","orresu":"g/L","stresc":"150.79","stresn":"150.79","stresu":"g/L","stnrlo":"120","stnrhi":"155","nrind":"NORMAL","fast":null,"dtc":"2024-04-24","dy":"31","visit":"C2D1","visitnum":"4.0","epoch":"TREATMENT","spec":null,"method":null},{"seq":"27","testcd":"PLAT","test":"Platelets","cat":"HEMATOLOGY","orres":"244.64","orresu":"10^9/L","stresc":"244.64","stresn":"244.64","stresu":"10^9/L","stnrlo":"150","stnrhi":"400","nrind":"NORMAL","fast":null,"dtc":"2024-04-24","dy":"31","visit":"C2D1","visitnum":"4.0","epoch":"TREATMENT","spec":null,"method":null},{"seq":"28","testcd":"WBC","test":"Leukocytes","cat":"HEMATOLOGY","orres":"11.06","orresu":"10^9/L","stresc":"11.06","stresn":"11.06","stresu":"10^9/L","stnrlo":"4.0","stnrhi":"11.0","nrind":"HIGH","fast":null,"dtc":"2024-04-24","dy":"31","visit":"C2D1","visitnum":"4.0","epoch":"TREATMENT","spec":null,"method":null},{"seq":"29","testcd":"ALT","test":"Alanine Aminotransferase","cat":"CHEMISTRY","orres":"19.19","orresu":"U/L","stresc":"19.19","stresn":"19.19","stresu":"U/L","stnrlo":"7","stnrhi":"56","nrind":"NORMAL","fast":null,"dtc":"2024-05-21","dy":"58","visit":"C3D1","visitnum":"5.0","epoch":"TREATMENT","spec":null,"method":null},{"seq":"30","testcd":"AST","test":"Aspartate Aminotransferase","cat":"CHEMISTRY","orres":"19.34","orresu":"U/L","stresc":"19.34","stresn":"19.34","stresu":"U/L","stnrlo":"10","stnrhi":"40","nrind":"NORMAL","fast":null,"dtc":"2024-05-21","dy":"58","visit":"C3D1","visitnum":"5.0","epoch":"TREATMENT","spec":null,"method":null},{"seq":"31","testcd":"CREAT","test":"Creatinine","cat":"CHEMISTRY","orres":"63.11","orresu":"umol/L","stresc":"63.11","stresn":"63.11","stresu":"umol/L","stnrlo":"44","stnrhi":"80","nrind":"NORMAL","fast":null,"dtc":"2024-05-21","dy":"58","visit":"C3D1","visitnum":"5.0","epoch":"TREATMENT","spec":null,"method":null},{"seq":"32","testcd":"GLUC","test":"Glucose","cat":"CHEMISTRY","orres":"3.84","orresu":"mmol/L","stresc":"3.84","stresn":"3.84","stresu":"mmol/L","stnrlo":"3.9","stnrhi":"5.6","nrind":"LOW","fast":null,"dtc":"2024-05-21","dy":"58","visit":"C3D1","visitnum":"5.0","epoch":"TREATMENT","spec":null,"method":null},{"seq":"33","testcd":"HGB","test":"Hemoglobin","cat":"HEMATOLOGY","orres":"149.38","orresu":"g/L","stresc":"149.38","stresn":"149.38","stresu":"g/L","stnrlo":"120","stnrhi":"155","nrind":"NORMAL","fast":null,"dtc":"2024-05-21","dy":"58","visit":"C3D1","visitnum":"5.0","epoch":"TREATMENT","spec":null,"method":null},{"seq":"34","testcd":"PLAT","test":"Platelets","cat":"HEMATOLOGY","orres":"250.48","orresu":"10^9/L","stresc":"250.48","stresn":"250.48","stresu":"10^9/L","stnrlo":"150","stnrhi":"400","nrind":"NORMAL","fast":null,"dtc":"2024-05-21","dy":"58","visit":"C3D1","visitnum":"5.0","epoch":"TREATMENT","spec":null,"method":null},{"seq":"35","testcd":"WBC","test":"Leukocytes","cat":"HEMATOLOGY","orres":null,"orresu":null,"stresc":null,"stresn":null,"stresu":null,"stnrlo":null,"stnrhi":null,"nrind":null,"fast":null,"dtc":"2024-05-21","dy":"58","visit":"C3D1","visitnum":"5.0","epoch":"TREATMENT","spec":null,"method":null},{"seq":"36","testcd":"ALT","test":"Alanine Aminotransferase","cat":"CHEMISTRY","orres":"18.37","orresu":"U/L","stresc":"18.37","stresn":"18.37","stresu":"U/L","stnrlo":"7","stnrhi":"56","nrind":"NORMAL","fast":null,"dtc":"2024-08-13","dy":"142","visit":"C6D1","visitnum":"7.0","epoch":"TREATMENT","spec":null,"method":null},{"seq":"37","testcd":"AST","test":"Aspartate Aminotransferase","cat":"CHEMISTRY","orres":"18.89","orresu":"U/L","stresc":"18.89","stresn":"18.89","stresu":"U/L","stnrlo":"10","stnrhi":"40","nrind":"NORMAL","fast":null,"dtc":"2024-08-13","dy":"142","visit":"C6D1","visitnum":"7.0","epoch":"TREATMENT","spec":null,"method":null},{"seq":"38","testcd":"CREAT","test":"Creatinine","cat":"CHEMISTRY","orres":"64.79","orresu":"umol/L","stresc":"64.79","stresn":"64.79","stresu":"umol/L","stnrlo":"44","stnrhi":"80","nrind":"NORMAL","fast":null,"dtc":"2024-08-13","dy":"142","visit":"C6D1","visitnum":"7.0","epoch":"TREATMENT","spec":null,"method":null},{"seq":"39","testcd":"GLUC","test":"Glucose","cat":"CHEMISTRY","orres":"3.81","orresu":"mmol/L","stresc":"3.81","stresn":"3.81","stresu":"mmol/L","stnrlo":"3.9","stnrhi":"5.6","nrind":"LOW","fast":null,"dtc":"2024-08-13","dy":"142","visit":"C6D1","visitnum":"7.0","epoch":"TREATMENT","spec":null,"method":null},{"seq":"40","testcd":"HGB","test":"Hemoglobin","cat":"HEMATOLOGY","orres":"148.98","orresu":"g/L","stresc":"148.98","stresn":"148.98","stresu":"g/L","stnrlo":"120","stnrhi":"155","nrind":"NORMAL","fast":null,"dtc":"2024-08-13","dy":"142","visit":"C6D1","visitnum":"7.0","epoch":"TREATMENT","spec":null,"method":null},{"seq":"41","testcd":"PLAT","test":"Platelets","cat":"HEMATOLOGY","orres":"254.13","orresu":"10^9/L","stresc":"254.13","stresn":"254.13","stresu":"10^9/L","stnrlo":"150","stnrhi":"400","nrind":"NORMAL","fast":null,"dtc":"2024-08-13","dy":"142","visit":"C6D1","visitnum":"7.0","epoch":"TREATMENT","spec":null,"method":null},{"seq":"42","testcd":"WBC","test":"Leukocytes","cat":"HEMATOLOGY","orres":"11.52","orresu":"10^9/L","stresc":"11.52","stresn":"11.52","stresu":"10^9/L","stnrlo":"4.0","stnrhi":"11.0","nrind":"HIGH","fast":null,"dtc":"2024-08-13","dy":"142","visit":"C6D1","visitnum":"7.0","epoch":"TREATMENT","spec":null,"method":null},{"seq":"43","testcd":"ALT","test":"Alanine Aminotransferase","cat":"CHEMISTRY","orres":"18.6","orresu":"U/L","stresc":"18.6","stresn":"18.6","stresu":"U/L","stnrlo":"7","stnrhi":"56","nrind":"NORMAL","fast":null,"dtc":"2024-09-15","dy":"175","visit":"EOT","visitnum":"8.0","epoch":"TREATMENT","spec":null,"method":null},{"seq":"44","testcd":"AST","test":"Aspartate Aminotransferase","cat":"CHEMISTRY","orres":"18.6","orresu":"U/L","stresc":"18.6","stresn":"18.6","stresu":"U/L","stnrlo":"10","stnrhi":"40","nrind":"NORMAL","fast":null,"dtc":"2024-09-15","dy":"175","visit":"EOT","visitnum":"8.0","epoch":"TREATMENT","spec":null,"method":null},{"seq":"45","testcd":"CREAT","test":"Creatinine","cat":"CHEMISTRY","orres":"66.68","orresu":"umol/L","stresc":"66.68","stresn":"66.68","stresu":"umol/L","stnrlo":"44","stnrhi":"80","nrind":"NORMAL","fast":null,"dtc":"2024-09-15","dy":"175","visit":"EOT","visitnum":"8.0","epoch":"TREATMENT","spec":null,"method":null},{"seq":"46","testcd":"GLUC","test":"Glucose","cat":"CHEMISTRY","orres":null,"orresu":null,"stresc":null,"stresn":null,"stresu":null,"stnrlo":null,"stnrhi":null,"nrind":null,"fast":null,"dtc":"2024-09-15","dy":"175","visit":"EOT","visitnum":"8.0","epoch":"TREATMENT","spec":null,"method":null},{"seq":"47","testcd":"HGB","test":"Hemoglobin","cat":"HEMATOLOGY","orres":"148.34","orresu":"g/L","stresc":"148.34","stresn":"148.34","stresu":"g/L","stnrlo":"120","stnrhi":"155","nrind":"NORMAL","fast":null,"dtc":"2024-09-15","dy":"175","visit":"EOT","visitnum":"8.0","epoch":"TREATMENT","spec":null,"method":null},{"seq":"48","testcd":"PLAT","test":"Platelets","cat":"HEMATOLOGY","orres":"264.25","orresu":"10^9/L","stresc":"264.25","stresn":"264.25","stresu":"10^9/L","stnrlo":"150","stnrhi":"400","nrind":"NORMAL","fast":null,"dtc":"2024-09-15","dy":"175","visit":"EOT","visitnum":"8.0","epoch":"TREATMENT","spec":null,"method":null},{"seq":"49","testcd":"WBC","test":"Leukocytes","cat":"HEMATOLOGY","orres":"10.84","orresu":"10^9/L","stresc":"10.84","stresn":"10.84","stresu":"10^9/L","stnrlo":"4.0","stnrhi":"11.0","nrind":"NORMAL","fast":null,"dtc":"2024-09-15","dy":"175","visit":"EOT","visitnum":"8.0","epoch":"TREATMENT","spec":null,"method":null},{"seq":"50","testcd":"ALT","test":"Alanine Aminotransferase","cat":"CHEMISTRY","orres":null,"orresu":null,"stresc":null,"stresn":null,"stresu":null,"stnrlo":null,"stnrhi":null,"nrind":null,"fast":null,"dtc":"2024-10-11","dy":"201","visit":"FOLLOW-UP","visitnum":"9.0","epoch":"FOLLOW-UP","spec":null,"method":null},{"seq":"51","testcd":"AST","test":"Aspartate Aminotransferase","cat":"CHEMISTRY","orres":"18.15","orresu":"U/L","stresc":"18.15","stresn":"18.15","stresu":"U/L","stnrlo":"10","stnrhi":"40","nrind":"NORMAL","fast":null,"dtc":"2024-10-11","dy":"201","visit":"FOLLOW-UP","visitnum":"9.0","epoch":"FOLLOW-UP","spec":null,"method":null},{"seq":"52","testcd":"CREAT","test":"Creatinine","cat":"CHEMISTRY","orres":"65.75","orresu":"umol/L","stresc":"65.75","stresn":"65.75","stresu":"umol/L","stnrlo":"44","stnrhi":"80","nrind":"NORMAL","fast":null,"dtc":"2024-10-11","dy":"201","visit":"FOLLOW-UP","visitnum":"9.0","epoch":"FOLLOW-UP","spec":null,"method":null},{"seq":"53","testcd":"GLUC","test":"Glucose","cat":"CHEMISTRY","orres":"4.08","orresu":"mmol/L","stresc":"4.08","stresn":"4.08","stresu":"mmol/L","stnrlo":"3.9","stnrhi":"5.6","nrind":"NORMAL","fast":null,"dtc":"2024-10-11","dy":"201","visit":"FOLLOW-UP","visitnum":"9.0","epoch":"FOLLOW-UP","spec":null,"method":null},{"seq":"54","testcd":"HGB","test":"Hemoglobin","cat":"HEMATOLOGY","orres":"148.11","orresu":"g/L","stresc":"148.11","stresn":"148.11","stresu":"g/L","stnrlo":"120","stnrhi":"155","nrind":"NORMAL","fast":null,"dtc":"2024-10-11","dy":"201","visit":"FOLLOW-UP","visitnum":"9.0","epoch":"FOLLOW-UP","spec":null,"method":null},{"seq":"55","testcd":"PLAT","test":"Platelets","cat":"HEMATOLOGY","orres":"264.61","orresu":"10^9/L","stresc":"264.61","stresn":"264.61","stresu":"10^9/L","stnrlo":"150","stnrhi":"400","nrind":"NORMAL","fast":null,"dtc":"2024-10-11","dy":"201","visit":"FOLLOW-UP","visitnum":"9.0","epoch":"FOLLOW-UP","spec":null,"method":null},{"seq":"56","testcd":"WBC","test":"Leukocytes","cat":"HEMATOLOGY","orres":"10.7","orresu":"10^9/L","stresc":"10.7","stresn":"10.7","stresu":"10^9/L","stnrlo":"4.0","stnrhi":"11.0","nrind":"NORMAL","fast":null,"dtc":"2024-10-11","dy":"201","visit":"FOLLOW-UP","visitnum":"9.0","epoch":"FOLLOW-UP","spec":null,"method":null}]},"section_9_vital_signs":{"summary":{"total_records":71},"trends":{"BMI":[{"visit":"SCREENING","visitnum":"1.0","dtc":"2024-03-15","value":"22.5","unit":"kg/m2"},{"visit":"C1D1","visitnum":"2.0","dtc":"2024-03-25","value":"22.4","unit":"kg/m2"},{"visit":"C1D15","visitnum":"3.0","dtc":"2024-04-06","value":"22.4","unit":"kg/m2"},{"visit":"C2D1","visitnum":"4.0","dtc":"2024-04-24","value":"21.1","unit":"kg/m2"},{"visit":"C3D1","visitnum":"5.0","dtc":"2024-05-21","value":"22.2","unit":"kg/m2"},{"visit":"C4D1","visitnum":"6.0","dtc":"2024-06-18","value":"23.0","unit":"kg/m2"},{"visit":"C6D1","visitnum":"7.0","dtc":"2024-08-13","value":"22.3","unit":"kg/m2"},{"visit":"FOLLOW-UP","visitnum":"9.0","dtc":"2024-10-11","value":"21.8","unit":"kg/m2"}],"DIABP":[{"visit":"SCREENING","visitnum":"1.0","dtc":"2024-03-15","value":"71.2","unit":"mmHg"},{"visit":"C1D1","visitnum":"2.0","dtc":"2024-03-25","value":"71.4","unit":"mmHg"},{"visit":"C1D15","visitnum":"3.0","dtc":"2024-04-06","value":"71.8","unit":"mmHg"},{"visit":"C2D1","visitnum":"4.0","dtc":"2024-04-24","value":"71.0","unit":"mmHg"},{"visit":"C3D1","visitnum":"5.0","dtc":"2024-05-21","value":"71.7","unit":"mmHg"},{"visit":"C4D1","visitnum":"6.0","dtc":"2024-06-18","value":"70.2","unit":"mmHg"},{"visit":"C6D1","visitnum":"7.0","dtc":"2024-08-13","value":"72.4","unit":"mmHg"},{"visit":"EOT","visitnum":"8.0","dtc":"2024-09-15","value":"73.0","unit":"mmHg"},{"visit":"FOLLOW-UP","visitnum":"9.0","dtc":"2024-10-11","value":"70.0","unit":"mmHg"}],"HEIGHT":[{"visit":"SCREENING","visitnum":"1.0","dtc":"2024-03-15","value":"159.0","unit":"cm"},{"visit":"C1D1","visitnum":"2.0","dtc":"2024-03-25","value":"160.2","unit":"cm"},{"visit":"C1D15","visitnum":"3.0","dtc":"2024-04-06","value":"160.1","unit":"cm"},{"visit":"C2D1","visitnum":"4.0","dtc":"2024-04-24","value":"160.1","unit":"cm"},{"visit":"C3D1","visitnum":"5.0","dtc":"2024-05-21","value":"159.8","unit":"cm"},{"visit":"C4D1","visitnum":"6.0","dtc":"2024-06-18","value":"160.0","unit":"cm"},{"visit":"C6D1","visitnum":"7.0","dtc":"2024-08-13","value":"160.4","unit":"cm"},{"visit":"EOT","visitnum":"8.0","dtc":"2024-09-15","value":"160.5","unit":"cm"},{"visit":"FOLLOW-UP","visitnum":"9.0","dtc":"2024-10-11","value":"160.9","unit":"cm"}],"PULSE":[{"visit":"SCREENING","visitnum":"1.0","dtc":"2024-03-15","value":"73.9","unit":"beats/min"},{"visit":"C1D1","visitnum":"2.0","dtc":"2024-03-25","value":"77.1","unit":"beats/min"},{"visit":"C1D15","visitnum":"3.0","dtc":"2024-04-06","value":"73.0","unit":"beats/min"},{"visit":"C2D1","visitnum":"4.0","dtc":"2024-04-24","value":"73.0","unit":"beats/min"},{"visit":"C3D1","visitnum":"5.0","dtc":"2024-05-21","value":"72.2","unit":"beats/min"},{"visit":"C4D1","visitnum":"6.0","dtc":"2024-06-18","value":"69.9","unit":"beats/min"},{"visit":"C6D1","visitnum":"7.0","dtc":"2024-08-13","value":"68.7","unit":"beats/min"},{"visit":"EOT","visitnum":"8.0","dtc":"2024-09-15","value":"70.1","unit":"beats/min"},{"visit":"FOLLOW-UP","visitnum":"9.0","dtc":"2024-10-11","value":"68.4","unit":"beats/min"}],"RESP":[{"visit":"SCREENING","visitnum":"1.0","dtc":"2024-03-15","value":"14.4","unit":"breaths/min"},{"visit":"C1D1","visitnum":"2.0","dtc":"2024-03-25","value":"14.0","unit":"breaths/min"},{"visit":"C1D15","visitnum":"3.0","dtc":"2024-04-06","value":"16.4","unit":"breaths/min"},{"visit":"C3D1","visitnum":"5.0","dtc":"2024-05-21","value":"17.7","unit":"breaths/min"},{"visit":"C4D1","visitnum":"6.0","dtc":"2024-06-18","value":"16.9","unit":"breaths/min"},{"visit":"C6D1","visitnum":"7.0","dtc":"2024-08-13","value":"17.0","unit":"breaths/min"},{"visit":"EOT","visitnum":"8.0","dtc":"2024-09-15","value":"15.3","unit":"breaths/min"},{"visit":"FOLLOW-UP","visitnum":"9.0","dtc":"2024-10-11","value":"15.3","unit":"breaths/min"}],"SYSBP":[{"visit":"C1D1","visitnum":"2.0","dtc":"2024-03-25","value":"117.3","unit":"mmHg"},{"visit":"C1D15","visitnum":"3.0","dtc":"2024-04-06","value":"117.6","unit":"mmHg"},{"visit":"C2D1","visitnum":"4.0","dtc":"2024-04-24","value":"116.5","unit":"mmHg"},{"visit":"C3D1","visitnum":"5.0","dtc":"2024-05-21","value":"119.2","unit":"mmHg"},{"visit":"C4D1","visitnum":"6.0","dtc":"2024-06-18","value":"119.4","unit":"mmHg"},{"visit":"C6D1","visitnum":"7.0","dtc":"2024-08-13","value":"122.2","unit":"mmHg"},{"visit":"EOT","visitnum":"8.0","dtc":"2024-09-15","value":"125.3","unit":"mmHg"},{"visit":"FOLLOW-UP","visitnum":"9.0","dtc":"2024-10-11","value":"121.7","unit":"mmHg"}],"TEMP":[{"visit":"SCREENING","visitnum":"1.0","dtc":"2024-03-15","value":"37.0","unit":"C"},{"visit":"C1D1","visitnum":"2.0","dtc":"2024-03-25","value":"36.8","unit":"C"},{"visit":"C1D15","visitnum":"3.0","dtc":"2024-04-06","value":"36.7","unit":"C"},{"visit":"C2D1","visitnum":"4.0","dtc":"2024-04-24","value":"36.9","unit":"C"},{"visit":"C3D1","visitnum":"5.0","dtc":"2024-05-21","value":"36.9","unit":"C"},{"visit":"C4D1","visitnum":"6.0","dtc":"2024-06-18","value":"37.0","unit":"C"},{"visit":"C6D1","visitnum":"7.0","dtc":"2024-08-13","value":"37.1","unit":"C"},{"visit":"EOT","visitnum":"8.0","dtc":"2024-09-15","value":"36.8","unit":"C"},{"visit":"FOLLOW-UP","visitnum":"9.0","dtc":"2024-10-11","value":"36.8","unit":"C"}],"WEIGHT":[{"visit":"SCREENING","visitnum":"1.0","dtc":"2024-03-15","value":"57.0","unit":"kg"},{"visit":"C1D1","visitnum":"2.0","dtc":"2024-03-25","value":"57.6","unit":"kg"},{"visit":"C1D15","visitnum":"3.0","dtc":"2024-04-06","value":"57.5","unit":"kg"},{"visit":"C2D1","visitnum":"4.0","dtc":"2024-04-24","value":"54.2","unit":"kg"},{"visit":"C3D1","visitnum":"5.0","dtc":"2024-05-21","value":"56.6","unit":"kg"},{"visit":"C4D1","visitnum":"6.0","dtc":"2024-06-18","value":"58.8","unit":"kg"},{"visit":"C6D1","visitnum":"7.0","dtc":"2024-08-13","value":"57.4","unit":"kg"},{"visit":"FOLLOW-UP","visitnum":"9.0","dtc":"2024-10-11","value":"56.4","unit":"kg"}]},"results":[{"seq":"1","testcd":"BMI","test":"BMI","cat":null,"orres":"22.5","orresu":"kg/m2","stresc":"22.5","stresn":"22.5","stresu":"kg/m2","stnrlo":null,"stnrhi":null,"nrind":null,"pos":null,"loc":null,"dtc":"2024-03-15","dy":"-10","visit":"SCREENING","visitnum":"1.0","epoch":"SCREENING"},{"seq":"2","testcd":"DIABP","test":"Diastolic Blood Pressure","cat":null,"orres":"71.2","orresu":"mmHg","stresc":"71.2","stresn":"71.2","stresu":"mmHg","stnrlo":null,"stnrhi":null,"nrind":null,"pos":null,"loc":null,"dtc":"2024-03-15","dy":"-10","visit":"SCREENING","visitnum":"1.0","epoch":"SCREENING"},{"seq":"3","testcd":"HEIGHT","test":"Height","cat":null,"orres":"159.0","orresu":"cm","stresc":"159.0","stresn":"159.0","stresu":"cm","stnrlo":null,"stnrhi":null,"nrind":null,"pos":null,"loc":null,"dtc":"2024-03-15","dy":"-10","visit":"SCREENING","visitnum":"1.0","epoch":"SCREENING"},{"seq":"4","testcd":"PULSE","test":"Pulse Rate","cat":null,"orres":"73.9","orresu":"beats/min","stresc":"73.9","stresn":"73.9","stresu":"beats/min","stnrlo":null,"stnrhi":null,"nrind":null,"pos":null,"loc":null,"dtc":"2024-03-15","dy":"-10","visit":"SCREENING","visitnum":"1.0","epoch":"SCREENING"},{"seq":"5","testcd":"RESP","test":"Respiratory Rate","cat":null,"orres":"14.4","orresu":"breaths/min","stresc":"14.4","stresn":"14.4","stresu":"breaths/min","stnrlo":null,"stnrhi":null,"nrind":null,"pos":null,"loc":null,"dtc":"2024-03-15","dy":"-10","visit":"SCREENING","visitnum":"1.0","epoch":"SCREENING"},{"seq":"6","testcd":"SYSBP","test":"Systolic Blood Pressure","cat":null,"orres":null,"orresu":null,"stresc":null,"stresn":null,"stresu":null,"stnrlo":null,"stnrhi":null,"nrind":null,"pos":null,"loc":null,"dtc":"2024-03-15","dy":"-10","visit":"SCREENING","visitnum":"1.0","epoch":"SCREENING"},{"seq":"7","testcd":"TEMP","test":"Temperature","cat":null,"orres":"37.0","orresu":"C","stresc":"37.0","stresn":"37.0","stresu":"C","stnrlo":null,"stnrhi":null,"nrind":null,"pos":null,"loc":null,"dtc":"2024-03-15","dy":"-10","visit":"SCREENING","visitnum":"1.0","epoch":"SCREENING"},{"seq":"8","testcd":"WEIGHT","test":"Weight","cat":null,"orres":"57.0","orresu":"kg","stresc":"57.0","stresn":"57.0","stresu":"kg","stnrlo":null,"stnrhi":null,"nrind":null,"pos":null,"loc":null,"dtc":"2024-03-15","dy":"-10","visit":"SCREENING","visitnum":"1.0","epoch":"SCREENING"},{"seq":"9","testcd":"BMI","test":"BMI","cat":null,"orres":"22.4","orresu":"kg/m2","stresc":"22.4","stresn":"22.4","stresu":"kg/m2","stnrlo":null,"stnrhi":null,"nrind":null,"pos":null,"loc":null,"dtc":"2024-03-25","dy":"1","visit":"C1D1","visitnum":"2.0","epoch":"TREATMENT"},{"seq":"10","testcd":"DIABP","test":"Diastolic Blood Pressure","cat":null,"orres":"71.4","orresu":"mmHg","stresc":"71.4","stresn":"71.4","stresu":"mmHg","stnrlo":null,"stnrhi":null,"nrind":null,"pos":null,"loc":null,"dtc":"2024-03-25","dy":"1","visit":"C1D1","visitnum":"2.0","epoch":"TREATMENT"},{"seq":"11","testcd":"HEIGHT","test":"Height","cat":null,"orres":"160.2","orresu":"cm","stresc":"160.2","stresn":"160.2","stresu":"cm","stnrlo":null,"stnrhi":null,"nrind":null,"pos":null,"loc":null,"dtc":"2024-03-25","dy":"1","visit":"C1D1","visitnum":"2.0","epoch":"TREATMENT"},{"seq":"12","testcd":"PULSE","test":"Pulse Rate","cat":null,"orres":"77.1","orresu":"beats/min","stresc":"77.1","stresn":"77.1","stresu":"beats/min","stnrlo":null,"stnrhi":null,"nrind":null,"pos":null,"loc":null,"dtc":"2024-03-25","dy":"1","visit":"C1D1","visitnum":"2.0","epoch":"TREATMENT"},{"seq":"13","testcd":"RESP","test":"Respiratory Rate","cat":null,"orres":"14.0","orresu":"breaths/min","stresc":"14.0","stresn":"14.0","stresu":"breaths/min","stnrlo":null,"stnrhi":null,"nrind":null,"pos":null,"loc":null,"dtc":"2024-03-25","dy":"1","visit":"C1D1","visitnum":"2.0","epoch":"TREATMENT"},{"seq":"14","testcd":"SYSBP","test":"Systolic Blood Pressure","cat":null,"orres":"117.3","orresu":"mmHg","stresc":"117.3","stresn":"117.3","stresu":"mmHg","stnrlo":null,"stnrhi":null,"nrind":null,"pos":null,"loc":null,"dtc":"2024-03-25","dy":"1","visit":"C1D1","visitnum":"2.0","epoch":"TREATMENT"},{"seq":"15","testcd":"TEMP","test":"Temperature","cat":null,"orres":"36.8","orresu":"C","stresc":"36.8","stresn":"36.8","stresu":"C","stnrlo":null,"stnrhi":null,"nrind":null,"pos":null,"loc":null,"dtc":"2024-03-25","dy":"1","visit":"C1D1","visitnum":"2.0","epoch":"TREATMENT"},{"seq":"16","testcd":"WEIGHT","test":"Weight","cat":null,"orres":"57.6","orresu":"kg","stresc":"57.6","stresn":"57.6","stresu":"kg","stnrlo":null,"stnrhi":null,"nrind":null,"pos":null,"loc":null,"dtc":"2024-03-25","dy":"1","visit":"C1D1","visitnum":"2.0","epoch":"TREATMENT"},{"seq":"17","testcd":"BMI","test":"BMI","cat":null,"orres":"22.4","orresu":"kg/m2","stresc":"22.4","stresn":"22.4","stresu":"kg/m2","stnrlo":null,"stnrhi":null,"nrind":null,"pos":null,"loc":null,"dtc":"2024-04-06","dy":"13","visit":"C1D15","visitnum":"3.0","epoch":"TREATMENT"},{"seq":"18","testcd":"DIABP","test":"Diastolic Blood Pressure","cat":null,"orres":"71.8","orresu":"mmHg","stresc":"71.8","stresn":"71.8","stresu":"mmHg","stnrlo":null,"stnrhi":null,"nrind":null,"pos":null,"loc":null,"dtc":"2024-04-06","dy":"13","visit":"C1D15","visitnum":"3.0","epoch":"TREATMENT"},{"seq":"19","testcd":"HEIGHT","test":"Height","cat":null,"orres":"160.1","orresu":"cm","stresc":"160.1","stresn":"160.1","stresu":"cm","stnrlo":null,"stnrhi":null,"nrind":null,"pos":null,"loc":null,"dtc":"2024-04-06","dy":"13","visit":"C1D15","visitnum":"3.0","epoch":"TREATMENT"},{"seq":"20","testcd":"PULSE","test":"Pulse Rate","cat":null,"orres":"73.0","orresu":"beats/min","stresc":"73.0","stresn":"73.0","stresu":"beats/min","stnrlo":null,"stnrhi":null,"nrind":null,"pos":null,"loc":null,"dtc":"2024-04-06","dy":"13","visit":"C1D15","visitnum":"3.0","epoch":"TREATMENT"},{"seq":"21","testcd":"RESP","test":"Respiratory Rate","cat":null,"orres":"16.4","orresu":"breaths/min","stresc":"16.4","stresn":"16.4","stresu":"breaths/min","stnrlo":null,"stnrhi":null,"nrind":null,"pos":null,"loc":null,"dtc":"2024-04-06","dy":"13","visit":"C1D15","visitnum":"3.0","epoch":"TREATMENT"},{"seq":"22","testcd":"SYSBP","test":"Systolic Blood Pressure","cat":null,"orres":"117.6","orresu":"mmHg","stresc":"117.6","stresn":"117.6","stresu":"mmHg","stnrlo":null,"stnrhi":null,"nrind":null,"pos":null,"loc":null,"dtc":"2024-04-06","dy":"13","visit":"C1D15","visitnum":"3.0","epoch":"TREATMENT"},{"seq":"23","testcd":"TEMP","test":"Temperature","cat":null,"orres":"36.7","orresu":"C","stresc":"36.7","stresn":"36.7","stresu":"C","stnrlo":null,"stnrhi":null,"nrind":null,"pos":null,"loc":null,"dtc":"2024-04-06","dy":"13","visit":"C1D15","visitnum":"3.0","epoch":"TREATMENT"},{"seq":"24","testcd":"WEIGHT","test":"Weight","cat":null,"orres":"57.5","orresu":"kg","stresc":"57.5","stresn":"57.5","stresu":"kg","stnrlo":null,"stnrhi":null,"nrind":null,"pos":null,"loc":null,"dtc":"2024-04-06","dy":"13","visit":"C1D15","visitnum":"3.0","epoch":"TREATMENT"},{"seq":"25","testcd":"BMI","test":"BMI","cat":null,"orres":"21.1","orresu":"kg/m2","stresc":"21.1","stresn":"21.1","stresu":"kg/m2","stnrlo":null,"stnrhi":null,"nrind":null,"pos":null,"loc":null,"dtc":"2024-04-24","dy":"31","visit":"C2D1","visitnum":"4.0","epoch":"TREATMENT"},{"seq":"26","testcd":"DIABP","test":"Diastolic Blood Pressure","cat":null,"orres":"71.0","orresu":"mmHg","stresc":"71.0","stresn":"71.0","stresu":"mmHg","stnrlo":null,"stnrhi":null,"nrind":null,"pos":null,"loc":null,"dtc":"2024-04-24","dy":"31","visit":"C2D1","visitnum":"4.0","epoch":"TREATMENT"},{"seq":"27","testcd":"HEIGHT","test":"Height","cat":null,"orres":"160.1","orresu":"cm","stresc":"160.1","stresn":"160.1","stresu":"cm","stnrlo":null,"stnrhi":null,"nrind":null,"pos":null,"loc":null,"dtc":"2024-04-24","dy":"31","visit":"C2D1","visitnum":"4.0","epoch":"TREATMENT"},{"seq":"28","testcd":"PULSE","test":"Pulse Rate","cat":null,"orres":"73.0","orresu":"beats/min","stresc":"73.0","stresn":"73.0","stresu":"beats/min","stnrlo":null,"stnrhi":null,"nrind":null,"pos":null,"loc":null,"dtc":"2024-04-24","dy":"31","visit":"C2D1","visitnum":"4.0","epoch":"TREATMENT"},{"seq":"29","testcd":"RESP","test":"Respiratory Rate","cat":null,"orres":null,"orresu":null,"stresc":null,"stresn":null,"stresu":null,"stnrlo":null,"stnrhi":null,"nrind":null,"pos":null,"loc":null,"dtc":"2024-04-24","dy":"31","visit":"C2D1","visitnum":"4.0","epoch":"TREATMENT"},{"seq":"30","testcd":"SYSBP","test":"Systolic Blood Pressure","cat":null,"orres":"116.5","orresu":"mmHg","stresc":"116.5","stresn":"116.5","stresu":"mmHg","stnrlo":null,"stnrhi":null,"nrind":null,"pos":null,"loc":null,"dtc":"2024-04-24","dy":"31","visit":"C2D1","visitnum":"4.0","epoch":"TREATMENT"},{"seq":"31","testcd":"TEMP","test":"Temperature","cat":null,"orres":"36.9","orresu":"C","stresc":"36.9","stresn":"36.9","stresu":"C","stnrlo":null,"stnrhi":null,"nrind":null,"pos":null,"loc":null,"dtc":"2024-04-24","dy":"31","visit":"C2D1","visitnum":"4.0","epoch":"TREATMENT"},{"seq":"32","testcd":"WEIGHT","test":"Weight","cat":null,"orres":"54.2","orresu":"kg","stresc":"54.2","stresn":"54.2","stresu":"kg","stnrlo":null,"stnrhi":null,"nrind":null,"pos":null,"loc":null,"dtc":"2024-04-24","dy":"31","visit":"C2D1","visitnum":"4.0","epoch":"TREATMENT"},{"seq":"33","testcd":"BMI","test":"BMI","cat":null,"orres":"22.2","orresu":"kg/m2","stresc":"22.2","stresn":"22.2","stresu":"kg/m2","stnrlo":null,"stnrhi":null,"nrind":null,"pos":null,"loc":null,"dtc":"2024-05-21","dy":"58","visit":"C3D1","visitnum":"5.0","epoch":"TREATMENT"},{"seq":"34","testcd":"DIABP","test":"Diastolic Blood Pressure","cat":null,"orres":"71.7","orresu":"mmHg","stresc":"71.7","stresn":"71.7","stresu":"mmHg","stnrlo":null,"stnrhi":null,"nrind":null,"pos":null,"loc":null,"dtc":"2024-05-21","dy":"58","visit":"C3D1","visitnum":"5.0","epoch":"TREATMENT"},{"seq":"35","testcd":"HEIGHT","test":"Height","cat":null,"orres":"159.8","orresu":"cm","stresc":"159.8","stresn":"159.8","stresu":"cm","stnrlo":null,"stnrhi":null,"nrind":null,"pos":null,"loc":null,"dtc":"2024-05-21","dy":"58","visit":"C3D1","visitnum":"5.0","epoch":"TREATMENT"},{"seq":"36","testcd":"PULSE","test":"Pulse Rate","cat":null,"orres":"72.2","orresu":"beats/min","stresc":"72.2","stresn":"72.2","stresu":"beats/min","stnrlo":null,"stnrhi":null,"nrind":null,"pos":null,"loc":null,"dtc":"2024-05-21","dy":"58","visit":"C3D1","visitnum":"5.0","epoch":"TREATMENT"},{"seq":"37","testcd":"RESP","test":"Respiratory Rate","cat":null,"orres":"17.7","orresu":"breaths/min","stresc":"17.7","stresn":"17.7","stresu":"breaths/min","stnrlo":null,"stnrhi":null,"nrind":null,"pos":null,"loc":null,"dtc":"2024-05-21","dy":"58","visit":"C3D1","visitnum":"5.0","epoch":"TREATMENT"},{"seq":"38","testcd":"SYSBP","test":"Systolic Blood Pressure","cat":null,"orres":"119.2","orresu":"mmHg","stresc":"119.2","stresn":"119.2","stresu":"mmHg","stnrlo":null,"stnrhi":null,"nrind":null,"pos":null,"loc":null,"dtc":"2024-05-21","dy":"58","visit":"C3D1","visitnum":"5.0","epoch":"TREATMENT"},{"seq":"39","testcd":"TEMP","test":"Temperature","cat":null,"orres":"36.9","orresu":"C","stresc":"36.9","stresn":"36.9","stresu":"C","stnrlo":null,"stnrhi":null,"nrind":null,"pos":null,"loc":null,"dtc":"2024-05-21","dy":"58","visit":"C3D1","visitnum":"5.0","epoch":"TREATMENT"},{"seq":"40","testcd":"WEIGHT","test":"Weight","cat":null,"orres":"56.6","orresu":"kg","stresc":"56.6","stresn":"56.6","stresu":"kg","stnrlo":null,"stnrhi":null,"nrind":null,"pos":null,"loc":null,"dtc":"2024-05-21","dy":"58","visit":"C3D1","visitnum":"5.0","epoch":"TREATMENT"},{"seq":"41","testcd":"BMI","test":"BMI","cat":null,"orres":"23.0","orresu":"kg/m2","stresc":"23.0","stresn":"23.0","stresu":"kg/m2","stnrlo":null,"stnrhi":null,"nrind":null,"pos":null,"loc":null,"dtc":"2024-06-18","dy":"86","visit":"C4D1","visitnum":"6.0","epoch":"TREATMENT"},{"seq":"42","testcd":"DIABP","test":"Diastolic Blood Pressure","cat":null,"orres":"70.2","orresu":"mmHg","stresc":"70.2","stresn":"70.2","stresu":"mmHg","stnrlo":null,"stnrhi":null,"nrind":null,"pos":null,"loc":null,"dtc":"2024-06-18","dy":"86","visit":"C4D1","visitnum":"6.0","epoch":"TREATMENT"},{"seq":"43","testcd":"HEIGHT","test":"Height","cat":null,"orres":"160.0","orresu":"cm","stresc":"160.0","stresn":"160.0","stresu":"cm","stnrlo":null,"stnrhi":null,"nrind":null,"pos":null,"loc":null,"dtc":"2024-06-18","dy":"86","visit":"C4D1","visitnum":"6.0","epoch":"TREATMENT"},{"seq":"44","testcd":"PULSE","test":"Pulse Rate","cat":null,"orres":"69.9","orresu":"beats/min","stresc":"69.9","stresn":"69.9","stresu":"beats/min","stnrlo":null,"stnrhi":null,"nrind":null,"pos":null,"loc":null,"dtc":"2024-06-18","dy":"86","visit":"C4D1","visitnum":"6.0","epoch":"TREATMENT"},{"seq":"45","testcd":"RESP","test":"Respiratory Rate","cat":null,"orres":"16.9","orresu":"breaths/min","stresc":"16.9","stresn":"16.9","stresu":"breaths/min","stnrlo":null,"stnrhi":null,"nrind":null,"pos":null,"loc":null,"dtc":"2024-06-18","dy":"86","visit":"C4D1","visitnum":"6.0","epoch":"TREATMENT"},{"seq":"46","testcd":"SYSBP","test":"Systolic Blood Pressure","cat":null,"orres":"119.4","orresu":"mmHg","stresc":"119.4","stresn":"119.4","stresu":"mmHg","stnrlo":null,"stnrhi":null,"nrind":null,"pos":null,"loc":null,"dtc":"2024-06-18","dy":"86","visit":"C4D1","visitnum":"6.0","epoch":"TREATMENT"},{"seq":"47","testcd":"TEMP","test":"Temperature","cat":null,"orres":"37.0","orresu":"C","stresc":"37.0","stresn":"37.0","stresu":"C","stnrlo":null,"stnrhi":null,"nrind":null,"pos":null,"loc":null,"dtc":"2024-06-18","dy":"86","visit":"C4D1","visitnum":"6.0","epoch":"TREATMENT"},{"seq":"48","testcd":"WEIGHT","test":"Weight","cat":null,"orres":"58.8","orresu":"kg","stresc":"58.8","stresn":"58.8","stresu":"kg","stnrlo":null,"stnrhi":null,"nrind":null,"pos":null,"loc":null,"dtc":"2024-06-18","dy":"86","visit":"C4D1","visitnum":"6.0","epoch":"TREATMENT"},{"seq":"49","testcd":"BMI","test":"BMI","cat":null,"orres":"22.3","orresu":"kg/m2","stresc":"22.3","stresn":"22.3","stresu":"kg/m2","stnrlo":null,"stnrhi":null,"nrind":null,"pos":null,"loc":null,"dtc":"2024-08-13","dy":"142","visit":"C6D1","visitnum":"7.0","epoch":"TREATMENT"},{"seq":"50","testcd":"DIABP","test":"Diastolic Blood Pressure","cat":null,"orres":"72.4","orresu":"mmHg","stresc":"72.4","stresn":"72.4","stresu":"mmHg","stnrlo":null,"stnrhi":null,"nrind":null,"pos":null,"loc":null,"dtc":"2024-08-13","dy":"142","visit":"C6D1","visitnum":"7.0","epoch":"TREATMENT"},{"seq":"51","testcd":"HEIGHT","test":"Height","cat":null,"orres":"160.4","orresu":"cm","stresc":"160.4","stresn":"160.4","stresu":"cm","stnrlo":null,"stnrhi":null,"nrind":null,"pos":null,"loc":null,"dtc":"2024-08-13","dy":"142","visit":"C6D1","visitnum":"7.0","epoch":"TREATMENT"},{"seq":"52","testcd":"PULSE","test":"Pulse Rate","cat":null,"orres":"68.7","orresu":"beats/min","stresc":"68.7","stresn":"68.7","stresu":"beats/min","stnrlo":null,"stnrhi":null,"nrind":null,"pos":null,"loc":null,"dtc":"2024-08-13","dy":"142","visit":"C6D1","visitnum":"7.0","epoch":"TREATMENT"},{"seq":"53","testcd":"RESP","test":"Respiratory Rate","cat":null,"orres":"17.0","orresu":"breaths/min","stresc":"17.0","stresn":"17.0","stresu":"breaths/min","stnrlo":null,"stnrhi":null,"nrind":null,"pos":null,"loc":null,"dtc":"2024-08-13","dy":"142","visit":"C6D1","visitnum":"7.0","epoch":"TREATMENT"},{"seq":"54","testcd":"SYSBP","test":"Systolic Blood Pressure","cat":null,"orres":"122.2","orresu":"mmHg","stresc":"122.2","stresn":"122.2","stresu":"mmHg","stnrlo":null,"stnrhi":null,"nrind":null,"pos":null,"loc":null,"dtc":"2024-08-13","dy":"142","visit":"C6D1","visitnum":"7.0","epoch":"TREATMENT"},{"seq":"55","testcd":"TEMP","test":"Temperature","cat":null,"orres":"37.1","orresu":"C","stresc":"37.1","stresn":"37.1","stresu":"C","stnrlo":null,"stnrhi":null,"nrind":null,"pos":null,"loc":null,"dtc":"2024-08-13","dy":"142","visit":"C6D1","visitnum":"7.0","epoch":"TREATMENT"},{"seq":"56","testcd":"WEIGHT","test":"Weight","cat":null,"orres":"57.4","orresu":"kg","stresc":"57.4","stresn":"57.4","stresu":"kg","stnrlo":null,"stnrhi":null,"nrind":null,"pos":null,"loc":null,"dtc":"2024-08-13","dy":"142","visit":"C6D1","visitnum":"7.0","epoch":"TREATMENT"},{"seq":"57","testcd":"DIABP","test":"Diastolic Blood Pressure","cat":null,"orres":"73.0","orresu":"mmHg","stresc":"73.0","stresn":"73.0","stresu":"mmHg","stnrlo":null,"stnrhi":null,"nrind":null,"pos":null,"loc":null,"dtc":"2024-09-15","dy":"175","visit":"EOT","visitnum":"8.0","epoch":"TREATMENT"},{"seq":"58","testcd":"HEIGHT","test":"Height","cat":null,"orres":"160.5","orresu":"cm","stresc":"160.5","stresn":"160.5","stresu":"cm","stnrlo":null,"stnrhi":null,"nrind":null,"pos":null,"loc":null,"dtc":"2024-09-15","dy":"175","visit":"EOT","visitnum":"8.0","epoch":"TREATMENT"},{"seq":"59","testcd":"PULSE","test":"Pulse Rate","cat":null,"orres":"70.1","orresu":"beats/min","stresc":"70.1","stresn":"70.1","stresu":"beats/min","stnrlo":null,"stnrhi":null,"nrind":null,"pos":null,"loc":null,"dtc":"2024-09-15","dy":"175","visit":"EOT","visitnum":"8.0","epoch":"TREATMENT"},{"seq":"60","testcd":"RESP","test":"Respiratory Rate","cat":null,"orres":"15.3","orresu":"breaths/min","stresc":"15.3","stresn":"15.3","stresu":"breaths/min","stnrlo":null,"stnrhi":null,"nrind":null,"pos":null,"loc":null,"dtc":"2024-09-15","dy":"175","visit":"EOT","visitnum":"8.0","epoch":"TREATMENT"},{"seq":"61","testcd":"SYSBP","test":"Systolic Blood Pressure","cat":null,"orres":"125.3","orresu":"mmHg","stresc":"125.3","stresn":"125.3","stresu":"mmHg","stnrlo":null,"stnrhi":null,"nrind":null,"pos":null,"loc":null,"dtc":"2024-09-15","dy":"175","visit":"EOT","visitnum":"8.0","epoch":"TREATMENT"},{"seq":"62","testcd":"TEMP","test":"Temperature","cat":null,"orres":"36.8","orresu":"C","stresc":"36.8","stresn":"36.8","stresu":"C","stnrlo":null,"stnrhi":null,"nrind":null,"pos":null,"loc":null,"dtc":"2024-09-15","dy":"175","visit":"EOT","visitnum":"8.0","epoch":"TREATMENT"},{"seq":"63","testcd":"WEIGHT","test":"Weight","cat":null,"orres":null,"orresu":null,"stresc":null,"stresn":null,"stresu":null,"stnrlo":null,"stnrhi":null,"nrind":null,"pos":null,"loc":null,"dtc":"2024-09-15","dy":"175","visit":"EOT","visitnum":"8.0","epoch":"TREATMENT"},{"seq":"64","testcd":"BMI","test":"BMI","cat":null,"orres":"21.8","orresu":"kg/m2","stresc":"21.8","stresn":"21.8","stresu":"kg/m2","stnrlo":null,"stnrhi":null,"nrind":null,"pos":null,"loc":null,"dtc":"2024-10-11","dy":"201","visit":"FOLLOW-UP","visitnum":"9.0","epoch":"FOLLOW-UP"},{"seq":"65","testcd":"DIABP","test":"Diastolic Blood Pressure","cat":null,"orres":"70.0","orresu":"mmHg","stresc":"70.0","stresn":"70.0","stresu":"mmHg","stnrlo":null,"stnrhi":null,"nrind":null,"pos":null,"loc":null,"dtc":"2024-10-11","dy":"201","visit":"FOLLOW-UP","visitnum":"9.0","epoch":"FOLLOW-UP"},{"seq":"66","testcd":"HEIGHT","test":"Height","cat":null,"orres":"160.9","orresu":"cm","stresc":"160.9","stresn":"160.9","stresu":"cm","stnrlo":null,"stnrhi":null,"nrind":null,"pos":null,"loc":null,"dtc":"2024-10-11","dy":"201","visit":"FOLLOW-UP","visitnum":"9.0","epoch":"FOLLOW-UP"},{"seq":"67","testcd":"PULSE","test":"Pulse Rate","cat":null,"orres":"68.4","orresu":"beats/min","stresc":"68.4","stresn":"68.4","stresu":"beats/min","stnrlo":null,"stnrhi":null,"nrind":null,"pos":null,"loc":null,"dtc":"2024-10-11","dy":"201","visit":"FOLLOW-UP","visitnum":"9.0","epoch":"FOLLOW-UP"},{"seq":"68","testcd":"RESP","test":"Respiratory Rate","cat":null,"orres":"15.3","orresu":"breaths/min","stresc":"15.3","stresn":"15.3","stresu":"breaths/min","stnrlo":null,"stnrhi":null,"nrind":null,"pos":null,"loc":null,"dtc":"2024-10-11","dy":"201","visit":"FOLLOW-UP","visitnum":"9.0","epoch":"FOLLOW-UP"},{"seq":"69","testcd":"SYSBP","test":"Systolic Blood Pressure","cat":null,"orres":"121.7","orresu":"mmHg","stresc":"121.7","stresn":"121.7","stresu":"mmHg","stnrlo":null,"stnrhi":null,"nrind":null,"pos":null,"loc":null,"dtc":"2024-10-11","dy":"201","visit":"FOLLOW-UP","visitnum":"9.0","epoch":"FOLLOW-UP"},{"seq":"70","testcd":"TEMP","test":"Temperature","cat":null,"orres":"36.8","orresu":"C","stresc":"36.8","stresn":"36.8","stresu":"C","stnrlo":null,"stnrhi":null,"nrind":null,"pos":null,"loc":null,"dtc":"2024-10-11","dy":"201","visit":"FOLLOW-UP","visitnum":"9.0","epoch":"FOLLOW-UP"},{"seq":"71","testcd":"WEIGHT","test":"Weight","cat":null,"orres":"56.4","orresu":"kg","stresc":"56.4","stresn":"56.4","stresu":"kg","stnrlo":null,"stnrhi":null,"nrind":null,"pos":null,"loc":null,"dtc":"2024-10-11","dy":"201","visit":"FOLLOW-UP","visitnum":"9.0","epoch":"FOLLOW-UP"}]},"section_10_questionnaires_and_scores":{"questionnaires":[],"findings_about":[{"seq":"1","testcd":"LDIAM","test":"Longest Diameter","cat":"TUMOR ASSESSMENT","orres":"33.4","stresc":"33.4","stresn":"33.4","dtc":"2024-02-21","visit":"SCREENING"},{"seq":"2","testcd":"SAXIS","test":"Short Axis","cat":"TUMOR ASSESSMENT","orres":"18.2","stresc":"18.2","stresn":"18.2","dtc":"2024-02-21","visit":"SCREENING"},{"seq":"3","testcd":"LDIAM","test":"Longest Diameter","cat":"TUMOR ASSESSMENT","orres":"19.3","stresc":"19.3","stresn":"19.3","dtc":"2024-02-21","visit":"SCREENING"},{"seq":"4","testcd":"SAXIS","test":"Short Axis","cat":"TUMOR ASSESSMENT","orres":"18.6","stresc":"18.6","stresn":"18.6","dtc":"2024-02-21","visit":"SCREENING"},{"seq":"5","testcd":"LDIAM","test":"Longest Diameter","cat":"TUMOR ASSESSMENT","orres":"36.4","stresc":"36.4","stresn":"36.4","dtc":"2024-02-21","visit":"SCREENING"},{"seq":"6","testcd":"SAXIS","test":"Short Axis","cat":"TUMOR ASSESSMENT","orres":"12.2","stresc":"12.2","stresn":"12.2","dtc":"2024-02-21","visit":"SCREENING"},{"seq":"7","testcd":"LDIAM","test":"Longest Diameter","cat":"TUMOR ASSESSMENT","orres":"31.2","stresc":"31.2","stresn":"31.2","dtc":"2024-03-25","visit":"C1D1"},{"seq":"8","testcd":"SAXIS","test":"Short Axis","cat":"TUMOR ASSESSMENT","orres":"17.5","stresc":"17.5","stresn":"17.5","dtc":"2024-03-25","visit":"C1D1"},{"seq":"9","testcd":"LDIAM","test":"Longest Diameter","cat":"TUMOR ASSESSMENT","orres":"19.0","stresc":"19.0","stresn":"19.0","dtc":"2024-03-25","visit":"C1D1"},{"seq":"10","testcd":"SAXIS","test":"Short Axis","cat":"TUMOR ASSESSMENT","orres":"18.7","stresc":"18.7","stresn":"18.7","dtc":"2024-03-25","visit":"C1D1"},{"seq":"11","testcd":"LDIAM","test":"Longest Diameter","cat":"TUMOR ASSESSMENT","orres":"35.7","stresc":"35.7","stresn":"35.7","dtc":"2024-03-25","visit":"C1D1"},{"seq":"12","testcd":"SAXIS","test":"Short Axis","cat":"TUMOR ASSESSMENT","orres":"12.6","stresc":"12.6","stresn":"12.6","dtc":"2024-03-25","visit":"C1D1"},{"seq":"13","testcd":"LDIAM","test":"Longest Diameter","cat":"TUMOR ASSESSMENT","orres":"30.6","stresc":"30.6","stresn":"30.6","dtc":"2024-04-08","visit":"C1D15"},{"seq":"14","testcd":"SAXIS","test":"Short Axis","cat":"TUMOR ASSESSMENT","orres":"18.5","stresc":"18.5","stresn":"18.5","dtc":"2024-04-08","visit":"C1D15"},{"seq":"15","testcd":"LDIAM","test":"Longest Diameter","cat":"TUMOR ASSESSMENT","orres":"17.4","stresc":"17.4","stresn":"17.4","dtc":"2024-04-08","visit":"C1D15"},{"seq":"16","testcd":"SAXIS","test":"Short Axis","cat":"TUMOR ASSESSMENT","orres":"19.1","stresc":"19.1","stresn":"19.1","dtc":"2024-04-08","visit":"C1D15"},{"seq":"17","testcd":"LDIAM","test":"Longest Diameter","cat":"TUMOR ASSESSMENT","orres":"33.9","stresc":"33.9","stresn":"33.9","dtc":"2024-04-08","visit":"C1D15"},{"seq":"18","testcd":"SAXIS","test":"Short Axis","cat":"TUMOR ASSESSMENT","orres":"11.9","stresc":"11.9","stresn":"11.9","dtc":"2024-04-08","visit":"C1D15"},{"seq":"19","testcd":"LDIAM","test":"Longest Diameter","cat":"TUMOR ASSESSMENT","orres":"32.4","stresc":"32.4","stresn":"32.4","dtc":"2024-04-22","visit":"C2D1"},{"seq":"20","testcd":"SAXIS","test":"Short Axis","cat":"TUMOR ASSESSMENT","orres":"17.7","stresc":"17.7","stresn":"17.7","dtc":"2024-04-22","visit":"C2D1"},{"seq":"21","testcd":"LDIAM","test":"Longest Diameter","cat":"TUMOR ASSESSMENT","orres":"20.8","stresc":"20.8","stresn":"20.8","dtc":"2024-04-22","visit":"C2D1"},{"seq":"22","testcd":"SAXIS","test":"Short Axis","cat":"TUMOR ASSESSMENT","orres":"18.2","stresc":"18.2","stresn":"18.2","dtc":"2024-04-22","visit":"C2D1"},{"seq":"23","testcd":"LDIAM","test":"Longest Diameter","cat":"TUMOR ASSESSMENT","orres":"33.2","stresc":"33.2","stresn":"33.2","dtc":"2024-04-22","visit":"C2D1"},{"seq":"24","testcd":"SAXIS","test":"Short Axis","cat":"TUMOR ASSESSMENT","orres":"11.7","stresc":"11.7","stresn":"11.7","dtc":"2024-04-22","visit":"C2D1"},{"seq":"25","testcd":"LDIAM","test":"Longest Diameter","cat":"TUMOR ASSESSMENT","orres":"33.6","stresc":"33.6","stresn":"33.6","dtc":"2024-05-20","visit":"C3D1"},{"seq":"26","testcd":"SAXIS","test":"Short Axis","cat":"TUMOR ASSESSMENT","orres":"17.9","stresc":"17.9","stresn":"17.9","dtc":"2024-05-20","visit":"C3D1"},{"seq":"27","testcd":"LDIAM","test":"Longest Diameter","cat":"TUMOR ASSESSMENT","orres":"19.4","stresc":"19.4","stresn":"19.4","dtc":"2024-05-20","visit":"C3D1"},{"seq":"28","testcd":"SAXIS","test":"Short Axis","cat":"TUMOR ASSESSMENT","orres":"18.5","stresc":"18.5","stresn":"18.5","dtc":"2024-05-20","visit":"C3D1"},{"seq":"29","testcd":"LDIAM","test":"Longest Diameter","cat":"TUMOR ASSESSMENT","orres":"36.9","stresc":"36.9","stresn":"36.9","dtc":"2024-05-20","visit":"C3D1"},{"seq":"30","testcd":"SAXIS","test":"Short Axis","cat":"TUMOR ASSESSMENT","orres":"11.8","stresc":"11.8","stresn":"11.8","dtc":"2024-05-20","visit":"C3D1"},{"seq":"31","testcd":"LDIAM","test":"Longest Diameter","cat":"TUMOR ASSESSMENT","orres":"32.1","stresc":"32.1","stresn":"32.1","dtc":"2024-06-17","visit":"C4D1"},{"seq":"32","testcd":"SAXIS","test":"Short Axis","cat":"TUMOR ASSESSMENT","orres":"17.3","stresc":"17.3","stresn":"17.3","dtc":"2024-06-17","visit":"C4D1"},{"seq":"33","testcd":"LDIAM","test":"Longest Diameter","cat":"TUMOR ASSESSMENT","orres":"18.3","stresc":"18.3","stresn":"18.3","dtc":"2024-06-17","visit":"C4D1"},{"seq":"34","testcd":"SAXIS","test":"Short Axis","cat":"TUMOR ASSESSMENT","orres":"17.6","stresc":"17.6","stresn":"17.6","dtc":"2024-06-17","visit":"C4D1"},{"seq":"35","testcd":"LDIAM","test":"Longest Diameter","cat":"TUMOR ASSESSMENT","orres":"33.9","stresc":"33.9","stresn":"33.9","dtc":"2024-06-17","visit":"C4D1"},{"seq":"36","testcd":"SAXIS","test":"Short Axis","cat":"TUMOR ASSESSMENT","orres":"12.0","stresc":"12.0","stresn":"12.0","dtc":"2024-06-17","visit":"C4D1"},{"seq":"37","testcd":"LDIAM","test":"Longest Diameter","cat":"TUMOR ASSESSMENT","orres":"31.6","stresc":"31.6","stresn":"31.6","dtc":"2024-08-12","visit":"C6D1"},{"seq":"38","testcd":"SAXIS","test":"Short Axis","cat":"TUMOR ASSESSMENT","orres":"17.2","stresc":"17.2","stresn":"17.2","dtc":"2024-08-12","visit":"C6D1"},{"seq":"39","testcd":"LDIAM","test":"Longest Diameter","cat":"TUMOR ASSESSMENT","orres":"17.6","stresc":"17.6","stresn":"17.6","dtc":"2024-08-12","visit":"C6D1"},{"seq":"40","testcd":"SAXIS","test":"Short Axis","cat":"TUMOR ASSESSMENT","orres":"17.7","stresc":"17.7","stresn":"17.7","dtc":"2024-08-12","visit":"C6D1"},{"seq":"41","testcd":"LDIAM","test":"Longest Diameter","cat":"TUMOR ASSESSMENT","orres":"34.2","stresc":"34.2","stresn":"34.2","dtc":"2024-08-12","visit":"C6D1"},{"seq":"42","testcd":"SAXIS","test":"Short Axis","cat":"TUMOR ASSESSMENT","orres":"11.5","stresc":"11.5","stresn":"11.5","dtc":"2024-08-12","visit":"C6D1"},{"seq":"43","testcd":"LDIAM","test":"Longest Diameter","cat":"TUMOR ASSESSMENT","orres":"31.0","stresc":"31.0","stresn":"31.0","dtc":"2024-09-09","visit":"EOT"},{"seq":"44","testcd":"SAXIS","test":"Short Axis","cat":"TUMOR ASSESSMENT","orres":"18.1","stresc":"18.1","stresn":"18.1","dtc":"2024-09-09","visit":"EOT"},{"seq":"45","testcd":"LDIAM","test":"Longest Diameter","cat":"TUMOR ASSESSMENT","orres":"17.2","stresc":"17.2","stresn":"17.2","dtc":"2024-09-09","visit":"EOT"},{"seq":"46","testcd":"SAXIS","test":"Short Axis","cat":"TUMOR ASSESSMENT","orres":"17.0","stresc":"17.0","stresn":"17.0","dtc":"2024-09-09","visit":"EOT"},{"seq":"47","testcd":"LDIAM","test":"Longest Diameter","cat":"TUMOR ASSESSMENT","orres":"37.0","stresc":"37.0","stresn":"37.0","dtc":"2024-09-09","visit":"EOT"},{"seq":"48","testcd":"SAXIS","test":"Short Axis","cat":"TUMOR ASSESSMENT","orres":"11.8","stresc":"11.8","stresn":"11.8","dtc":"2024-09-09","visit":"EOT"}]},"section_11_protocol_deviations":{"deviations":[{"seq":"1","term":"Missed TEPOTINIB dose on 2024-03-31","decod":"MISSED DOSE","cat":"MINOR","scat":"DOSING","start_dtc":"2024-03-31","end_dtc":null,"visit":null},{"seq":"2","term":"Missed TEPOTINIB dose on 2024-04-06","decod":"MISSED DOSE","cat":"MINOR","scat":"DOSING","start_dtc":"2024-04-06","end_dtc":null,"visit":null},{"seq":"3","term":"Missed TEPOTINIB dose on 2024-04-11","decod":"MISSED DOSE","cat":"MINOR","scat":"DOSING","start_dtc":"2024-04-11","end_dtc":null,"visit":null},{"seq":"4","term":"Missed TEPOTINIB dose on 2024-04-22","decod":"MISSED DOSE","cat":"MINOR","scat":"DOSING","start_dtc":"2024-04-22","end_dtc":null,"visit":null},{"seq":"5","term":"Missed TEPOTINIB dose on 2024-05-16","decod":"MISSED DOSE","cat":"MINOR","scat":"DOSING","start_dtc":"2024-05-16","end_dtc":null,"visit":null},{"seq":"6","term":"Visit C3D1 occurred 1 days late (Day 58 vs planned Day 57)","decod":"VISIT OCCURRED OUTSIDE VISIT WINDOW","cat":"MINOR","scat":"VISIT WINDOW","start_dtc":"2024-05-21","end_dtc":null,"visit":null},{"seq":"7","term":"Missed TEPOTINIB dose on 2024-06-15","decod":"MISSED DOSE","cat":"MINOR","scat":"DOSING","start_dtc":"2024-06-15","end_dtc":null,"visit":null},{"seq":"8","term":"Visit C4D1 occurred 1 days late (Day 86 vs planned Day 85)","decod":"VISIT OCCURRED OUTSIDE VISIT WINDOW","cat":"MINOR","scat":"VISIT WINDOW","start_dtc":"2024-06-18","end_dtc":null,"visit":null},{"seq":"9","term":"Visit C6D1 occurred 1 days late (Day 142 vs planned Day 141)","decod":"VISIT OCCURRED OUTSIDE VISIT WINDOW","cat":"MINOR","scat":"VISIT WINDOW","start_dtc":"2024-08-13","end_dtc":null,"visit":null},{"seq":"10","term":"Vital signs assessment not performed at EOT","decod":"MISSED ASSESSMENT","cat":"MINOR","scat":"ASSESSMENT","start_dtc":"2024-09-15","end_dtc":null,"visit":null},{"seq":"11","term":"Visit FOLLOW-UP occurred 2 days late (Day 201 vs planned Day 199)","decod":"VISIT OCCURRED OUTSIDE VISIT WINDOW","cat":"MINOR","scat":"VISIT WINDOW","start_dtc":"2024-10-11","end_dtc":null,"visit":null}],"total":11},"section_12_disposition":{"completion_status":"COMPLETED","disposition_records":[{"seq":"1","term":"INFORMED CONSENT OBTAINED","decod":"INFORMED CONSENT OBTAINED","cat":"PROTOCOL MILESTONE","scat":null,"dtc":"2024-02-21","dy":null,"visit":null,"epoch":"SCREENING"},{"seq":"2","term":"RANDOMIZED","decod":"RANDOMIZED","cat":"PROTOCOL MILESTONE","scat":null,"dtc":"2024-03-25","dy":null,"visit":null,"epoch":"TREATMENT"},{"seq":"3","term":"COMPLETED","decod":"COMPLETED","cat":"DISPOSITION EVENT","scat":null,"dtc":"2024-11-05","dy":null,"visit":null,"epoch":"FOLLOW-UP"}],"death":null},"section_13_hospitalizations":{"items":[{"seq":"1","term":"Aspartate aminotransferase increased","decod":"Aspartate aminotransferase increased","cat":"HOSPITALIZATION","start_dtc":"2024-08-22","end_dtc":"2024-09-03","epoch":"TREATMENT"}],"total":1},"section_14_substance_use":{"items":[{"seq":"1","substance":"ALCOHOL","decod":"ALCOHOL","cat":"ALCOHOL","scat":null,"usage":"N","dose":null,"dosu":null,"freq":null,"start_dtc":null,"end_dtc":null},{"seq":"2","substance":"COFFEE","decod":"COFFEE","cat":"CAFFEINE","scat":null,"usage":"Y","dose":"3.0","dosu":"CUPS/DAY","freq":"QD","start_dtc":"2017-02-22","end_dtc":null},{"seq":"3","substance":"CIGARETTES","decod":"CIGARETTES","cat":"TOBACCO","scat":"CIGARETTES","usage":"N","dose":null,"dosu":null,"freq":null,"start_dtc":null,"end_dtc":null}],"total":3},"section_15_subject_status":{"items":[{"seq":"1","testcd":"SURVSTAT","test":"Survival Status","orres":"ALIVE","stresc":"ALIVE","dtc":"2024-10-09","visit":"FOLLOW-UP","epoch":"FOLLOW-UP"}],"total":1}}