{"subject_id":"VISION-NSCLC-SITE002-0038","study_id":"VISION-NSCLC","generated_at":"2026-06-29T10:42:53.194957+00:00","sdtmig_version":"3.4","flags":{"has_serious_ae":true,"has_fatal_ae":false,"has_protocol_deviation":true,"n_protocol_deviations":8,"n_adverse_events":4,"n_concomitant_meds":4,"max_ae_severity":"SEVERE","screen_failure":false,"discontinued_early":false,"discontinuation_reason":null,"death":false,"exposure_days":76},"timeline":[{"dtc":"2024-01-27","dy":"-55","event":"VISIT: SCREENING","domain":"SV","category":"visit"},{"dtc":"2024-02-20","dy":"-31","event":"INFORMED CONSENT OBTAINED","domain":"DS","category":"milestone"},{"dtc":"2024-03-22","dy":"1","event":"RANDOMIZED","domain":"DS","category":"milestone"},{"dtc":"2024-03-22","dy":"1","event":"FIRST DOSE: TEPOTINIB","domain":"EX","category":"exposure"},{"dtc":"2024-03-22","dy":"1","event":"VISIT: C1D1","domain":"SV","category":"visit"},{"dtc":"2024-03-26","dy":"5","event":"AE: Nausea (MODERATE)","domain":"AE","category":"adverse_event"},{"dtc":"2024-03-26","dy":"5","event":"CM START: ONDANSETRON","domain":"CM","category":"concomitant_med"},{"dtc":"2024-04-08","dy":"18","event":"VISIT: C1D15","domain":"SV","category":"visit"},{"dtc":"2024-04-14","dy":"24","event":"DEVIATION: MISSED DOSE","domain":"DV","category":"deviation"},{"dtc":"2024-04-17","dy":"27","event":"DEVIATION: MISSED DOSE","domain":"DV","category":"deviation"},{"dtc":"2024-04-20","dy":"30","event":"DEVIATION: MISSED DOSE","domain":"DV","category":"deviation"},{"dtc":"2024-04-20","dy":"30","event":"VISIT: C2D1","domain":"SV","category":"visit"},{"dtc":"2024-04-25","dy":"35","event":"DEVIATION: MISSED DOSE","domain":"DV","category":"deviation"},{"dtc":"2024-05-11","dy":"51","event":"DEVIATION: MISSED DOSE","domain":"DV","category":"deviation"},{"dtc":"2024-05-13","dy":"53","event":"AE: Pleural effusion (MODERATE)","domain":"AE","category":"adverse_event"},{"dtc":"2024-05-13","dy":"53","event":"CM START: PARACETAMOL","domain":"CM","category":"concomitant_med"},{"dtc":"2024-05-14","dy":"54","event":"DEVIATION: VISIT OCCURRED OUTSIDE VISIT WINDOW","domain":"DV","category":"deviation"},{"dtc":"2024-05-14","dy":"54","event":"VISIT: C3D1","domain":"SV","category":"visit"},{"dtc":"2024-05-18","dy":"58","event":"CM START: PARACETAMOL","domain":"CM","category":"concomitant_med"},{"dtc":"2024-05-25","dy":"65","event":"AE: Oedema peripheral (MODERATE)","domain":"AE","category":"adverse_event"},{"dtc":"2024-05-25","dy":"65","event":"CM START: FUROSEMIDE","domain":"CM","category":"concomitant_med"},{"dtc":"2024-06-03","dy":"74","event":"DEVIATION: MISSED DOSE","domain":"DV","category":"deviation"},{"dtc":"2024-06-06","dy":"77","event":"LAST DOSE: TEPOTINIB","domain":"EX","category":"exposure"},{"dtc":"2024-06-14","dy":"85","event":"DEVIATION: VISIT OCCURRED OUTSIDE VISIT WINDOW","domain":"DV","category":"deviation"},{"dtc":"2024-06-14","dy":"85","event":"VISIT: C4D1","domain":"SV","category":"visit"},{"dtc":"2024-07-12","dy":"113","event":"AE: Nausea (SEVERE) [SERIOUS]","domain":"AE","category":"adverse_event"},{"dtc":"2024-08-02","dy":"134","event":"VISIT: C6D1","domain":"SV","category":"visit"},{"dtc":"2024-09-11","dy":"174","event":"VISIT: EOT","domain":"SV","category":"visit"},{"dtc":"2024-10-07","dy":"200","event":"VISIT: FOLLOW-UP","domain":"SV","category":"visit"},{"dtc":"2024-11-02","dy":"226","event":"COMPLETED","domain":"DS","category":"milestone"}],"section_1_demographics":{"usubjid":"VISION-NSCLC-SITE002-0038","subjid":"0038","siteid":"SITE002","age":"39","ageu":"YEARS","sex":"M","race":"WHITE","ethnicity":"NOT HISPANIC OR LATINO","country":"USA","arm":"Tepotinib 500mg QD","armcd":"TEP500","actarm":"Tepotinib 500mg QD","actarmcd":"TEP500","randomization_date":null,"informed_consent_date":"2024-02-20","reference_start_date":"2024-03-22","reference_end_date":"2024-11-02","screen_failure":false,"death_flag":null,"death_date":null,"subject_characteristics":[{"testcd":"ALCUSE","test":"Alcohol Use","orres":"CURRENT DRINKER","stresc":"CURRENT DRINKER","visit":null,"dtc":"2024-02-20"},{"testcd":"BMI","test":"Body Mass Index","orres":"19.4","stresc":"19.4","visit":null,"dtc":"2024-02-20"},{"testcd":"DURDIS","test":"Duration of Disease","orres":"48 months","stresc":"48","visit":null,"dtc":"2024-02-20"},{"testcd":"TOBPKYR","test":"Tobacco Pack-Years","orres":"17","stresc":"17","visit":null,"dtc":"2024-02-20"},{"testcd":"TOBUSE","test":"Tobacco Use","orres":"CURRENT SMOKER","stresc":"CURRENT SMOKER","visit":null,"dtc":"2024-02-20"}]},"section_2_medical_history":{"items":[{"seq":"1","term":"ASTHMA","decod":"ASTHMA","cat":"RESPIRATORY","scat":null,"presp":null,"occur":null,"status":null,"onset_dtc":"2020-02-21","end_dtc":"2022-05-28","visit":null},{"seq":"2","term":"DIABETES MELLITUS TYPE 2","decod":"DIABETES MELLITUS TYPE 2","cat":"ENDOCRINE","scat":null,"presp":null,"occur":null,"status":null,"onset_dtc":"2021-02-20","end_dtc":"2021-07-15","visit":null},{"seq":"3","term":"HYPERLIPIDEMIA","decod":"HYPERLIPIDEMIA","cat":"METABOLIC","scat":null,"presp":null,"occur":null,"status":null,"onset_dtc":"2023-02-20","end_dtc":"2023-03-08","visit":null},{"seq":"4","term":"HYPERTENSION","decod":"HYPERTENSION","cat":"CARDIOVASCULAR","scat":null,"presp":null,"occur":null,"status":null,"onset_dtc":"2022-02-20","end_dtc":"2022-03-04","visit":null}]},"section_3_inclusion_exclusion":{"criteria":[]},"section_4_trial_participation":{"visits":[{"visitnum":"1.0","visit":"SCREENING","start_dtc":"2024-01-27","end_dtc":"2024-01-27","updes":null},{"visitnum":"2.0","visit":"C1D1","start_dtc":"2024-03-22","end_dtc":"2024-03-22","updes":null},{"visitnum":"3.0","visit":"C1D15","start_dtc":"2024-04-08","end_dtc":"2024-04-08","updes":null},{"visitnum":"4.0","visit":"C2D1","start_dtc":"2024-04-20","end_dtc":"2024-04-20","updes":null},{"visitnum":"5.0","visit":"C3D1","start_dtc":"2024-05-14","end_dtc":"2024-05-14","updes":null},{"visitnum":"6.0","visit":"C4D1","start_dtc":"2024-06-14","end_dtc":"2024-06-14","updes":null},{"visitnum":"7.0","visit":"C6D1","start_dtc":"2024-08-02","end_dtc":"2024-08-02","updes":null},{"visitnum":"8.0","visit":"EOT","start_dtc":"2024-09-11","end_dtc":"2024-09-11","updes":null},{"visitnum":"9.0","visit":"FOLLOW-UP","start_dtc":"2024-10-07","end_dtc":"2024-10-07","updes":null}],"epochs":[{"seq":"1","etcd":"SCRN","element":"Screening","start_dtc":"2024-02-23","end_dtc":"2024-03-22","updes":null},{"seq":"2","etcd":"TRT","element":"Treatment","start_dtc":"2024-03-22","end_dtc":"2024-09-06","updes":null},{"seq":"3","etcd":"FU","element":"Follow-up","start_dtc":"2024-09-06","end_dtc":"2024-10-05","updes":null}],"visit_count":9},"section_5_concomitant_medications":{"medications":[{"seq":"1","trt":"ONDANSETRON","decod":"ONDANSETRON","cat":"CONCOMITANT","dose":"4","doseu":null,"dosef":"PRN","route":"ORAL","indication":"NAUSEA","start_dtc":"2024-03-26","end_dtc":"2024-04-03","ongoing":null,"visit":null},{"seq":"2","trt":"PARACETAMOL","decod":"PARACETAMOL","cat":"CONCOMITANT","dose":"500","doseu":null,"dosef":"PRN","route":"ORAL","indication":"PLEURAL EFFUSION","start_dtc":"2024-05-13","end_dtc":"2024-05-31","ongoing":null,"visit":null},{"seq":"3","trt":"PARACETAMOL","decod":"PARACETAMOL","cat":"CONCOMITANT","dose":null,"doseu":null,"dosef":"PRN","route":"ORAL","indication":null,"start_dtc":"2024-05-18","end_dtc":"2024-06-16","ongoing":null,"visit":null},{"seq":"4","trt":"FUROSEMIDE","decod":"FUROSEMIDE","cat":"CONCOMITANT","dose":"20.0","doseu":null,"dosef":"QD","route":"ORAL","indication":"OEDEMA PERIPHERAL","start_dtc":"2024-05-25","end_dtc":"2024-06-07","ongoing":null,"visit":null}]},"section_6_exposure":{"exposure_as_administered":[{"seq":"1","trt":"TEPOTINIB","dose":"500.0","doseu":null,"dosef":"QD","route":"ORAL","lot":null,"start_dtc":"2024-03-22","end_dtc":"2024-05-24","start_dy":"1","end_dy":"64","epoch":"TREATMENT","visit":null},{"seq":"2","trt":"TEPOTINIB","dose":"250.0","doseu":null,"dosef":"QD","route":"ORAL","lot":null,"start_dtc":"2024-05-25","end_dtc":"2024-06-06","start_dy":"65","end_dy":"77","epoch":"TREATMENT","visit":null}],"exposure_as_collected":[{"seq":"1","trt":"TEPOTINIB","dose":"500.0","doseu":null,"dosef":"QD","route":"ORAL","start_dtc":"2024-03-22","end_dtc":"2024-03-22","visit":"C1D1"},{"seq":"2","trt":"TEPOTINIB","dose":"500.0","doseu":null,"dosef":"QD","route":"ORAL","start_dtc":"2024-03-23","end_dtc":"2024-03-23","visit":"C1D1"},{"seq":"3","trt":"TEPOTINIB","dose":"500.0","doseu":null,"dosef":"QD","route":"ORAL","start_dtc":"2024-03-24","end_dtc":"2024-03-24","visit":"C1D1"},{"seq":"4","trt":"TEPOTINIB","dose":"500.0","doseu":null,"dosef":"QD","route":"ORAL","start_dtc":"2024-03-25","end_dtc":"2024-03-25","visit":"C1D1"},{"seq":"5","trt":"TEPOTINIB","dose":"500.0","doseu":null,"dosef":"QD","route":"ORAL","start_dtc":"2024-03-26","end_dtc":"2024-03-26","visit":null},{"seq":"6","trt":"TEPOTINIB","dose":"500.0","doseu":null,"dosef":"QD","route":"ORAL","start_dtc":"2024-03-27","end_dtc":"2024-03-27","visit":null},{"seq":"7","trt":"TEPOTINIB","dose":"500.0","doseu":null,"dosef":"QD","route":"ORAL","start_dtc":"2024-03-28","end_dtc":"2024-03-28","visit":null},{"seq":"8","trt":"TEPOTINIB","dose":"500.0","doseu":null,"dosef":"QD","route":"ORAL","start_dtc":"2024-03-29","end_dtc":"2024-03-29","visit":null},{"seq":"9","trt":"TEPOTINIB","dose":"500.0","doseu":null,"dosef":"QD","route":"ORAL","start_dtc":"2024-03-30","end_dtc":"2024-03-30","visit":null},{"seq":"10","trt":"TEPOTINIB","dose":"500.0","doseu":null,"dosef":"QD","route":"ORAL","start_dtc":"2024-03-31","end_dtc":"2024-03-31","visit":null},{"seq":"11","trt":"TEPOTINIB","dose":"500.0","doseu":null,"dosef":"QD","route":"ORAL","start_dtc":"2024-04-01","end_dtc":"2024-04-01","visit":null},{"seq":"12","trt":"TEPOTINIB","dose":"500.0","doseu":null,"dosef":"QD","route":"ORAL","start_dtc":"2024-04-02","end_dtc":"2024-04-02","visit":"C1D15"},{"seq":"13","trt":"TEPOTINIB","dose":"500.0","doseu":null,"dosef":"QD","route":"ORAL","start_dtc":"2024-04-03","end_dtc":"2024-04-03","visit":"C1D15"},{"seq":"14","trt":"TEPOTINIB","dose":"500.0","doseu":null,"dosef":"QD","route":"ORAL","start_dtc":"2024-04-04","end_dtc":"2024-04-04","visit":"C1D15"},{"seq":"15","trt":"TEPOTINIB","dose":"500.0","doseu":null,"dosef":"QD","route":"ORAL","start_dtc":"2024-04-05","end_dtc":"2024-04-05","visit":"C1D15"},{"seq":"16","trt":"TEPOTINIB","dose":"500.0","doseu":null,"dosef":"QD","route":"ORAL","start_dtc":"2024-04-06","end_dtc":"2024-04-06","visit":"C1D15"},{"seq":"17","trt":"TEPOTINIB","dose":"500.0","doseu":null,"dosef":"QD","route":"ORAL","start_dtc":"2024-04-07","end_dtc":"2024-04-07","visit":"C1D15"},{"seq":"18","trt":"TEPOTINIB","dose":"500.0","doseu":null,"dosef":"QD","route":"ORAL","start_dtc":"2024-04-08","end_dtc":"2024-04-08","visit":"C1D15"},{"seq":"19","trt":"TEPOTINIB","dose":"500.0","doseu":null,"dosef":"QD","route":"ORAL","start_dtc":"2024-04-09","end_dtc":"2024-04-09","visit":null},{"seq":"20","trt":"TEPOTINIB","dose":"500.0","doseu":null,"dosef":"QD","route":"ORAL","start_dtc":"2024-04-10","end_dtc":"2024-04-10","visit":null},{"seq":"21","trt":"TEPOTINIB","dose":"500.0","doseu":null,"dosef":"QD","route":"ORAL","start_dtc":"2024-04-11","end_dtc":"2024-04-11","visit":null},{"seq":"22","trt":"TEPOTINIB","dose":"500.0","doseu":null,"dosef":"QD","route":"ORAL","start_dtc":"2024-04-12","end_dtc":"2024-04-12","visit":null},{"seq":"23","trt":"TEPOTINIB","dose":"500.0","doseu":null,"dosef":"QD","route":"ORAL","start_dtc":"2024-04-13","end_dtc":"2024-04-13","visit":null},{"seq":"24","trt":"TEPOTINIB","dose":null,"doseu":null,"dosef":"QD","route":"ORAL","start_dtc":"2024-04-14","end_dtc":"2024-04-14","visit":null},{"seq":"25","trt":"TEPOTINIB","dose":"500.0","doseu":null,"dosef":"QD","route":"ORAL","start_dtc":"2024-04-15","end_dtc":"2024-04-15","visit":null},{"seq":"26","trt":"TEPOTINIB","dose":"500.0","doseu":null,"dosef":"QD","route":"ORAL","start_dtc":"2024-04-16","end_dtc":"2024-04-16","visit":"C2D1"},{"seq":"27","trt":"TEPOTINIB","dose":null,"doseu":null,"dosef":"QD","route":"ORAL","start_dtc":"2024-04-17","end_dtc":"2024-04-17","visit":"C2D1"},{"seq":"28","trt":"TEPOTINIB","dose":"500.0","doseu":null,"dosef":"QD","route":"ORAL","start_dtc":"2024-04-18","end_dtc":"2024-04-18","visit":"C2D1"},{"seq":"29","trt":"TEPOTINIB","dose":"500.0","doseu":null,"dosef":"QD","route":"ORAL","start_dtc":"2024-04-19","end_dtc":"2024-04-19","visit":"C2D1"},{"seq":"30","trt":"TEPOTINIB","dose":null,"doseu":null,"dosef":"QD","route":"ORAL","start_dtc":"2024-04-20","end_dtc":"2024-04-20","visit":"C2D1"},{"seq":"31","trt":"TEPOTINIB","dose":"500.0","doseu":null,"dosef":"QD","route":"ORAL","start_dtc":"2024-04-21","end_dtc":"2024-04-21","visit":"C2D1"},{"seq":"32","trt":"TEPOTINIB","dose":null,"doseu":null,"dosef":"QD","route":"ORAL","start_dtc":"2024-04-22","end_dtc":"2024-04-22","visit":"C2D1"},{"seq":"33","trt":"TEPOTINIB","dose":"500.0","doseu":null,"dosef":"QD","route":"ORAL","start_dtc":"2024-04-23","end_dtc":"2024-04-23","visit":null},{"seq":"34","trt":"TEPOTINIB","dose":"500.0","doseu":null,"dosef":"QD","route":"ORAL","start_dtc":"2024-04-24","end_dtc":"2024-04-24","visit":null},{"seq":"35","trt":"TEPOTINIB","dose":null,"doseu":null,"dosef":"QD","route":"ORAL","start_dtc":"2024-04-25","end_dtc":"2024-04-25","visit":null},{"seq":"36","trt":"TEPOTINIB","dose":"500.0","doseu":null,"dosef":"QD","route":"ORAL","start_dtc":"2024-04-26","end_dtc":"2024-04-26","visit":null},{"seq":"37","trt":"TEPOTINIB","dose":"500.0","doseu":null,"dosef":"QD","route":"ORAL","start_dtc":"2024-04-27","end_dtc":"2024-04-27","visit":null},{"seq":"38","trt":"TEPOTINIB","dose":"500.0","doseu":null,"dosef":"QD","route":"ORAL","start_dtc":"2024-04-28","end_dtc":"2024-04-28","visit":null},{"seq":"39","trt":"TEPOTINIB","dose":"500.0","doseu":null,"dosef":"QD","route":"ORAL","start_dtc":"2024-04-29","end_dtc":"2024-04-29","visit":null},{"seq":"40","trt":"TEPOTINIB","dose":"500.0","doseu":null,"dosef":"QD","route":"ORAL","start_dtc":"2024-04-30","end_dtc":"2024-04-30","visit":null},{"seq":"41","trt":"TEPOTINIB","dose":"500.0","doseu":null,"dosef":"QD","route":"ORAL","start_dtc":"2024-05-01","end_dtc":"2024-05-01","visit":null},{"seq":"42","trt":"TEPOTINIB","dose":"500.0","doseu":null,"dosef":"QD","route":"ORAL","start_dtc":"2024-05-02","end_dtc":"2024-05-02","visit":null},{"seq":"43","trt":"TEPOTINIB","dose":"500.0","doseu":null,"dosef":"QD","route":"ORAL","start_dtc":"2024-05-03","end_dtc":"2024-05-03","visit":null},{"seq":"44","trt":"TEPOTINIB","dose":"500.0","doseu":null,"dosef":"QD","route":"ORAL","start_dtc":"2024-05-04","end_dtc":"2024-05-04","visit":null},{"seq":"45","trt":"TEPOTINIB","dose":"500.0","doseu":null,"dosef":"QD","route":"ORAL","start_dtc":"2024-05-05","end_dtc":"2024-05-05","visit":null},{"seq":"46","trt":"TEPOTINIB","dose":"500.0","doseu":null,"dosef":"QD","route":"ORAL","start_dtc":"2024-05-06","end_dtc":"2024-05-06","visit":null},{"seq":"47","trt":"TEPOTINIB","dose":"500.0","doseu":null,"dosef":"QD","route":"ORAL","start_dtc":"2024-05-07","end_dtc":"2024-05-07","visit":null},{"seq":"48","trt":"TEPOTINIB","dose":"500.0","doseu":null,"dosef":"QD","route":"ORAL","start_dtc":"2024-05-08","end_dtc":"2024-05-08","visit":null},{"seq":"49","trt":"TEPOTINIB","dose":"500.0","doseu":null,"dosef":"QD","route":"ORAL","start_dtc":"2024-05-09","end_dtc":"2024-05-09","visit":null},{"seq":"50","trt":"TEPOTINIB","dose":"500.0","doseu":null,"dosef":"QD","route":"ORAL","start_dtc":"2024-05-10","end_dtc":"2024-05-10","visit":null},{"seq":"51","trt":"TEPOTINIB","dose":null,"doseu":null,"dosef":"QD","route":"ORAL","start_dtc":"2024-05-11","end_dtc":"2024-05-11","visit":null},{"seq":"52","trt":"TEPOTINIB","dose":"500.0","doseu":null,"dosef":"QD","route":"ORAL","start_dtc":"2024-05-12","end_dtc":"2024-05-12","visit":null},{"seq":"53","trt":"TEPOTINIB","dose":"500.0","doseu":null,"dosef":"QD","route":"ORAL","start_dtc":"2024-05-13","end_dtc":"2024-05-13","visit":null},{"seq":"54","trt":"TEPOTINIB","dose":"500.0","doseu":null,"dosef":"QD","route":"ORAL","start_dtc":"2024-05-14","end_dtc":"2024-05-14","visit":"C3D1"},{"seq":"55","trt":"TEPOTINIB","dose":"500.0","doseu":null,"dosef":"QD","route":"ORAL","start_dtc":"2024-05-15","end_dtc":"2024-05-15","visit":"C3D1"},{"seq":"56","trt":"TEPOTINIB","dose":"500.0","doseu":null,"dosef":"QD","route":"ORAL","start_dtc":"2024-05-16","end_dtc":"2024-05-16","visit":"C3D1"},{"seq":"57","trt":"TEPOTINIB","dose":"500.0","doseu":null,"dosef":"QD","route":"ORAL","start_dtc":"2024-05-17","end_dtc":"2024-05-17","visit":"C3D1"},{"seq":"58","trt":"TEPOTINIB","dose":"500.0","doseu":null,"dosef":"QD","route":"ORAL","start_dtc":"2024-05-18","end_dtc":"2024-05-18","visit":"C3D1"},{"seq":"59","trt":"TEPOTINIB","dose":"500.0","doseu":null,"dosef":"QD","route":"ORAL","start_dtc":"2024-05-19","end_dtc":"2024-05-19","visit":"C3D1"},{"seq":"60","trt":"TEPOTINIB","dose":"500.0","doseu":null,"dosef":"QD","route":"ORAL","start_dtc":"2024-05-20","end_dtc":"2024-05-20","visit":"C3D1"},{"seq":"61","trt":"TEPOTINIB","dose":"500.0","doseu":null,"dosef":"QD","route":"ORAL","start_dtc":"2024-05-21","end_dtc":"2024-05-21","visit":null},{"seq":"62","trt":"TEPOTINIB","dose":"500.0","doseu":null,"dosef":"QD","route":"ORAL","start_dtc":"2024-05-22","end_dtc":"2024-05-22","visit":null},{"seq":"63","trt":"TEPOTINIB","dose":"500.0","doseu":null,"dosef":"QD","route":"ORAL","start_dtc":"2024-05-23","end_dtc":"2024-05-23","visit":null},{"seq":"64","trt":"TEPOTINIB","dose":"500.0","doseu":null,"dosef":"QD","route":"ORAL","start_dtc":"2024-05-24","end_dtc":"2024-05-24","visit":null},{"seq":"65","trt":"TEPOTINIB","dose":"250.0","doseu":null,"dosef":"QD","route":"ORAL","start_dtc":"2024-05-25","end_dtc":"2024-05-25","visit":null},{"seq":"66","trt":"TEPOTINIB","dose":"250.0","doseu":null,"dosef":"QD","route":"ORAL","start_dtc":"2024-05-26","end_dtc":"2024-05-26","visit":null},{"seq":"67","trt":"TEPOTINIB","dose":"250.0","doseu":null,"dosef":"QD","route":"ORAL","start_dtc":"2024-05-27","end_dtc":"2024-05-27","visit":null},{"seq":"68","trt":"TEPOTINIB","dose":"250.0","doseu":null,"dosef":"QD","route":"ORAL","start_dtc":"2024-05-28","end_dtc":"2024-05-28","visit":null},{"seq":"69","trt":"TEPOTINIB","dose":"250.0","doseu":null,"dosef":"QD","route":"ORAL","start_dtc":"2024-05-29","end_dtc":"2024-05-29","visit":null},{"seq":"70","trt":"TEPOTINIB","dose":"250.0","doseu":null,"dosef":"QD","route":"ORAL","start_dtc":"2024-05-30","end_dtc":"2024-05-30","visit":null},{"seq":"71","trt":"TEPOTINIB","dose":"250.0","doseu":null,"dosef":"QD","route":"ORAL","start_dtc":"2024-05-31","end_dtc":"2024-05-31","visit":null},{"seq":"72","trt":"TEPOTINIB","dose":"250.0","doseu":null,"dosef":"QD","route":"ORAL","start_dtc":"2024-06-01","end_dtc":"2024-06-01","visit":null},{"seq":"73","trt":"TEPOTINIB","dose":"250.0","doseu":null,"dosef":"QD","route":"ORAL","start_dtc":"2024-06-02","end_dtc":"2024-06-02","visit":null},{"seq":"74","trt":"TEPOTINIB","dose":null,"doseu":null,"dosef":"QD","route":"ORAL","start_dtc":"2024-06-03","end_dtc":"2024-06-03","visit":null},{"seq":"75","trt":"TEPOTINIB","dose":"250.0","doseu":null,"dosef":"QD","route":"ORAL","start_dtc":"2024-06-04","end_dtc":"2024-06-04","visit":null},{"seq":"76","trt":"TEPOTINIB","dose":"250.0","doseu":null,"dosef":"QD","route":"ORAL","start_dtc":"2024-06-05","end_dtc":"2024-06-05","visit":null},{"seq":"77","trt":"TEPOTINIB","dose":"250.0","doseu":null,"dosef":"QD","route":"ORAL","start_dtc":"2024-06-06","end_dtc":"2024-06-06","visit":null}]},"section_7_adverse_events":{"summary":{"total_aes":4,"serious_aes":1,"fatal_aes":0,"by_severity":{"MODERATE":3,"SEVERE":1},"by_soc":{"Gastrointestinal disorders":2,"Respiratory, thoracic and mediastinal disorders":1,"General disorders and administration site conditions":1}},"events":[{"seq":"1","term":"NAUSEA","decod":"Nausea","llt":"Nausea","hlt":"Nausea and vomiting symptoms","hlgt":"Gastrointestinal signs and symptoms","soc":"Gastrointestinal disorders","bodsys":"Gastrointestinal disorders","severity":"MODERATE","serious":"N","causality":"UNLIKELY RELATED","action_taken":"DOSE NOT CHANGED","outcome":"RECOVERING/RESOLVING","fatal":"N","hospitalization":"N","life_threatening":"N","onset_dtc":"2024-03-26","end_dtc":"2024-04-01","onset_dy":"5","end_dy":"11","duration":null,"epoch":"TREATMENT","visit":null,"supplemental":{}},{"seq":"2","term":"PLEURAL EFFUSION","decod":"Pleural effusion","llt":"Pleural effusion","hlt":"Pleural conditions and effusions NEC","hlgt":"Respiratory disorders NEC","soc":"Respiratory, thoracic and mediastinal disorders","bodsys":"Respiratory, thoracic and mediastinal disorders","severity":"MODERATE","serious":"N","causality":"RELATED","action_taken":"DOSE NOT CHANGED","outcome":"NOT RECOVERED/NOT RESOLVED","fatal":"N","hospitalization":"N","life_threatening":"N","onset_dtc":"2024-05-13","end_dtc":null,"onset_dy":"53","end_dy":null,"duration":null,"epoch":"TREATMENT","visit":null,"supplemental":{}},{"seq":"3","term":"OEDEMA PERIPHERAL","decod":"Oedema peripheral","llt":"Oedema peripheral","hlt":"Oedema NEC","hlgt":"Oedema NEC","soc":"General disorders and administration site conditions","bodsys":"General disorders and administration site conditions","severity":"MODERATE","serious":"N","causality":"PROBABLY RELATED","action_taken":"DOSE REDUCED","outcome":"RECOVERED/RESOLVED","fatal":"N","hospitalization":"N","life_threatening":"N","onset_dtc":"2024-05-25","end_dtc":"2024-06-17","onset_dy":"65","end_dy":"88","duration":null,"epoch":"TREATMENT","visit":null,"supplemental":{}},{"seq":"4","term":"NAUSEA","decod":"Nausea","llt":"Nausea","hlt":"Nausea and vomiting symptoms","hlgt":"Gastrointestinal signs and symptoms","soc":"Gastrointestinal disorders","bodsys":"Gastrointestinal disorders","severity":"SEVERE","serious":"Y","causality":"NOT RELATED","action_taken":"DOSE NOT CHANGED","outcome":"RECOVERED/RESOLVED","fatal":"N","hospitalization":"Y","life_threatening":"N","onset_dtc":"2024-07-12","end_dtc":"2024-07-21","onset_dy":"113","end_dy":"122","duration":null,"epoch":"TREATMENT","visit":null,"supplemental":{}}]},"section_8_laboratory_results":{"summary":{"total_records":63,"abnormal_count":17,"abnormal_pct":27.0},"shift_summary":[{"testcd":"ALT","baseline_value":10.32,"baseline_nrind":"NORMAL","worst_post_baseline_value":12.65,"worst_post_baseline_nrind":"NORMAL","worst_visit":"EOT"},{"testcd":"AST","baseline_value":20.28,"baseline_nrind":"NORMAL","worst_post_baseline_value":22.24,"worst_post_baseline_nrind":"NORMAL","worst_visit":"C1D1"},{"testcd":"CREAT","baseline_value":68.37,"baseline_nrind":"NORMAL","worst_post_baseline_value":72.78,"worst_post_baseline_nrind":"NORMAL","worst_visit":"C2D1"},{"testcd":"GLUC","baseline_value":6.54,"baseline_nrind":"HIGH","worst_post_baseline_value":6.8,"worst_post_baseline_nrind":"HIGH","worst_visit":"C4D1"},{"testcd":"HGB","baseline_value":128.97,"baseline_nrind":"LOW","worst_post_baseline_value":125.07,"worst_post_baseline_nrind":"LOW","worst_visit":"EOT"},{"testcd":"PLAT","baseline_value":248.88,"baseline_nrind":"NORMAL","worst_post_baseline_value":254.11,"worst_post_baseline_nrind":"NORMAL","worst_visit":"C6D1"},{"testcd":"WBC","baseline_value":5.52,"baseline_nrind":"NORMAL","worst_post_baseline_value":6.59,"worst_post_baseline_nrind":"NORMAL","worst_visit":"C3D1"}],"results":[{"seq":"1","testcd":"ALT","test":"Alanine Aminotransferase","cat":"CHEMISTRY","orres":"10.32","orresu":"U/L","stresc":"10.32","stresn":"10.32","stresu":"U/L","stnrlo":"7","stnrhi":"56","nrind":"NORMAL","fast":null,"dtc":"2024-01-27","dy":"-55","visit":"SCREENING","visitnum":"1.0","epoch":"SCREENING","spec":null,"method":null},{"seq":"2","testcd":"AST","test":"Aspartate Aminotransferase","cat":"CHEMISTRY","orres":"20.28","orresu":"U/L","stresc":"20.28","stresn":"20.28","stresu":"U/L","stnrlo":"10","stnrhi":"40","nrind":"NORMAL","fast":null,"dtc":"2024-01-27","dy":"-55","visit":"SCREENING","visitnum":"1.0","epoch":"SCREENING","spec":null,"method":null},{"seq":"3","testcd":"CREAT","test":"Creatinine","cat":"CHEMISTRY","orres":null,"orresu":null,"stresc":null,"stresn":null,"stresu":null,"stnrlo":null,"stnrhi":null,"nrind":null,"fast":null,"dtc":"2024-01-27","dy":"-55","visit":"SCREENING","visitnum":"1.0","epoch":"SCREENING","spec":null,"method":null},{"seq":"4","testcd":"GLUC","test":"Glucose","cat":"CHEMISTRY","orres":"6.54","orresu":"mmol/L","stresc":"6.54","stresn":"6.54","stresu":"mmol/L","stnrlo":"3.9","stnrhi":"5.6","nrind":"HIGH","fast":null,"dtc":"2024-01-27","dy":"-55","visit":"SCREENING","visitnum":"1.0","epoch":"SCREENING","spec":null,"method":null},{"seq":"5","testcd":"HGB","test":"Hemoglobin","cat":"HEMATOLOGY","orres":"128.97","orresu":"g/L","stresc":"128.97","stresn":"128.97","stresu":"g/L","stnrlo":"130","stnrhi":"175","nrind":"LOW","fast":null,"dtc":"2024-01-27","dy":"-55","visit":"SCREENING","visitnum":"1.0","epoch":"SCREENING","spec":null,"method":null},{"seq":"6","testcd":"PLAT","test":"Platelets","cat":"HEMATOLOGY","orres":"248.88","orresu":"10^9/L","stresc":"248.88","stresn":"248.88","stresu":"10^9/L","stnrlo":"150","stnrhi":"400","nrind":"NORMAL","fast":null,"dtc":"2024-01-27","dy":"-55","visit":"SCREENING","visitnum":"1.0","epoch":"SCREENING","spec":null,"method":null},{"seq":"7","testcd":"WBC","test":"Leukocytes","cat":"HEMATOLOGY","orres":"5.52","orresu":"10^9/L","stresc":"5.52","stresn":"5.52","stresu":"10^9/L","stnrlo":"4.0","stnrhi":"11.0","nrind":"NORMAL","fast":null,"dtc":"2024-01-27","dy":"-55","visit":"SCREENING","visitnum":"1.0","epoch":"SCREENING","spec":null,"method":null},{"seq":"8","testcd":"ALT","test":"Alanine Aminotransferase","cat":"CHEMISTRY","orres":"9.59","orresu":"U/L","stresc":"9.59","stresn":"9.59","stresu":"U/L","stnrlo":"7","stnrhi":"56","nrind":"NORMAL","fast":null,"dtc":"2024-03-22","dy":"1","visit":"C1D1","visitnum":"2.0","epoch":"TREATMENT","spec":null,"method":null},{"seq":"9","testcd":"AST","test":"Aspartate Aminotransferase","cat":"CHEMISTRY","orres":"22.24","orresu":"U/L","stresc":"22.24","stresn":"22.24","stresu":"U/L","stnrlo":"10","stnrhi":"40","nrind":"NORMAL","fast":null,"dtc":"2024-03-22","dy":"1","visit":"C1D1","visitnum":"2.0","epoch":"TREATMENT","spec":null,"method":null},{"seq":"10","testcd":"CREAT","test":"Creatinine","cat":"CHEMISTRY","orres":"68.37","orresu":"umol/L","stresc":"68.37","stresn":"68.37","stresu":"umol/L","stnrlo":"62","stnrhi":"106","nrind":"NORMAL","fast":null,"dtc":"2024-03-22","dy":"1","visit":"C1D1","visitnum":"2.0","epoch":"TREATMENT","spec":null,"method":null},{"seq":"11","testcd":"GLUC","test":"Glucose","cat":"CHEMISTRY","orres":"6.4","orresu":"mmol/L","stresc":"6.4","stresn":"6.4","stresu":"mmol/L","stnrlo":"3.9","stnrhi":"5.6","nrind":"HIGH","fast":null,"dtc":"2024-03-22","dy":"1","visit":"C1D1","visitnum":"2.0","epoch":"TREATMENT","spec":null,"method":null},{"seq":"12","testcd":"HGB","test":"Hemoglobin","cat":"HEMATOLOGY","orres":"130.32","orresu":"g/L","stresc":"130.32","stresn":"130.32","stresu":"g/L","stnrlo":"130","stnrhi":"175","nrind":"NORMAL","fast":null,"dtc":"2024-03-22","dy":"1","visit":"C1D1","visitnum":"2.0","epoch":"TREATMENT","spec":null,"method":null},{"seq":"13","testcd":"PLAT","test":"Platelets","cat":"HEMATOLOGY","orres":"252.63","orresu":"10^9/L","stresc":"252.63","stresn":"252.63","stresu":"10^9/L","stnrlo":"150","stnrhi":"400","nrind":"NORMAL","fast":null,"dtc":"2024-03-22","dy":"1","visit":"C1D1","visitnum":"2.0","epoch":"TREATMENT","spec":null,"method":null},{"seq":"14","testcd":"WBC","test":"Leukocytes","cat":"HEMATOLOGY","orres":null,"orresu":null,"stresc":null,"stresn":null,"stresu":null,"stnrlo":null,"stnrhi":null,"nrind":null,"fast":null,"dtc":"2024-03-22","dy":"1","visit":"C1D1","visitnum":"2.0","epoch":"TREATMENT","spec":null,"method":null},{"seq":"15","testcd":"ALT","test":"Alanine Aminotransferase","cat":"CHEMISTRY","orres":"9.32","orresu":"U/L","stresc":"9.32","stresn":"9.32","stresu":"U/L","stnrlo":"7","stnrhi":"56","nrind":"NORMAL","fast":null,"dtc":"2024-04-08","dy":"18","visit":"C1D15","visitnum":"3.0","epoch":"TREATMENT","spec":null,"method":null},{"seq":"16","testcd":"AST","test":"Aspartate Aminotransferase","cat":"CHEMISTRY","orres":"20.49","orresu":"U/L","stresc":"20.49","stresn":"20.49","stresu":"U/L","stnrlo":"10","stnrhi":"40","nrind":"NORMAL","fast":null,"dtc":"2024-04-08","dy":"18","visit":"C1D15","visitnum":"3.0","epoch":"TREATMENT","spec":null,"method":null},{"seq":"17","testcd":"CREAT","test":"Creatinine","cat":"CHEMISTRY","orres":"70.93","orresu":"umol/L","stresc":"70.93","stresn":"70.93","stresu":"umol/L","stnrlo":"62","stnrhi":"106","nrind":"NORMAL","fast":null,"dtc":"2024-04-08","dy":"18","visit":"C1D15","visitnum":"3.0","epoch":"TREATMENT","spec":null,"method":null},{"seq":"18","testcd":"GLUC","test":"Glucose","cat":"CHEMISTRY","orres":"6.53","orresu":"mmol/L","stresc":"6.53","stresn":"6.53","stresu":"mmol/L","stnrlo":"3.9","stnrhi":"5.6","nrind":"HIGH","fast":null,"dtc":"2024-04-08","dy":"18","visit":"C1D15","visitnum":"3.0","epoch":"TREATMENT","spec":null,"method":null},{"seq":"19","testcd":"HGB","test":"Hemoglobin","cat":"HEMATOLOGY","orres":"128.67","orresu":"g/L","stresc":"128.67","stresn":"128.67","stresu":"g/L","stnrlo":"130","stnrhi":"175","nrind":"LOW","fast":null,"dtc":"2024-04-08","dy":"18","visit":"C1D15","visitnum":"3.0","epoch":"TREATMENT","spec":null,"method":null},{"seq":"20","testcd":"PLAT","test":"Platelets","cat":"HEMATOLOGY","orres":"253.75","orresu":"10^9/L","stresc":"253.75","stresn":"253.75","stresu":"10^9/L","stnrlo":"150","stnrhi":"400","nrind":"NORMAL","fast":null,"dtc":"2024-04-08","dy":"18","visit":"C1D15","visitnum":"3.0","epoch":"TREATMENT","spec":null,"method":null},{"seq":"21","testcd":"WBC","test":"Leukocytes","cat":"HEMATOLOGY","orres":"5.44","orresu":"10^9/L","stresc":"5.44","stresn":"5.44","stresu":"10^9/L","stnrlo":"4.0","stnrhi":"11.0","nrind":"NORMAL","fast":null,"dtc":"2024-04-08","dy":"18","visit":"C1D15","visitnum":"3.0","epoch":"TREATMENT","spec":null,"method":null},{"seq":"22","testcd":"ALT","test":"Alanine Aminotransferase","cat":"CHEMISTRY","orres":"8.15","orresu":"U/L","stresc":"8.15","stresn":"8.15","stresu":"U/L","stnrlo":"7","stnrhi":"56","nrind":"NORMAL","fast":null,"dtc":"2024-04-20","dy":"30","visit":"C2D1","visitnum":"4.0","epoch":"TREATMENT","spec":null,"method":null},{"seq":"23","testcd":"AST","test":"Aspartate Aminotransferase","cat":"CHEMISTRY","orres":"20.34","orresu":"U/L","stresc":"20.34","stresn":"20.34","stresu":"U/L","stnrlo":"10","stnrhi":"40","nrind":"NORMAL","fast":null,"dtc":"2024-04-20","dy":"30","visit":"C2D1","visitnum":"4.0","epoch":"TREATMENT","spec":null,"method":null},{"seq":"24","testcd":"CREAT","test":"Creatinine","cat":"CHEMISTRY","orres":"72.78","orresu":"umol/L","stresc":"72.78","stresn":"72.78","stresu":"umol/L","stnrlo":"62","stnrhi":"106","nrind":"NORMAL","fast":null,"dtc":"2024-04-20","dy":"30","visit":"C2D1","visitnum":"4.0","epoch":"TREATMENT","spec":null,"method":null},{"seq":"25","testcd":"GLUC","test":"Glucose","cat":"CHEMISTRY","orres":"6.41","orresu":"mmol/L","stresc":"6.41","stresn":"6.41","stresu":"mmol/L","stnrlo":"3.9","stnrhi":"5.6","nrind":"HIGH","fast":null,"dtc":"2024-04-20","dy":"30","visit":"C2D1","visitnum":"4.0","epoch":"TREATMENT","spec":null,"method":null},{"seq":"26","testcd":"HGB","test":"Hemoglobin","cat":"HEMATOLOGY","orres":"127.95","orresu":"g/L","stresc":"127.95","stresn":"127.95","stresu":"g/L","stnrlo":"130","stnrhi":"175","nrind":"LOW","fast":null,"dtc":"2024-04-20","dy":"30","visit":"C2D1","visitnum":"4.0","epoch":"TREATMENT","spec":null,"method":null},{"seq":"27","testcd":"PLAT","test":"Platelets","cat":"HEMATOLOGY","orres":"253.88","orresu":"10^9/L","stresc":"253.88","stresn":"253.88","stresu":"10^9/L","stnrlo":"150","stnrhi":"400","nrind":"NORMAL","fast":null,"dtc":"2024-04-20","dy":"30","visit":"C2D1","visitnum":"4.0","epoch":"TREATMENT","spec":null,"method":null},{"seq":"28","testcd":"WBC","test":"Leukocytes","cat":"HEMATOLOGY","orres":"5.81","orresu":"10^9/L","stresc":"5.81","stresn":"5.81","stresu":"10^9/L","stnrlo":"4.0","stnrhi":"11.0","nrind":"NORMAL","fast":null,"dtc":"2024-04-20","dy":"30","visit":"C2D1","visitnum":"4.0","epoch":"TREATMENT","spec":null,"method":null},{"seq":"29","testcd":"ALT","test":"Alanine Aminotransferase","cat":"CHEMISTRY","orres":"10.4","orresu":"U/L","stresc":"10.4","stresn":"10.4","stresu":"U/L","stnrlo":"7","stnrhi":"56","nrind":"NORMAL","fast":null,"dtc":"2024-05-14","dy":"54","visit":"C3D1","visitnum":"5.0","epoch":"TREATMENT","spec":null,"method":null},{"seq":"30","testcd":"AST","test":"Aspartate Aminotransferase","cat":"CHEMISTRY","orres":"20.61","orresu":"U/L","stresc":"20.61","stresn":"20.61","stresu":"U/L","stnrlo":"10","stnrhi":"40","nrind":"NORMAL","fast":null,"dtc":"2024-05-14","dy":"54","visit":"C3D1","visitnum":"5.0","epoch":"TREATMENT","spec":null,"method":null},{"seq":"31","testcd":"CREAT","test":"Creatinine","cat":"CHEMISTRY","orres":"72.09","orresu":"umol/L","stresc":"72.09","stresn":"72.09","stresu":"umol/L","stnrlo":"62","stnrhi":"106","nrind":"NORMAL","fast":null,"dtc":"2024-05-14","dy":"54","visit":"C3D1","visitnum":"5.0","epoch":"TREATMENT","spec":null,"method":null},{"seq":"32","testcd":"GLUC","test":"Glucose","cat":"CHEMISTRY","orres":"6.56","orresu":"mmol/L","stresc":"6.56","stresn":"6.56","stresu":"mmol/L","stnrlo":"3.9","stnrhi":"5.6","nrind":"HIGH","fast":null,"dtc":"2024-05-14","dy":"54","visit":"C3D1","visitnum":"5.0","epoch":"TREATMENT","spec":null,"method":null},{"seq":"33","testcd":"HGB","test":"Hemoglobin","cat":"HEMATOLOGY","orres":"128.03","orresu":"g/L","stresc":"128.03","stresn":"128.03","stresu":"g/L","stnrlo":"130","stnrhi":"175","nrind":"LOW","fast":null,"dtc":"2024-05-14","dy":"54","visit":"C3D1","visitnum":"5.0","epoch":"TREATMENT","spec":null,"method":null},{"seq":"34","testcd":"PLAT","test":"Platelets","cat":"HEMATOLOGY","orres":"240.34","orresu":"10^9/L","stresc":"240.34","stresn":"240.34","stresu":"10^9/L","stnrlo":"150","stnrhi":"400","nrind":"NORMAL","fast":null,"dtc":"2024-05-14","dy":"54","visit":"C3D1","visitnum":"5.0","epoch":"TREATMENT","spec":null,"method":null},{"seq":"35","testcd":"WBC","test":"Leukocytes","cat":"HEMATOLOGY","orres":"6.59","orresu":"10^9/L","stresc":"6.59","stresn":"6.59","stresu":"10^9/L","stnrlo":"4.0","stnrhi":"11.0","nrind":"NORMAL","fast":null,"dtc":"2024-05-14","dy":"54","visit":"C3D1","visitnum":"5.0","epoch":"TREATMENT","spec":null,"method":null},{"seq":"36","testcd":"ALT","test":"Alanine Aminotransferase","cat":"CHEMISTRY","orres":"10.07","orresu":"U/L","stresc":"10.07","stresn":"10.07","stresu":"U/L","stnrlo":"7","stnrhi":"56","nrind":"NORMAL","fast":null,"dtc":"2024-06-14","dy":"85","visit":"C4D1","visitnum":"6.0","epoch":"TREATMENT","spec":null,"method":null},{"seq":"37","testcd":"AST","test":"Aspartate Aminotransferase","cat":"CHEMISTRY","orres":"20.98","orresu":"U/L","stresc":"20.98","stresn":"20.98","stresu":"U/L","stnrlo":"10","stnrhi":"40","nrind":"NORMAL","fast":null,"dtc":"2024-06-14","dy":"85","visit":"C4D1","visitnum":"6.0","epoch":"TREATMENT","spec":null,"method":null},{"seq":"38","testcd":"CREAT","test":"Creatinine","cat":"CHEMISTRY","orres":"71.11","orresu":"umol/L","stresc":"71.11","stresn":"71.11","stresu":"umol/L","stnrlo":"62","stnrhi":"106","nrind":"NORMAL","fast":null,"dtc":"2024-06-14","dy":"85","visit":"C4D1","visitnum":"6.0","epoch":"TREATMENT","spec":null,"method":null},{"seq":"39","testcd":"GLUC","test":"Glucose","cat":"CHEMISTRY","orres":"6.8","orresu":"mmol/L","stresc":"6.8","stresn":"6.8","stresu":"mmol/L","stnrlo":"3.9","stnrhi":"5.6","nrind":"HIGH","fast":null,"dtc":"2024-06-14","dy":"85","visit":"C4D1","visitnum":"6.0","epoch":"TREATMENT","spec":null,"method":null},{"seq":"40","testcd":"HGB","test":"Hemoglobin","cat":"HEMATOLOGY","orres":"126.09","orresu":"g/L","stresc":"126.09","stresn":"126.09","stresu":"g/L","stnrlo":"130","stnrhi":"175","nrind":"LOW","fast":null,"dtc":"2024-06-14","dy":"85","visit":"C4D1","visitnum":"6.0","epoch":"TREATMENT","spec":null,"method":null},{"seq":"41","testcd":"PLAT","test":"Platelets","cat":"HEMATOLOGY","orres":"248.83","orresu":"10^9/L","stresc":"248.83","stresn":"248.83","stresu":"10^9/L","stnrlo":"150","stnrhi":"400","nrind":"NORMAL","fast":null,"dtc":"2024-06-14","dy":"85","visit":"C4D1","visitnum":"6.0","epoch":"TREATMENT","spec":null,"method":null},{"seq":"42","testcd":"WBC","test":"Leukocytes","cat":"HEMATOLOGY","orres":"5.64","orresu":"10^9/L","stresc":"5.64","stresn":"5.64","stresu":"10^9/L","stnrlo":"4.0","stnrhi":"11.0","nrind":"NORMAL","fast":null,"dtc":"2024-06-14","dy":"85","visit":"C4D1","visitnum":"6.0","epoch":"TREATMENT","spec":null,"method":null},{"seq":"43","testcd":"ALT","test":"Alanine Aminotransferase","cat":"CHEMISTRY","orres":"11.18","orresu":"U/L","stresc":"11.18","stresn":"11.18","stresu":"U/L","stnrlo":"7","stnrhi":"56","nrind":"NORMAL","fast":null,"dtc":"2024-08-02","dy":"134","visit":"C6D1","visitnum":"7.0","epoch":"TREATMENT","spec":null,"method":null},{"seq":"44","testcd":"AST","test":"Aspartate Aminotransferase","cat":"CHEMISTRY","orres":"20.41","orresu":"U/L","stresc":"20.41","stresn":"20.41","stresu":"U/L","stnrlo":"10","stnrhi":"40","nrind":"NORMAL","fast":null,"dtc":"2024-08-02","dy":"134","visit":"C6D1","visitnum":"7.0","epoch":"TREATMENT","spec":null,"method":null},{"seq":"45","testcd":"CREAT","test":"Creatinine","cat":"CHEMISTRY","orres":"71.4","orresu":"umol/L","stresc":"71.4","stresn":"71.4","stresu":"umol/L","stnrlo":"62","stnrhi":"106","nrind":"NORMAL","fast":null,"dtc":"2024-08-02","dy":"134","visit":"C6D1","visitnum":"7.0","epoch":"TREATMENT","spec":null,"method":null},{"seq":"46","testcd":"GLUC","test":"Glucose","cat":"CHEMISTRY","orres":"6.78","orresu":"mmol/L","stresc":"6.78","stresn":"6.78","stresu":"mmol/L","stnrlo":"3.9","stnrhi":"5.6","nrind":"HIGH","fast":null,"dtc":"2024-08-02","dy":"134","visit":"C6D1","visitnum":"7.0","epoch":"TREATMENT","spec":null,"method":null},{"seq":"47","testcd":"HGB","test":"Hemoglobin","cat":"HEMATOLOGY","orres":"126.02","orresu":"g/L","stresc":"126.02","stresn":"126.02","stresu":"g/L","stnrlo":"130","stnrhi":"175","nrind":"LOW","fast":null,"dtc":"2024-08-02","dy":"134","visit":"C6D1","visitnum":"7.0","epoch":"TREATMENT","spec":null,"method":null},{"seq":"48","testcd":"PLAT","test":"Platelets","cat":"HEMATOLOGY","orres":"254.11","orresu":"10^9/L","stresc":"254.11","stresn":"254.11","stresu":"10^9/L","stnrlo":"150","stnrhi":"400","nrind":"NORMAL","fast":null,"dtc":"2024-08-02","dy":"134","visit":"C6D1","visitnum":"7.0","epoch":"TREATMENT","spec":null,"method":null},{"seq":"49","testcd":"WBC","test":"Leukocytes","cat":"HEMATOLOGY","orres":"5.31","orresu":"10^9/L","stresc":"5.31","stresn":"5.31","stresu":"10^9/L","stnrlo":"4.0","stnrhi":"11.0","nrind":"NORMAL","fast":null,"dtc":"2024-08-02","dy":"134","visit":"C6D1","visitnum":"7.0","epoch":"TREATMENT","spec":null,"method":null},{"seq":"50","testcd":"ALT","test":"Alanine Aminotransferase","cat":"CHEMISTRY","orres":"12.65","orresu":"U/L","stresc":"12.65","stresn":"12.65","stresu":"U/L","stnrlo":"7","stnrhi":"56","nrind":"NORMAL","fast":null,"dtc":"2024-09-11","dy":"174","visit":"EOT","visitnum":"8.0","epoch":"TREATMENT","spec":null,"method":null},{"seq":"51","testcd":"AST","test":"Aspartate Aminotransferase","cat":"CHEMISTRY","orres":"20.64","orresu":"U/L","stresc":"20.64","stresn":"20.64","stresu":"U/L","stnrlo":"10","stnrhi":"40","nrind":"NORMAL","fast":null,"dtc":"2024-09-11","dy":"174","visit":"EOT","visitnum":"8.0","epoch":"TREATMENT","spec":null,"method":null},{"seq":"52","testcd":"CREAT","test":"Creatinine","cat":"CHEMISTRY","orres":"68.6","orresu":"umol/L","stresc":"68.6","stresn":"68.6","stresu":"umol/L","stnrlo":"62","stnrhi":"106","nrind":"NORMAL","fast":null,"dtc":"2024-09-11","dy":"174","visit":"EOT","visitnum":"8.0","epoch":"TREATMENT","spec":null,"method":null},{"seq":"53","testcd":"GLUC","test":"Glucose","cat":"CHEMISTRY","orres":"6.8","orresu":"mmol/L","stresc":"6.8","stresn":"6.8","stresu":"mmol/L","stnrlo":"3.9","stnrhi":"5.6","nrind":"HIGH","fast":null,"dtc":"2024-09-11","dy":"174","visit":"EOT","visitnum":"8.0","epoch":"TREATMENT","spec":null,"method":null},{"seq":"54","testcd":"HGB","test":"Hemoglobin","cat":"HEMATOLOGY","orres":"125.07","orresu":"g/L","stresc":"125.07","stresn":"125.07","stresu":"g/L","stnrlo":"130","stnrhi":"175","nrind":"LOW","fast":null,"dtc":"2024-09-11","dy":"174","visit":"EOT","visitnum":"8.0","epoch":"TREATMENT","spec":null,"method":null},{"seq":"55","testcd":"PLAT","test":"Platelets","cat":"HEMATOLOGY","orres":"253.84","orresu":"10^9/L","stresc":"253.84","stresn":"253.84","stresu":"10^9/L","stnrlo":"150","stnrhi":"400","nrind":"NORMAL","fast":null,"dtc":"2024-09-11","dy":"174","visit":"EOT","visitnum":"8.0","epoch":"TREATMENT","spec":null,"method":null},{"seq":"56","testcd":"WBC","test":"Leukocytes","cat":"HEMATOLOGY","orres":"5.93","orresu":"10^9/L","stresc":"5.93","stresn":"5.93","stresu":"10^9/L","stnrlo":"4.0","stnrhi":"11.0","nrind":"NORMAL","fast":null,"dtc":"2024-09-11","dy":"174","visit":"EOT","visitnum":"8.0","epoch":"TREATMENT","spec":null,"method":null},{"seq":"57","testcd":"ALT","test":"Alanine Aminotransferase","cat":"CHEMISTRY","orres":"12.29","orresu":"U/L","stresc":"12.29","stresn":"12.29","stresu":"U/L","stnrlo":"7","stnrhi":"56","nrind":"NORMAL","fast":null,"dtc":"2024-10-07","dy":"200","visit":"FOLLOW-UP","visitnum":"9.0","epoch":"FOLLOW-UP","spec":null,"method":null},{"seq":"58","testcd":"AST","test":"Aspartate Aminotransferase","cat":"CHEMISTRY","orres":"20.72","orresu":"U/L","stresc":"20.72","stresn":"20.72","stresu":"U/L","stnrlo":"10","stnrhi":"40","nrind":"NORMAL","fast":null,"dtc":"2024-10-07","dy":"200","visit":"FOLLOW-UP","visitnum":"9.0","epoch":"FOLLOW-UP","spec":null,"method":null},{"seq":"59","testcd":"CREAT","test":"Creatinine","cat":"CHEMISTRY","orres":null,"orresu":null,"stresc":null,"stresn":null,"stresu":null,"stnrlo":null,"stnrhi":null,"nrind":null,"fast":null,"dtc":"2024-10-07","dy":"200","visit":"FOLLOW-UP","visitnum":"9.0","epoch":"FOLLOW-UP","spec":null,"method":null},{"seq":"60","testcd":"GLUC","test":"Glucose","cat":"CHEMISTRY","orres":"6.7","orresu":"mmol/L","stresc":"6.7","stresn":"6.7","stresu":"mmol/L","stnrlo":"3.9","stnrhi":"5.6","nrind":"HIGH","fast":null,"dtc":"2024-10-07","dy":"200","visit":"FOLLOW-UP","visitnum":"9.0","epoch":"FOLLOW-UP","spec":null,"method":null},{"seq":"61","testcd":"HGB","test":"Hemoglobin","cat":"HEMATOLOGY","orres":"127.13","orresu":"g/L","stresc":"127.13","stresn":"127.13","stresu":"g/L","stnrlo":"130","stnrhi":"175","nrind":"LOW","fast":null,"dtc":"2024-10-07","dy":"200","visit":"FOLLOW-UP","visitnum":"9.0","epoch":"FOLLOW-UP","spec":null,"method":null},{"seq":"62","testcd":"PLAT","test":"Platelets","cat":"HEMATOLOGY","orres":"241.36","orresu":"10^9/L","stresc":"241.36","stresn":"241.36","stresu":"10^9/L","stnrlo":"150","stnrhi":"400","nrind":"NORMAL","fast":null,"dtc":"2024-10-07","dy":"200","visit":"FOLLOW-UP","visitnum":"9.0","epoch":"FOLLOW-UP","spec":null,"method":null},{"seq":"63","testcd":"WBC","test":"Leukocytes","cat":"HEMATOLOGY","orres":"6.25","orresu":"10^9/L","stresc":"6.25","stresn":"6.25","stresu":"10^9/L","stnrlo":"4.0","stnrhi":"11.0","nrind":"NORMAL","fast":null,"dtc":"2024-10-07","dy":"200","visit":"FOLLOW-UP","visitnum":"9.0","epoch":"FOLLOW-UP","spec":null,"method":null}]},"section_9_vital_signs":{"summary":{"total_records":71},"trends":{"BMI":[{"visit":"SCREENING","visitnum":"1.0","dtc":"2024-01-27","value":"19.4","unit":"kg/m2"},{"visit":"C1D1","visitnum":"2.0","dtc":"2024-03-22","value":"19.4","unit":"kg/m2"},{"visit":"C1D15","visitnum":"3.0","dtc":"2024-04-08","value":"20.2","unit":"kg/m2"},{"visit":"C2D1","visitnum":"4.0","dtc":"2024-04-20","value":"20.7","unit":"kg/m2"},{"visit":"C3D1","visitnum":"5.0","dtc":"2024-05-14","value":"20.9","unit":"kg/m2"},{"visit":"C4D1","visitnum":"6.0","dtc":"2024-06-14","value":"21.8","unit":"kg/m2"},{"visit":"C6D1","visitnum":"7.0","dtc":"2024-08-02","value":"21.1","unit":"kg/m2"},{"visit":"FOLLOW-UP","visitnum":"9.0","dtc":"2024-10-07","value":"20.7","unit":"kg/m2"}],"DIABP":[{"visit":"SCREENING","visitnum":"1.0","dtc":"2024-01-27","value":"68.6","unit":"mmHg"},{"visit":"C1D1","visitnum":"2.0","dtc":"2024-03-22","value":"68.8","unit":"mmHg"},{"visit":"C1D15","visitnum":"3.0","dtc":"2024-04-08","value":"69.5","unit":"mmHg"},{"visit":"C2D1","visitnum":"4.0","dtc":"2024-04-20","value":"70.9","unit":"mmHg"},{"visit":"C3D1","visitnum":"5.0","dtc":"2024-05-14","value":"70.9","unit":"mmHg"},{"visit":"C4D1","visitnum":"6.0","dtc":"2024-06-14","value":"69.7","unit":"mmHg"},{"visit":"C6D1","visitnum":"7.0","dtc":"2024-08-02","value":"69.4","unit":"mmHg"},{"visit":"EOT","visitnum":"8.0","dtc":"2024-09-11","value":"70.4","unit":"mmHg"},{"visit":"FOLLOW-UP","visitnum":"9.0","dtc":"2024-10-07","value":"69.6","unit":"mmHg"}],"HEIGHT":[{"visit":"SCREENING","visitnum":"1.0","dtc":"2024-01-27","value":"162.6","unit":"cm"},{"visit":"C1D1","visitnum":"2.0","dtc":"2024-03-22","value":"163.2","unit":"cm"},{"visit":"C1D15","visitnum":"3.0","dtc":"2024-04-08","value":"162.1","unit":"cm"},{"visit":"C2D1","visitnum":"4.0","dtc":"2024-04-20","value":"162.8","unit":"cm"},{"visit":"C3D1","visitnum":"5.0","dtc":"2024-05-14","value":"163.0","unit":"cm"},{"visit":"C4D1","visitnum":"6.0","dtc":"2024-06-14","value":"163.1","unit":"cm"},{"visit":"C6D1","visitnum":"7.0","dtc":"2024-08-02","value":"163.5","unit":"cm"},{"visit":"FOLLOW-UP","visitnum":"9.0","dtc":"2024-10-07","value":"163.3","unit":"cm"}],"PULSE":[{"visit":"SCREENING","visitnum":"1.0","dtc":"2024-01-27","value":"42.2","unit":"beats/min"},{"visit":"C1D1","visitnum":"2.0","dtc":"2024-03-22","value":"41.9","unit":"beats/min"},{"visit":"C1D15","visitnum":"3.0","dtc":"2024-04-08","value":"40.0","unit":"beats/min"},{"visit":"C2D1","visitnum":"4.0","dtc":"2024-04-20","value":"40.0","unit":"beats/min"},{"visit":"C3D1","visitnum":"5.0","dtc":"2024-05-14","value":"42.9","unit":"beats/min"},{"visit":"C4D1","visitnum":"6.0","dtc":"2024-06-14","value":"40.0","unit":"beats/min"},{"visit":"C6D1","visitnum":"7.0","dtc":"2024-08-02","value":"40.0","unit":"beats/min"},{"visit":"EOT","visitnum":"8.0","dtc":"2024-09-11","value":"40.0","unit":"beats/min"},{"visit":"FOLLOW-UP","visitnum":"9.0","dtc":"2024-10-07","value":"40.0","unit":"beats/min"}],"RESP":[{"visit":"SCREENING","visitnum":"1.0","dtc":"2024-01-27","value":"13.8","unit":"breaths/min"},{"visit":"C1D1","visitnum":"2.0","dtc":"2024-03-22","value":"16.6","unit":"breaths/min"},{"visit":"C1D15","visitnum":"3.0","dtc":"2024-04-08","value":"16.8","unit":"breaths/min"},{"visit":"C2D1","visitnum":"4.0","dtc":"2024-04-20","value":"15.7","unit":"breaths/min"},{"visit":"C3D1","visitnum":"5.0","dtc":"2024-05-14","value":"16.6","unit":"breaths/min"},{"visit":"C4D1","visitnum":"6.0","dtc":"2024-06-14","value":"15.2","unit":"breaths/min"},{"visit":"C6D1","visitnum":"7.0","dtc":"2024-08-02","value":"15.4","unit":"breaths/min"},{"visit":"EOT","visitnum":"8.0","dtc":"2024-09-11","value":"14.6","unit":"breaths/min"},{"visit":"FOLLOW-UP","visitnum":"9.0","dtc":"2024-10-07","value":"15.0","unit":"breaths/min"}],"SYSBP":[{"visit":"SCREENING","visitnum":"1.0","dtc":"2024-01-27","value":"138.2","unit":"mmHg"},{"visit":"C1D1","visitnum":"2.0","dtc":"2024-03-22","value":"138.0","unit":"mmHg"},{"visit":"C1D15","visitnum":"3.0","dtc":"2024-04-08","value":"139.1","unit":"mmHg"},{"visit":"C2D1","visitnum":"4.0","dtc":"2024-04-20","value":"140.8","unit":"mmHg"},{"visit":"C3D1","visitnum":"5.0","dtc":"2024-05-14","value":"137.6","unit":"mmHg"},{"visit":"C4D1","visitnum":"6.0","dtc":"2024-06-14","value":"135.8","unit":"mmHg"},{"visit":"C6D1","visitnum":"7.0","dtc":"2024-08-02","value":"135.3","unit":"mmHg"},{"visit":"EOT","visitnum":"8.0","dtc":"2024-09-11","value":"138.2","unit":"mmHg"},{"visit":"FOLLOW-UP","visitnum":"9.0","dtc":"2024-10-07","value":"137.0","unit":"mmHg"}],"TEMP":[{"visit":"SCREENING","visitnum":"1.0","dtc":"2024-01-27","value":"37.0","unit":"C"},{"visit":"C1D1","visitnum":"2.0","dtc":"2024-03-22","value":"37.2","unit":"C"},{"visit":"C1D15","visitnum":"3.0","dtc":"2024-04-08","value":"37.0","unit":"C"},{"visit":"C2D1","visitnum":"4.0","dtc":"2024-04-20","value":"37.1","unit":"C"},{"visit":"C3D1","visitnum":"5.0","dtc":"2024-05-14","value":"37.0","unit":"C"},{"visit":"C4D1","visitnum":"6.0","dtc":"2024-06-14","value":"37.2","unit":"C"},{"visit":"C6D1","visitnum":"7.0","dtc":"2024-08-02","value":"36.7","unit":"C"},{"visit":"EOT","visitnum":"8.0","dtc":"2024-09-11","value":"36.9","unit":"C"},{"visit":"FOLLOW-UP","visitnum":"9.0","dtc":"2024-10-07","value":"36.8","unit":"C"}],"WEIGHT":[{"visit":"SCREENING","visitnum":"1.0","dtc":"2024-01-27","value":"51.4","unit":"kg"},{"visit":"C1D1","visitnum":"2.0","dtc":"2024-03-22","value":"51.8","unit":"kg"},{"visit":"C1D15","visitnum":"3.0","dtc":"2024-04-08","value":"53.1","unit":"kg"},{"visit":"C2D1","visitnum":"4.0","dtc":"2024-04-20","value":"54.9","unit":"kg"},{"visit":"C3D1","visitnum":"5.0","dtc":"2024-05-14","value":"55.6","unit":"kg"},{"visit":"C4D1","visitnum":"6.0","dtc":"2024-06-14","value":"58.1","unit":"kg"},{"visit":"C6D1","visitnum":"7.0","dtc":"2024-08-02","value":"56.5","unit":"kg"},{"visit":"EOT","visitnum":"8.0","dtc":"2024-09-11","value":"54.9","unit":"kg"},{"visit":"FOLLOW-UP","visitnum":"9.0","dtc":"2024-10-07","value":"55.2","unit":"kg"}]},"results":[{"seq":"1","testcd":"BMI","test":"BMI","cat":null,"orres":"19.4","orresu":"kg/m2","stresc":"19.4","stresn":"19.4","stresu":"kg/m2","stnrlo":null,"stnrhi":null,"nrind":null,"pos":null,"loc":null,"dtc":"2024-01-27","dy":"-55","visit":"SCREENING","visitnum":"1.0","epoch":"SCREENING"},{"seq":"2","testcd":"DIABP","test":"Diastolic Blood Pressure","cat":null,"orres":"68.6","orresu":"mmHg","stresc":"68.6","stresn":"68.6","stresu":"mmHg","stnrlo":null,"stnrhi":null,"nrind":null,"pos":null,"loc":null,"dtc":"2024-01-27","dy":"-55","visit":"SCREENING","visitnum":"1.0","epoch":"SCREENING"},{"seq":"3","testcd":"HEIGHT","test":"Height","cat":null,"orres":"162.6","orresu":"cm","stresc":"162.6","stresn":"162.6","stresu":"cm","stnrlo":null,"stnrhi":null,"nrind":null,"pos":null,"loc":null,"dtc":"2024-01-27","dy":"-55","visit":"SCREENING","visitnum":"1.0","epoch":"SCREENING"},{"seq":"4","testcd":"PULSE","test":"Pulse Rate","cat":null,"orres":"42.2","orresu":"beats/min","stresc":"42.2","stresn":"42.2","stresu":"beats/min","stnrlo":null,"stnrhi":null,"nrind":null,"pos":null,"loc":null,"dtc":"2024-01-27","dy":"-55","visit":"SCREENING","visitnum":"1.0","epoch":"SCREENING"},{"seq":"5","testcd":"RESP","test":"Respiratory Rate","cat":null,"orres":"13.8","orresu":"breaths/min","stresc":"13.8","stresn":"13.8","stresu":"breaths/min","stnrlo":null,"stnrhi":null,"nrind":null,"pos":null,"loc":null,"dtc":"2024-01-27","dy":"-55","visit":"SCREENING","visitnum":"1.0","epoch":"SCREENING"},{"seq":"6","testcd":"SYSBP","test":"Systolic Blood Pressure","cat":null,"orres":"138.2","orresu":"mmHg","stresc":"138.2","stresn":"138.2","stresu":"mmHg","stnrlo":null,"stnrhi":null,"nrind":null,"pos":null,"loc":null,"dtc":"2024-01-27","dy":"-55","visit":"SCREENING","visitnum":"1.0","epoch":"SCREENING"},{"seq":"7","testcd":"TEMP","test":"Temperature","cat":null,"orres":"37.0","orresu":"C","stresc":"37.0","stresn":"37.0","stresu":"C","stnrlo":null,"stnrhi":null,"nrind":null,"pos":null,"loc":null,"dtc":"2024-01-27","dy":"-55","visit":"SCREENING","visitnum":"1.0","epoch":"SCREENING"},{"seq":"8","testcd":"WEIGHT","test":"Weight","cat":null,"orres":"51.4","orresu":"kg","stresc":"51.4","stresn":"51.4","stresu":"kg","stnrlo":null,"stnrhi":null,"nrind":null,"pos":null,"loc":null,"dtc":"2024-01-27","dy":"-55","visit":"SCREENING","visitnum":"1.0","epoch":"SCREENING"},{"seq":"9","testcd":"BMI","test":"BMI","cat":null,"orres":"19.4","orresu":"kg/m2","stresc":"19.4","stresn":"19.4","stresu":"kg/m2","stnrlo":null,"stnrhi":null,"nrind":null,"pos":null,"loc":null,"dtc":"2024-03-22","dy":"1","visit":"C1D1","visitnum":"2.0","epoch":"TREATMENT"},{"seq":"10","testcd":"DIABP","test":"Diastolic Blood Pressure","cat":null,"orres":"68.8","orresu":"mmHg","stresc":"68.8","stresn":"68.8","stresu":"mmHg","stnrlo":null,"stnrhi":null,"nrind":null,"pos":null,"loc":null,"dtc":"2024-03-22","dy":"1","visit":"C1D1","visitnum":"2.0","epoch":"TREATMENT"},{"seq":"11","testcd":"HEIGHT","test":"Height","cat":null,"orres":"163.2","orresu":"cm","stresc":"163.2","stresn":"163.2","stresu":"cm","stnrlo":null,"stnrhi":null,"nrind":null,"pos":null,"loc":null,"dtc":"2024-03-22","dy":"1","visit":"C1D1","visitnum":"2.0","epoch":"TREATMENT"},{"seq":"12","testcd":"PULSE","test":"Pulse Rate","cat":null,"orres":"41.9","orresu":"beats/min","stresc":"41.9","stresn":"41.9","stresu":"beats/min","stnrlo":null,"stnrhi":null,"nrind":null,"pos":null,"loc":null,"dtc":"2024-03-22","dy":"1","visit":"C1D1","visitnum":"2.0","epoch":"TREATMENT"},{"seq":"13","testcd":"RESP","test":"Respiratory Rate","cat":null,"orres":"16.6","orresu":"breaths/min","stresc":"16.6","stresn":"16.6","stresu":"breaths/min","stnrlo":null,"stnrhi":null,"nrind":null,"pos":null,"loc":null,"dtc":"2024-03-22","dy":"1","visit":"C1D1","visitnum":"2.0","epoch":"TREATMENT"},{"seq":"14","testcd":"SYSBP","test":"Systolic Blood Pressure","cat":null,"orres":"138.0","orresu":"mmHg","stresc":"138.0","stresn":"138.0","stresu":"mmHg","stnrlo":null,"stnrhi":null,"nrind":null,"pos":null,"loc":null,"dtc":"2024-03-22","dy":"1","visit":"C1D1","visitnum":"2.0","epoch":"TREATMENT"},{"seq":"15","testcd":"TEMP","test":"Temperature","cat":null,"orres":"37.2","orresu":"C","stresc":"37.2","stresn":"37.2","stresu":"C","stnrlo":null,"stnrhi":null,"nrind":null,"pos":null,"loc":null,"dtc":"2024-03-22","dy":"1","visit":"C1D1","visitnum":"2.0","epoch":"TREATMENT"},{"seq":"16","testcd":"WEIGHT","test":"Weight","cat":null,"orres":"51.8","orresu":"kg","stresc":"51.8","stresn":"51.8","stresu":"kg","stnrlo":null,"stnrhi":null,"nrind":null,"pos":null,"loc":null,"dtc":"2024-03-22","dy":"1","visit":"C1D1","visitnum":"2.0","epoch":"TREATMENT"},{"seq":"17","testcd":"BMI","test":"BMI","cat":null,"orres":"20.2","orresu":"kg/m2","stresc":"20.2","stresn":"20.2","stresu":"kg/m2","stnrlo":null,"stnrhi":null,"nrind":null,"pos":null,"loc":null,"dtc":"2024-04-08","dy":"18","visit":"C1D15","visitnum":"3.0","epoch":"TREATMENT"},{"seq":"18","testcd":"DIABP","test":"Diastolic Blood Pressure","cat":null,"orres":"69.5","orresu":"mmHg","stresc":"69.5","stresn":"69.5","stresu":"mmHg","stnrlo":null,"stnrhi":null,"nrind":null,"pos":null,"loc":null,"dtc":"2024-04-08","dy":"18","visit":"C1D15","visitnum":"3.0","epoch":"TREATMENT"},{"seq":"19","testcd":"HEIGHT","test":"Height","cat":null,"orres":"162.1","orresu":"cm","stresc":"162.1","stresn":"162.1","stresu":"cm","stnrlo":null,"stnrhi":null,"nrind":null,"pos":null,"loc":null,"dtc":"2024-04-08","dy":"18","visit":"C1D15","visitnum":"3.0","epoch":"TREATMENT"},{"seq":"20","testcd":"PULSE","test":"Pulse Rate","cat":null,"orres":"40.0","orresu":"beats/min","stresc":"40.0","stresn":"40.0","stresu":"beats/min","stnrlo":null,"stnrhi":null,"nrind":null,"pos":null,"loc":null,"dtc":"2024-04-08","dy":"18","visit":"C1D15","visitnum":"3.0","epoch":"TREATMENT"},{"seq":"21","testcd":"RESP","test":"Respiratory Rate","cat":null,"orres":"16.8","orresu":"breaths/min","stresc":"16.8","stresn":"16.8","stresu":"breaths/min","stnrlo":null,"stnrhi":null,"nrind":null,"pos":null,"loc":null,"dtc":"2024-04-08","dy":"18","visit":"C1D15","visitnum":"3.0","epoch":"TREATMENT"},{"seq":"22","testcd":"SYSBP","test":"Systolic Blood Pressure","cat":null,"orres":"139.1","orresu":"mmHg","stresc":"139.1","stresn":"139.1","stresu":"mmHg","stnrlo":null,"stnrhi":null,"nrind":null,"pos":null,"loc":null,"dtc":"2024-04-08","dy":"18","visit":"C1D15","visitnum":"3.0","epoch":"TREATMENT"},{"seq":"23","testcd":"TEMP","test":"Temperature","cat":null,"orres":"37.0","orresu":"C","stresc":"37.0","stresn":"37.0","stresu":"C","stnrlo":null,"stnrhi":null,"nrind":null,"pos":null,"loc":null,"dtc":"2024-04-08","dy":"18","visit":"C1D15","visitnum":"3.0","epoch":"TREATMENT"},{"seq":"24","testcd":"WEIGHT","test":"Weight","cat":null,"orres":"53.1","orresu":"kg","stresc":"53.1","stresn":"53.1","stresu":"kg","stnrlo":null,"stnrhi":null,"nrind":null,"pos":null,"loc":null,"dtc":"2024-04-08","dy":"18","visit":"C1D15","visitnum":"3.0","epoch":"TREATMENT"},{"seq":"25","testcd":"BMI","test":"BMI","cat":null,"orres":"20.7","orresu":"kg/m2","stresc":"20.7","stresn":"20.7","stresu":"kg/m2","stnrlo":null,"stnrhi":null,"nrind":null,"pos":null,"loc":null,"dtc":"2024-04-20","dy":"30","visit":"C2D1","visitnum":"4.0","epoch":"TREATMENT"},{"seq":"26","testcd":"DIABP","test":"Diastolic Blood Pressure","cat":null,"orres":"70.9","orresu":"mmHg","stresc":"70.9","stresn":"70.9","stresu":"mmHg","stnrlo":null,"stnrhi":null,"nrind":null,"pos":null,"loc":null,"dtc":"2024-04-20","dy":"30","visit":"C2D1","visitnum":"4.0","epoch":"TREATMENT"},{"seq":"27","testcd":"HEIGHT","test":"Height","cat":null,"orres":"162.8","orresu":"cm","stresc":"162.8","stresn":"162.8","stresu":"cm","stnrlo":null,"stnrhi":null,"nrind":null,"pos":null,"loc":null,"dtc":"2024-04-20","dy":"30","visit":"C2D1","visitnum":"4.0","epoch":"TREATMENT"},{"seq":"28","testcd":"PULSE","test":"Pulse Rate","cat":null,"orres":"40.0","orresu":"beats/min","stresc":"40.0","stresn":"40.0","stresu":"beats/min","stnrlo":null,"stnrhi":null,"nrind":null,"pos":null,"loc":null,"dtc":"2024-04-20","dy":"30","visit":"C2D1","visitnum":"4.0","epoch":"TREATMENT"},{"seq":"29","testcd":"RESP","test":"Respiratory Rate","cat":null,"orres":"15.7","orresu":"breaths/min","stresc":"15.7","stresn":"15.7","stresu":"breaths/min","stnrlo":null,"stnrhi":null,"nrind":null,"pos":null,"loc":null,"dtc":"2024-04-20","dy":"30","visit":"C2D1","visitnum":"4.0","epoch":"TREATMENT"},{"seq":"30","testcd":"SYSBP","test":"Systolic Blood Pressure","cat":null,"orres":"140.8","orresu":"mmHg","stresc":"140.8","stresn":"140.8","stresu":"mmHg","stnrlo":null,"stnrhi":null,"nrind":null,"pos":null,"loc":null,"dtc":"2024-04-20","dy":"30","visit":"C2D1","visitnum":"4.0","epoch":"TREATMENT"},{"seq":"31","testcd":"TEMP","test":"Temperature","cat":null,"orres":"37.1","orresu":"C","stresc":"37.1","stresn":"37.1","stresu":"C","stnrlo":null,"stnrhi":null,"nrind":null,"pos":null,"loc":null,"dtc":"2024-04-20","dy":"30","visit":"C2D1","visitnum":"4.0","epoch":"TREATMENT"},{"seq":"32","testcd":"WEIGHT","test":"Weight","cat":null,"orres":"54.9","orresu":"kg","stresc":"54.9","stresn":"54.9","stresu":"kg","stnrlo":null,"stnrhi":null,"nrind":null,"pos":null,"loc":null,"dtc":"2024-04-20","dy":"30","visit":"C2D1","visitnum":"4.0","epoch":"TREATMENT"},{"seq":"33","testcd":"BMI","test":"BMI","cat":null,"orres":"20.9","orresu":"kg/m2","stresc":"20.9","stresn":"20.9","stresu":"kg/m2","stnrlo":null,"stnrhi":null,"nrind":null,"pos":null,"loc":null,"dtc":"2024-05-14","dy":"54","visit":"C3D1","visitnum":"5.0","epoch":"TREATMENT"},{"seq":"34","testcd":"DIABP","test":"Diastolic Blood Pressure","cat":null,"orres":"70.9","orresu":"mmHg","stresc":"70.9","stresn":"70.9","stresu":"mmHg","stnrlo":null,"stnrhi":null,"nrind":null,"pos":null,"loc":null,"dtc":"2024-05-14","dy":"54","visit":"C3D1","visitnum":"5.0","epoch":"TREATMENT"},{"seq":"35","testcd":"HEIGHT","test":"Height","cat":null,"orres":"163.0","orresu":"cm","stresc":"163.0","stresn":"163.0","stresu":"cm","stnrlo":null,"stnrhi":null,"nrind":null,"pos":null,"loc":null,"dtc":"2024-05-14","dy":"54","visit":"C3D1","visitnum":"5.0","epoch":"TREATMENT"},{"seq":"36","testcd":"PULSE","test":"Pulse Rate","cat":null,"orres":"42.9","orresu":"beats/min","stresc":"42.9","stresn":"42.9","stresu":"beats/min","stnrlo":null,"stnrhi":null,"nrind":null,"pos":null,"loc":null,"dtc":"2024-05-14","dy":"54","visit":"C3D1","visitnum":"5.0","epoch":"TREATMENT"},{"seq":"37","testcd":"RESP","test":"Respiratory Rate","cat":null,"orres":"16.6","orresu":"breaths/min","stresc":"16.6","stresn":"16.6","stresu":"breaths/min","stnrlo":null,"stnrhi":null,"nrind":null,"pos":null,"loc":null,"dtc":"2024-05-14","dy":"54","visit":"C3D1","visitnum":"5.0","epoch":"TREATMENT"},{"seq":"38","testcd":"SYSBP","test":"Systolic Blood Pressure","cat":null,"orres":"137.6","orresu":"mmHg","stresc":"137.6","stresn":"137.6","stresu":"mmHg","stnrlo":null,"stnrhi":null,"nrind":null,"pos":null,"loc":null,"dtc":"2024-05-14","dy":"54","visit":"C3D1","visitnum":"5.0","epoch":"TREATMENT"},{"seq":"39","testcd":"TEMP","test":"Temperature","cat":null,"orres":"37.0","orresu":"C","stresc":"37.0","stresn":"37.0","stresu":"C","stnrlo":null,"stnrhi":null,"nrind":null,"pos":null,"loc":null,"dtc":"2024-05-14","dy":"54","visit":"C3D1","visitnum":"5.0","epoch":"TREATMENT"},{"seq":"40","testcd":"WEIGHT","test":"Weight","cat":null,"orres":"55.6","orresu":"kg","stresc":"55.6","stresn":"55.6","stresu":"kg","stnrlo":null,"stnrhi":null,"nrind":null,"pos":null,"loc":null,"dtc":"2024-05-14","dy":"54","visit":"C3D1","visitnum":"5.0","epoch":"TREATMENT"},{"seq":"41","testcd":"BMI","test":"BMI","cat":null,"orres":"21.8","orresu":"kg/m2","stresc":"21.8","stresn":"21.8","stresu":"kg/m2","stnrlo":null,"stnrhi":null,"nrind":null,"pos":null,"loc":null,"dtc":"2024-06-14","dy":"85","visit":"C4D1","visitnum":"6.0","epoch":"TREATMENT"},{"seq":"42","testcd":"DIABP","test":"Diastolic Blood Pressure","cat":null,"orres":"69.7","orresu":"mmHg","stresc":"69.7","stresn":"69.7","stresu":"mmHg","stnrlo":null,"stnrhi":null,"nrind":null,"pos":null,"loc":null,"dtc":"2024-06-14","dy":"85","visit":"C4D1","visitnum":"6.0","epoch":"TREATMENT"},{"seq":"43","testcd":"HEIGHT","test":"Height","cat":null,"orres":"163.1","orresu":"cm","stresc":"163.1","stresn":"163.1","stresu":"cm","stnrlo":null,"stnrhi":null,"nrind":null,"pos":null,"loc":null,"dtc":"2024-06-14","dy":"85","visit":"C4D1","visitnum":"6.0","epoch":"TREATMENT"},{"seq":"44","testcd":"PULSE","test":"Pulse Rate","cat":null,"orres":"40.0","orresu":"beats/min","stresc":"40.0","stresn":"40.0","stresu":"beats/min","stnrlo":null,"stnrhi":null,"nrind":null,"pos":null,"loc":null,"dtc":"2024-06-14","dy":"85","visit":"C4D1","visitnum":"6.0","epoch":"TREATMENT"},{"seq":"45","testcd":"RESP","test":"Respiratory Rate","cat":null,"orres":"15.2","orresu":"breaths/min","stresc":"15.2","stresn":"15.2","stresu":"breaths/min","stnrlo":null,"stnrhi":null,"nrind":null,"pos":null,"loc":null,"dtc":"2024-06-14","dy":"85","visit":"C4D1","visitnum":"6.0","epoch":"TREATMENT"},{"seq":"46","testcd":"SYSBP","test":"Systolic Blood Pressure","cat":null,"orres":"135.8","orresu":"mmHg","stresc":"135.8","stresn":"135.8","stresu":"mmHg","stnrlo":null,"stnrhi":null,"nrind":null,"pos":null,"loc":null,"dtc":"2024-06-14","dy":"85","visit":"C4D1","visitnum":"6.0","epoch":"TREATMENT"},{"seq":"47","testcd":"TEMP","test":"Temperature","cat":null,"orres":"37.2","orresu":"C","stresc":"37.2","stresn":"37.2","stresu":"C","stnrlo":null,"stnrhi":null,"nrind":null,"pos":null,"loc":null,"dtc":"2024-06-14","dy":"85","visit":"C4D1","visitnum":"6.0","epoch":"TREATMENT"},{"seq":"48","testcd":"WEIGHT","test":"Weight","cat":null,"orres":"58.1","orresu":"kg","stresc":"58.1","stresn":"58.1","stresu":"kg","stnrlo":null,"stnrhi":null,"nrind":null,"pos":null,"loc":null,"dtc":"2024-06-14","dy":"85","visit":"C4D1","visitnum":"6.0","epoch":"TREATMENT"},{"seq":"49","testcd":"BMI","test":"BMI","cat":null,"orres":"21.1","orresu":"kg/m2","stresc":"21.1","stresn":"21.1","stresu":"kg/m2","stnrlo":null,"stnrhi":null,"nrind":null,"pos":null,"loc":null,"dtc":"2024-08-02","dy":"134","visit":"C6D1","visitnum":"7.0","epoch":"TREATMENT"},{"seq":"50","testcd":"DIABP","test":"Diastolic Blood Pressure","cat":null,"orres":"69.4","orresu":"mmHg","stresc":"69.4","stresn":"69.4","stresu":"mmHg","stnrlo":null,"stnrhi":null,"nrind":null,"pos":null,"loc":null,"dtc":"2024-08-02","dy":"134","visit":"C6D1","visitnum":"7.0","epoch":"TREATMENT"},{"seq":"51","testcd":"HEIGHT","test":"Height","cat":null,"orres":"163.5","orresu":"cm","stresc":"163.5","stresn":"163.5","stresu":"cm","stnrlo":null,"stnrhi":null,"nrind":null,"pos":null,"loc":null,"dtc":"2024-08-02","dy":"134","visit":"C6D1","visitnum":"7.0","epoch":"TREATMENT"},{"seq":"52","testcd":"PULSE","test":"Pulse Rate","cat":null,"orres":"40.0","orresu":"beats/min","stresc":"40.0","stresn":"40.0","stresu":"beats/min","stnrlo":null,"stnrhi":null,"nrind":null,"pos":null,"loc":null,"dtc":"2024-08-02","dy":"134","visit":"C6D1","visitnum":"7.0","epoch":"TREATMENT"},{"seq":"53","testcd":"RESP","test":"Respiratory Rate","cat":null,"orres":"15.4","orresu":"breaths/min","stresc":"15.4","stresn":"15.4","stresu":"breaths/min","stnrlo":null,"stnrhi":null,"nrind":null,"pos":null,"loc":null,"dtc":"2024-08-02","dy":"134","visit":"C6D1","visitnum":"7.0","epoch":"TREATMENT"},{"seq":"54","testcd":"SYSBP","test":"Systolic Blood Pressure","cat":null,"orres":"135.3","orresu":"mmHg","stresc":"135.3","stresn":"135.3","stresu":"mmHg","stnrlo":null,"stnrhi":null,"nrind":null,"pos":null,"loc":null,"dtc":"2024-08-02","dy":"134","visit":"C6D1","visitnum":"7.0","epoch":"TREATMENT"},{"seq":"55","testcd":"TEMP","test":"Temperature","cat":null,"orres":"36.7","orresu":"C","stresc":"36.7","stresn":"36.7","stresu":"C","stnrlo":null,"stnrhi":null,"nrind":null,"pos":null,"loc":null,"dtc":"2024-08-02","dy":"134","visit":"C6D1","visitnum":"7.0","epoch":"TREATMENT"},{"seq":"56","testcd":"WEIGHT","test":"Weight","cat":null,"orres":"56.5","orresu":"kg","stresc":"56.5","stresn":"56.5","stresu":"kg","stnrlo":null,"stnrhi":null,"nrind":null,"pos":null,"loc":null,"dtc":"2024-08-02","dy":"134","visit":"C6D1","visitnum":"7.0","epoch":"TREATMENT"},{"seq":"57","testcd":"DIABP","test":"Diastolic Blood Pressure","cat":null,"orres":"70.4","orresu":"mmHg","stresc":"70.4","stresn":"70.4","stresu":"mmHg","stnrlo":null,"stnrhi":null,"nrind":null,"pos":null,"loc":null,"dtc":"2024-09-11","dy":"174","visit":"EOT","visitnum":"8.0","epoch":"TREATMENT"},{"seq":"58","testcd":"HEIGHT","test":"Height","cat":null,"orres":null,"orresu":null,"stresc":null,"stresn":null,"stresu":null,"stnrlo":null,"stnrhi":null,"nrind":null,"pos":null,"loc":null,"dtc":"2024-09-11","dy":"174","visit":"EOT","visitnum":"8.0","epoch":"TREATMENT"},{"seq":"59","testcd":"PULSE","test":"Pulse Rate","cat":null,"orres":"40.0","orresu":"beats/min","stresc":"40.0","stresn":"40.0","stresu":"beats/min","stnrlo":null,"stnrhi":null,"nrind":null,"pos":null,"loc":null,"dtc":"2024-09-11","dy":"174","visit":"EOT","visitnum":"8.0","epoch":"TREATMENT"},{"seq":"60","testcd":"RESP","test":"Respiratory Rate","cat":null,"orres":"14.6","orresu":"breaths/min","stresc":"14.6","stresn":"14.6","stresu":"breaths/min","stnrlo":null,"stnrhi":null,"nrind":null,"pos":null,"loc":null,"dtc":"2024-09-11","dy":"174","visit":"EOT","visitnum":"8.0","epoch":"TREATMENT"},{"seq":"61","testcd":"SYSBP","test":"Systolic Blood Pressure","cat":null,"orres":"138.2","orresu":"mmHg","stresc":"138.2","stresn":"138.2","stresu":"mmHg","stnrlo":null,"stnrhi":null,"nrind":null,"pos":null,"loc":null,"dtc":"2024-09-11","dy":"174","visit":"EOT","visitnum":"8.0","epoch":"TREATMENT"},{"seq":"62","testcd":"TEMP","test":"Temperature","cat":null,"orres":"36.9","orresu":"C","stresc":"36.9","stresn":"36.9","stresu":"C","stnrlo":null,"stnrhi":null,"nrind":null,"pos":null,"loc":null,"dtc":"2024-09-11","dy":"174","visit":"EOT","visitnum":"8.0","epoch":"TREATMENT"},{"seq":"63","testcd":"WEIGHT","test":"Weight","cat":null,"orres":"54.9","orresu":"kg","stresc":"54.9","stresn":"54.9","stresu":"kg","stnrlo":null,"stnrhi":null,"nrind":null,"pos":null,"loc":null,"dtc":"2024-09-11","dy":"174","visit":"EOT","visitnum":"8.0","epoch":"TREATMENT"},{"seq":"64","testcd":"BMI","test":"BMI","cat":null,"orres":"20.7","orresu":"kg/m2","stresc":"20.7","stresn":"20.7","stresu":"kg/m2","stnrlo":null,"stnrhi":null,"nrind":null,"pos":null,"loc":null,"dtc":"2024-10-07","dy":"200","visit":"FOLLOW-UP","visitnum":"9.0","epoch":"FOLLOW-UP"},{"seq":"65","testcd":"DIABP","test":"Diastolic Blood Pressure","cat":null,"orres":"69.6","orresu":"mmHg","stresc":"69.6","stresn":"69.6","stresu":"mmHg","stnrlo":null,"stnrhi":null,"nrind":null,"pos":null,"loc":null,"dtc":"2024-10-07","dy":"200","visit":"FOLLOW-UP","visitnum":"9.0","epoch":"FOLLOW-UP"},{"seq":"66","testcd":"HEIGHT","test":"Height","cat":null,"orres":"163.3","orresu":"cm","stresc":"163.3","stresn":"163.3","stresu":"cm","stnrlo":null,"stnrhi":null,"nrind":null,"pos":null,"loc":null,"dtc":"2024-10-07","dy":"200","visit":"FOLLOW-UP","visitnum":"9.0","epoch":"FOLLOW-UP"},{"seq":"67","testcd":"PULSE","test":"Pulse Rate","cat":null,"orres":"40.0","orresu":"beats/min","stresc":"40.0","stresn":"40.0","stresu":"beats/min","stnrlo":null,"stnrhi":null,"nrind":null,"pos":null,"loc":null,"dtc":"2024-10-07","dy":"200","visit":"FOLLOW-UP","visitnum":"9.0","epoch":"FOLLOW-UP"},{"seq":"68","testcd":"RESP","test":"Respiratory Rate","cat":null,"orres":"15.0","orresu":"breaths/min","stresc":"15.0","stresn":"15.0","stresu":"breaths/min","stnrlo":null,"stnrhi":null,"nrind":null,"pos":null,"loc":null,"dtc":"2024-10-07","dy":"200","visit":"FOLLOW-UP","visitnum":"9.0","epoch":"FOLLOW-UP"},{"seq":"69","testcd":"SYSBP","test":"Systolic Blood Pressure","cat":null,"orres":"137.0","orresu":"mmHg","stresc":"137.0","stresn":"137.0","stresu":"mmHg","stnrlo":null,"stnrhi":null,"nrind":null,"pos":null,"loc":null,"dtc":"2024-10-07","dy":"200","visit":"FOLLOW-UP","visitnum":"9.0","epoch":"FOLLOW-UP"},{"seq":"70","testcd":"TEMP","test":"Temperature","cat":null,"orres":"36.8","orresu":"C","stresc":"36.8","stresn":"36.8","stresu":"C","stnrlo":null,"stnrhi":null,"nrind":null,"pos":null,"loc":null,"dtc":"2024-10-07","dy":"200","visit":"FOLLOW-UP","visitnum":"9.0","epoch":"FOLLOW-UP"},{"seq":"71","testcd":"WEIGHT","test":"Weight","cat":null,"orres":"55.2","orresu":"kg","stresc":"55.2","stresn":"55.2","stresu":"kg","stnrlo":null,"stnrhi":null,"nrind":null,"pos":null,"loc":null,"dtc":"2024-10-07","dy":"200","visit":"FOLLOW-UP","visitnum":"9.0","epoch":"FOLLOW-UP"}]},"section_10_questionnaires_and_scores":{"questionnaires":[],"findings_about":[{"seq":"1","testcd":"LDIAM","test":"Longest Diameter","cat":"TUMOR ASSESSMENT","orres":"19.8","stresc":"19.8","stresn":"19.8","dtc":"2024-02-20","visit":"SCREENING"},{"seq":"2","testcd":"SAXIS","test":"Short Axis","cat":"TUMOR ASSESSMENT","orres":"10.7","stresc":"10.7","stresn":"10.7","dtc":"2024-02-20","visit":"SCREENING"},{"seq":"3","testcd":"LDIAM","test":"Longest Diameter","cat":"TUMOR ASSESSMENT","orres":"36.8","stresc":"36.8","stresn":"36.8","dtc":"2024-02-20","visit":"SCREENING"},{"seq":"4","testcd":"SAXIS","test":"Short Axis","cat":"TUMOR ASSESSMENT","orres":"13.3","stresc":"13.3","stresn":"13.3","dtc":"2024-02-20","visit":"SCREENING"},{"seq":"5","testcd":"LDIAM","test":"Longest Diameter","cat":"TUMOR ASSESSMENT","orres":"70.7","stresc":"70.7","stresn":"70.7","dtc":"2024-02-20","visit":"SCREENING"},{"seq":"6","testcd":"SAXIS","test":"Short Axis","cat":"TUMOR ASSESSMENT","orres":"18.2","stresc":"18.2","stresn":"18.2","dtc":"2024-02-20","visit":"SCREENING"},{"seq":"7","testcd":"LDIAM","test":"Longest Diameter","cat":"TUMOR ASSESSMENT","orres":"21.3","stresc":"21.3","stresn":"21.3","dtc":"2024-03-22","visit":"C1D1"},{"seq":"8","testcd":"SAXIS","test":"Short Axis","cat":"TUMOR ASSESSMENT","orres":"11.0","stresc":"11.0","stresn":"11.0","dtc":"2024-03-22","visit":"C1D1"},{"seq":"9","testcd":"LDIAM","test":"Longest Diameter","cat":"TUMOR ASSESSMENT","orres":"34.5","stresc":"34.5","stresn":"34.5","dtc":"2024-03-22","visit":"C1D1"},{"seq":"10","testcd":"SAXIS","test":"Short Axis","cat":"TUMOR ASSESSMENT","orres":"13.2","stresc":"13.2","stresn":"13.2","dtc":"2024-03-22","visit":"C1D1"},{"seq":"11","testcd":"LDIAM","test":"Longest Diameter","cat":"TUMOR ASSESSMENT","orres":"69.8","stresc":"69.8","stresn":"69.8","dtc":"2024-03-22","visit":"C1D1"},{"seq":"12","testcd":"SAXIS","test":"Short Axis","cat":"TUMOR ASSESSMENT","orres":"19.2","stresc":"19.2","stresn":"19.2","dtc":"2024-03-22","visit":"C1D1"},{"seq":"13","testcd":"LDIAM","test":"Longest Diameter","cat":"TUMOR ASSESSMENT","orres":"22.3","stresc":"22.3","stresn":"22.3","dtc":"2024-04-05","visit":"C1D15"},{"seq":"14","testcd":"SAXIS","test":"Short Axis","cat":"TUMOR ASSESSMENT","orres":"11.0","stresc":"11.0","stresn":"11.0","dtc":"2024-04-05","visit":"C1D15"},{"seq":"15","testcd":"LDIAM","test":"Longest Diameter","cat":"TUMOR ASSESSMENT","orres":"36.4","stresc":"36.4","stresn":"36.4","dtc":"2024-04-05","visit":"C1D15"},{"seq":"16","testcd":"SAXIS","test":"Short Axis","cat":"TUMOR ASSESSMENT","orres":"12.6","stresc":"12.6","stresn":"12.6","dtc":"2024-04-05","visit":"C1D15"},{"seq":"17","testcd":"LDIAM","test":"Longest Diameter","cat":"TUMOR ASSESSMENT","orres":"70.0","stresc":"70.0","stresn":"70.0","dtc":"2024-04-05","visit":"C1D15"},{"seq":"18","testcd":"SAXIS","test":"Short Axis","cat":"TUMOR ASSESSMENT","orres":"17.4","stresc":"17.4","stresn":"17.4","dtc":"2024-04-05","visit":"C1D15"},{"seq":"19","testcd":"LDIAM","test":"Longest Diameter","cat":"TUMOR ASSESSMENT","orres":"19.2","stresc":"19.2","stresn":"19.2","dtc":"2024-04-19","visit":"C2D1"},{"seq":"20","testcd":"SAXIS","test":"Short Axis","cat":"TUMOR ASSESSMENT","orres":"10.0","stresc":"10.0","stresn":"10.0","dtc":"2024-04-19","visit":"C2D1"},{"seq":"21","testcd":"LDIAM","test":"Longest Diameter","cat":"TUMOR ASSESSMENT","orres":"35.8","stresc":"35.8","stresn":"35.8","dtc":"2024-04-19","visit":"C2D1"},{"seq":"22","testcd":"SAXIS","test":"Short Axis","cat":"TUMOR ASSESSMENT","orres":"13.2","stresc":"13.2","stresn":"13.2","dtc":"2024-04-19","visit":"C2D1"},{"seq":"23","testcd":"LDIAM","test":"Longest Diameter","cat":"TUMOR ASSESSMENT","orres":"69.2","stresc":"69.2","stresn":"69.2","dtc":"2024-04-19","visit":"C2D1"},{"seq":"24","testcd":"SAXIS","test":"Short Axis","cat":"TUMOR ASSESSMENT","orres":"17.4","stresc":"17.4","stresn":"17.4","dtc":"2024-04-19","visit":"C2D1"},{"seq":"25","testcd":"LDIAM","test":"Longest Diameter","cat":"TUMOR ASSESSMENT","orres":"21.0","stresc":"21.0","stresn":"21.0","dtc":"2024-05-17","visit":"C3D1"},{"seq":"26","testcd":"SAXIS","test":"Short Axis","cat":"TUMOR ASSESSMENT","orres":"9.9","stresc":"9.9","stresn":"9.9","dtc":"2024-05-17","visit":"C3D1"},{"seq":"27","testcd":"LDIAM","test":"Longest Diameter","cat":"TUMOR ASSESSMENT","orres":"34.8","stresc":"34.8","stresn":"34.8","dtc":"2024-05-17","visit":"C3D1"},{"seq":"28","testcd":"SAXIS","test":"Short Axis","cat":"TUMOR ASSESSMENT","orres":"13.0","stresc":"13.0","stresn":"13.0","dtc":"2024-05-17","visit":"C3D1"},{"seq":"29","testcd":"LDIAM","test":"Longest Diameter","cat":"TUMOR ASSESSMENT","orres":"68.8","stresc":"68.8","stresn":"68.8","dtc":"2024-05-17","visit":"C3D1"},{"seq":"30","testcd":"SAXIS","test":"Short Axis","cat":"TUMOR ASSESSMENT","orres":"17.5","stresc":"17.5","stresn":"17.5","dtc":"2024-05-17","visit":"C3D1"},{"seq":"31","testcd":"LDIAM","test":"Longest Diameter","cat":"TUMOR ASSESSMENT","orres":"19.8","stresc":"19.8","stresn":"19.8","dtc":"2024-06-14","visit":"C4D1"},{"seq":"32","testcd":"SAXIS","test":"Short Axis","cat":"TUMOR ASSESSMENT","orres":"9.8","stresc":"9.8","stresn":"9.8","dtc":"2024-06-14","visit":"C4D1"},{"seq":"33","testcd":"LDIAM","test":"Longest Diameter","cat":"TUMOR ASSESSMENT","orres":"32.2","stresc":"32.2","stresn":"32.2","dtc":"2024-06-14","visit":"C4D1"},{"seq":"34","testcd":"SAXIS","test":"Short Axis","cat":"TUMOR ASSESSMENT","orres":"11.9","stresc":"11.9","stresn":"11.9","dtc":"2024-06-14","visit":"C4D1"},{"seq":"35","testcd":"LDIAM","test":"Longest Diameter","cat":"TUMOR ASSESSMENT","orres":"65.5","stresc":"65.5","stresn":"65.5","dtc":"2024-06-14","visit":"C4D1"},{"seq":"36","testcd":"SAXIS","test":"Short Axis","cat":"TUMOR ASSESSMENT","orres":"17.7","stresc":"17.7","stresn":"17.7","dtc":"2024-06-14","visit":"C4D1"},{"seq":"37","testcd":"LDIAM","test":"Longest Diameter","cat":"TUMOR ASSESSMENT","orres":"19.0","stresc":"19.0","stresn":"19.0","dtc":"2024-08-09","visit":"C6D1"},{"seq":"38","testcd":"SAXIS","test":"Short Axis","cat":"TUMOR ASSESSMENT","orres":"10.9","stresc":"10.9","stresn":"10.9","dtc":"2024-08-09","visit":"C6D1"},{"seq":"39","testcd":"LDIAM","test":"Longest Diameter","cat":"TUMOR ASSESSMENT","orres":"35.8","stresc":"35.8","stresn":"35.8","dtc":"2024-08-09","visit":"C6D1"},{"seq":"40","testcd":"SAXIS","test":"Short Axis","cat":"TUMOR ASSESSMENT","orres":"12.8","stresc":"12.8","stresn":"12.8","dtc":"2024-08-09","visit":"C6D1"},{"seq":"41","testcd":"LDIAM","test":"Longest Diameter","cat":"TUMOR ASSESSMENT","orres":"68.4","stresc":"68.4","stresn":"68.4","dtc":"2024-08-09","visit":"C6D1"},{"seq":"42","testcd":"SAXIS","test":"Short Axis","cat":"TUMOR ASSESSMENT","orres":"16.6","stresc":"16.6","stresn":"16.6","dtc":"2024-08-09","visit":"C6D1"},{"seq":"43","testcd":"LDIAM","test":"Longest Diameter","cat":"TUMOR ASSESSMENT","orres":"20.1","stresc":"20.1","stresn":"20.1","dtc":"2024-09-06","visit":"EOT"},{"seq":"44","testcd":"SAXIS","test":"Short Axis","cat":"TUMOR ASSESSMENT","orres":"9.2","stresc":"9.2","stresn":"9.2","dtc":"2024-09-06","visit":"EOT"},{"seq":"45","testcd":"LDIAM","test":"Longest Diameter","cat":"TUMOR ASSESSMENT","orres":"34.6","stresc":"34.6","stresn":"34.6","dtc":"2024-09-06","visit":"EOT"},{"seq":"46","testcd":"SAXIS","test":"Short Axis","cat":"TUMOR ASSESSMENT","orres":"13.0","stresc":"13.0","stresn":"13.0","dtc":"2024-09-06","visit":"EOT"},{"seq":"47","testcd":"LDIAM","test":"Longest Diameter","cat":"TUMOR ASSESSMENT","orres":"63.5","stresc":"63.5","stresn":"63.5","dtc":"2024-09-06","visit":"EOT"},{"seq":"48","testcd":"SAXIS","test":"Short Axis","cat":"TUMOR ASSESSMENT","orres":"17.3","stresc":"17.3","stresn":"17.3","dtc":"2024-09-06","visit":"EOT"}]},"section_11_protocol_deviations":{"deviations":[{"seq":"1","term":"Missed TEPOTINIB dose on 2024-04-14","decod":"MISSED DOSE","cat":"MINOR","scat":"DOSING","start_dtc":"2024-04-14","end_dtc":null,"visit":null},{"seq":"2","term":"Missed TEPOTINIB dose on 2024-04-17","decod":"MISSED DOSE","cat":"MINOR","scat":"DOSING","start_dtc":"2024-04-17","end_dtc":null,"visit":null},{"seq":"3","term":"Missed TEPOTINIB dose on 2024-04-20","decod":"MISSED DOSE","cat":"MINOR","scat":"DOSING","start_dtc":"2024-04-20","end_dtc":null,"visit":null},{"seq":"4","term":"Missed TEPOTINIB dose on 2024-04-25","decod":"MISSED DOSE","cat":"MINOR","scat":"DOSING","start_dtc":"2024-04-25","end_dtc":null,"visit":null},{"seq":"5","term":"Missed TEPOTINIB dose on 2024-05-11","decod":"MISSED DOSE","cat":"MINOR","scat":"DOSING","start_dtc":"2024-05-11","end_dtc":null,"visit":null},{"seq":"6","term":"Visit C3D1 occurred 3 days early (Day 54 vs planned Day 57)","decod":"VISIT OCCURRED OUTSIDE VISIT WINDOW","cat":"MINOR","scat":"VISIT WINDOW","start_dtc":"2024-05-14","end_dtc":null,"visit":null},{"seq":"7","term":"Missed TEPOTINIB dose on 2024-06-03","decod":"MISSED DOSE","cat":"MINOR","scat":"DOSING","start_dtc":"2024-06-03","end_dtc":null,"visit":null},{"seq":"8","term":"Visit C4D1 occurred 0 days late (Day 85 vs planned Day 85)","decod":"VISIT OCCURRED OUTSIDE VISIT WINDOW","cat":"MINOR","scat":"VISIT WINDOW","start_dtc":"2024-06-14","end_dtc":null,"visit":null}],"total":8},"section_12_disposition":{"completion_status":"COMPLETED","disposition_records":[{"seq":"1","term":"INFORMED CONSENT OBTAINED","decod":"INFORMED CONSENT OBTAINED","cat":"PROTOCOL MILESTONE","scat":null,"dtc":"2024-02-20","dy":null,"visit":null,"epoch":"SCREENING"},{"seq":"2","term":"RANDOMIZED","decod":"RANDOMIZED","cat":"PROTOCOL MILESTONE","scat":null,"dtc":"2024-03-22","dy":null,"visit":null,"epoch":"TREATMENT"},{"seq":"3","term":"COMPLETED","decod":"COMPLETED","cat":"DISPOSITION EVENT","scat":null,"dtc":"2024-11-02","dy":null,"visit":null,"epoch":"FOLLOW-UP"}],"death":null},"section_13_hospitalizations":{"items":[{"seq":"1","term":"Nausea","decod":"Nausea","cat":"HOSPITALIZATION","start_dtc":"2024-07-12","end_dtc":"2024-07-17","epoch":"TREATMENT"}],"total":1},"section_14_substance_use":{"items":[{"seq":"1","substance":"ALCOHOL","decod":"ALCOHOL","cat":"ALCOHOL","scat":null,"usage":"N","dose":null,"dosu":null,"freq":null,"start_dtc":null,"end_dtc":null},{"seq":"2","substance":"COFFEE","decod":"COFFEE","cat":"CAFFEINE","scat":null,"usage":"Y","dose":"3.0","dosu":"CUPS/DAY","freq":"QD","start_dtc":"2023-02-20","end_dtc":null},{"seq":"3","substance":"CIGARETTES","decod":"CIGARETTES","cat":"TOBACCO","scat":"CIGARETTES","usage":"Y","dose":"6.0","dosu":"CIGARETTES/DAY","freq":"QD","start_dtc":"2023-02-20","end_dtc":null}],"total":3},"section_15_subject_status":{"items":[{"seq":"1","testcd":"SURVSTAT","test":"Survival Status","orres":"ALIVE","stresc":"ALIVE","dtc":"2024-10-06","visit":"FOLLOW-UP","epoch":"FOLLOW-UP"}],"total":1}}