STUDYID,DOMAIN,USUBJID,PCSEQ,PCTESTCD,PCTEST,PCORRES,PCORRESU,PCSTRESC,PCSTRESN,PCSTRESU,PCNAM,PCSPEC,PCLLOQ,VISITNUM,PCDTC,PCDY,PCTPT,PCTPTNUM,PCELTM,PCTPTREF,PCRFTDTC
BI-1245.110,PC,BI-1245.110-BRA_SITE01-0010,1,EMPAGLIF,Empagliflozin,<1,ng/mL,<LLOQ,,ng/mL,CENTRAL BIOANALYTICAL LAB,PLASMA,1,2.0,2024-03-20T08:00,1,PRE-DOSE,1,PT0H,DOSE ADMINISTRATION,2024-03-20T08:00
BI-1245.110,PC,BI-1245.110-BRA_SITE01-0010,2,EMPAGLIF,Empagliflozin,40.413,ng/mL,40.413,40.413,ng/mL,CENTRAL BIOANALYTICAL LAB,PLASMA,1,2.0,2024-03-20T08:30,1,30 MIN POST-DOSE,2,PT30M,DOSE ADMINISTRATION,2024-03-20T08:00
BI-1245.110,PC,BI-1245.110-BRA_SITE01-0010,3,EMPAGLIF,Empagliflozin,86.863,ng/mL,86.863,86.863,ng/mL,CENTRAL BIOANALYTICAL LAB,PLASMA,1,2.0,2024-03-20T09:00,1,1H POST-DOSE,3,PT1H,DOSE ADMINISTRATION,2024-03-20T08:00
BI-1245.110,PC,BI-1245.110-BRA_SITE01-0010,4,EMPAGLIF,Empagliflozin,101.442,ng/mL,101.442,101.442,ng/mL,CENTRAL BIOANALYTICAL LAB,PLASMA,1,2.0,2024-03-20T10:00,1,2H POST-DOSE,4,PT2H,DOSE ADMINISTRATION,2024-03-20T08:00
BI-1245.110,PC,BI-1245.110-BRA_SITE01-0010,5,EMPAGLIF,Empagliflozin,102.843,ng/mL,102.843,102.843,ng/mL,CENTRAL BIOANALYTICAL LAB,PLASMA,1,2.0,2024-03-20T12:00,1,4H POST-DOSE,5,PT4H,DOSE ADMINISTRATION,2024-03-20T08:00
BI-1245.110,PC,BI-1245.110-BRA_SITE01-0010,6,EMPAGLIF,Empagliflozin,109.303,ng/mL,109.303,109.303,ng/mL,CENTRAL BIOANALYTICAL LAB,PLASMA,1,2.0,2024-03-20T14:00,1,6H POST-DOSE,6,PT6H,DOSE ADMINISTRATION,2024-03-20T08:00
BI-1245.110,PC,BI-1245.110-BRA_SITE01-0010,7,EMPAGLIF,Empagliflozin,103.425,ng/mL,103.425,103.425,ng/mL,CENTRAL BIOANALYTICAL LAB,PLASMA,1,2.0,2024-03-20T16:00,1,8H POST-DOSE,7,PT8H,DOSE ADMINISTRATION,2024-03-20T08:00
BI-1245.110,PC,BI-1245.110-BRA_SITE01-0010,8,EMPAGLIF,Empagliflozin,86.388,ng/mL,86.388,86.388,ng/mL,CENTRAL BIOANALYTICAL LAB,PLASMA,1,2.0,2024-03-20T20:00,1,12H POST-DOSE,8,PT12H,DOSE ADMINISTRATION,2024-03-20T08:00
BI-1245.110,PC,BI-1245.110-BRA_SITE01-0010,9,EMPAGLIF,Empagliflozin,33.319,ng/mL,33.319,33.319,ng/mL,CENTRAL BIOANALYTICAL LAB,PLASMA,1,2.0,2024-03-21T08:00,2,24H POST-DOSE,9,PT24H,DOSE ADMINISTRATION,2024-03-20T08:00
BI-1245.110,PC,BI-1245.110-BRA_SITE01-0020,1,EMPAGLIF,Empagliflozin,<1,ng/mL,<LLOQ,,ng/mL,CENTRAL BIOANALYTICAL LAB,PLASMA,1,2.0,2024-03-17T08:00,1,PRE-DOSE,1,PT0H,DOSE ADMINISTRATION,2024-03-17T08:00
BI-1245.110,PC,BI-1245.110-BRA_SITE01-0020,2,EMPAGLIF,Empagliflozin,100.75,ng/mL,100.75,100.75,ng/mL,CENTRAL BIOANALYTICAL LAB,PLASMA,1,2.0,2024-03-17T08:30,1,30 MIN POST-DOSE,2,PT30M,DOSE ADMINISTRATION,2024-03-17T08:00
BI-1245.110,PC,BI-1245.110-BRA_SITE01-0020,3,EMPAGLIF,Empagliflozin,140.077,ng/mL,140.077,140.077,ng/mL,CENTRAL BIOANALYTICAL LAB,PLASMA,1,2.0,2024-03-17T09:00,1,1H POST-DOSE,3,PT1H,DOSE ADMINISTRATION,2024-03-17T08:00
BI-1245.110,PC,BI-1245.110-BRA_SITE01-0020,4,EMPAGLIF,Empagliflozin,164.45,ng/mL,164.45,164.45,ng/mL,CENTRAL BIOANALYTICAL LAB,PLASMA,1,2.0,2024-03-17T10:00,1,2H POST-DOSE,4,PT2H,DOSE ADMINISTRATION,2024-03-17T08:00
BI-1245.110,PC,BI-1245.110-BRA_SITE01-0020,5,EMPAGLIF,Empagliflozin,166.916,ng/mL,166.916,166.916,ng/mL,CENTRAL BIOANALYTICAL LAB,PLASMA,1,2.0,2024-03-17T12:00,1,4H POST-DOSE,5,PT4H,DOSE ADMINISTRATION,2024-03-17T08:00
BI-1245.110,PC,BI-1245.110-BRA_SITE01-0020,6,EMPAGLIF,Empagliflozin,147.815,ng/mL,147.815,147.815,ng/mL,CENTRAL BIOANALYTICAL LAB,PLASMA,1,2.0,2024-03-17T14:00,1,6H POST-DOSE,6,PT6H,DOSE ADMINISTRATION,2024-03-17T08:00
BI-1245.110,PC,BI-1245.110-BRA_SITE01-0020,7,EMPAGLIF,Empagliflozin,140.682,ng/mL,140.682,140.682,ng/mL,CENTRAL BIOANALYTICAL LAB,PLASMA,1,2.0,2024-03-17T16:00,1,8H POST-DOSE,7,PT8H,DOSE ADMINISTRATION,2024-03-17T08:00
BI-1245.110,PC,BI-1245.110-BRA_SITE01-0020,8,EMPAGLIF,Empagliflozin,118.014,ng/mL,118.014,118.014,ng/mL,CENTRAL BIOANALYTICAL LAB,PLASMA,1,2.0,2024-03-17T20:00,1,12H POST-DOSE,8,PT12H,DOSE ADMINISTRATION,2024-03-17T08:00
BI-1245.110,PC,BI-1245.110-BRA_SITE01-0020,9,EMPAGLIF,Empagliflozin,45.454,ng/mL,45.454,45.454,ng/mL,CENTRAL BIOANALYTICAL LAB,PLASMA,1,2.0,2024-03-18T08:00,2,24H POST-DOSE,9,PT24H,DOSE ADMINISTRATION,2024-03-17T08:00
BI-1245.110,PC,BI-1245.110-CAN_SITE01-0008,1,EMPAGLIF,Empagliflozin,<1,ng/mL,<LLOQ,,ng/mL,CENTRAL BIOANALYTICAL LAB,PLASMA,1,2.0,2024-03-18T08:00,1,PRE-DOSE,1,PT0H,DOSE ADMINISTRATION,2024-03-18T08:00
BI-1245.110,PC,BI-1245.110-CAN_SITE01-0008,2,EMPAGLIF,Empagliflozin,94.443,ng/mL,94.443,94.443,ng/mL,CENTRAL BIOANALYTICAL LAB,PLASMA,1,2.0,2024-03-18T08:30,1,30 MIN POST-DOSE,2,PT30M,DOSE ADMINISTRATION,2024-03-18T08:00
BI-1245.110,PC,BI-1245.110-CAN_SITE01-0008,3,EMPAGLIF,Empagliflozin,151.194,ng/mL,151.194,151.194,ng/mL,CENTRAL BIOANALYTICAL LAB,PLASMA,1,2.0,2024-03-18T09:00,1,1H POST-DOSE,3,PT1H,DOSE ADMINISTRATION,2024-03-18T08:00
BI-1245.110,PC,BI-1245.110-CAN_SITE01-0008,4,EMPAGLIF,Empagliflozin,183.07,ng/mL,183.07,183.07,ng/mL,CENTRAL BIOANALYTICAL LAB,PLASMA,1,2.0,2024-03-18T10:00,1,2H POST-DOSE,4,PT2H,DOSE ADMINISTRATION,2024-03-18T08:00
BI-1245.110,PC,BI-1245.110-CAN_SITE01-0008,5,EMPAGLIF,Empagliflozin,182.982,ng/mL,182.982,182.982,ng/mL,CENTRAL BIOANALYTICAL LAB,PLASMA,1,2.0,2024-03-18T12:00,1,4H POST-DOSE,5,PT4H,DOSE ADMINISTRATION,2024-03-18T08:00
BI-1245.110,PC,BI-1245.110-CAN_SITE01-0008,6,EMPAGLIF,Empagliflozin,154.815,ng/mL,154.815,154.815,ng/mL,CENTRAL BIOANALYTICAL LAB,PLASMA,1,2.0,2024-03-18T14:00,1,6H POST-DOSE,6,PT6H,DOSE ADMINISTRATION,2024-03-18T08:00
BI-1245.110,PC,BI-1245.110-CAN_SITE01-0008,7,EMPAGLIF,Empagliflozin,111.45,ng/mL,111.45,111.45,ng/mL,CENTRAL BIOANALYTICAL LAB,PLASMA,1,2.0,2024-03-18T16:00,1,8H POST-DOSE,7,PT8H,DOSE ADMINISTRATION,2024-03-18T08:00
BI-1245.110,PC,BI-1245.110-CAN_SITE01-0008,8,EMPAGLIF,Empagliflozin,90.623,ng/mL,90.623,90.623,ng/mL,CENTRAL BIOANALYTICAL LAB,PLASMA,1,2.0,2024-03-18T20:00,1,12H POST-DOSE,8,PT12H,DOSE ADMINISTRATION,2024-03-18T08:00
BI-1245.110,PC,BI-1245.110-CAN_SITE01-0008,9,EMPAGLIF,Empagliflozin,34.318,ng/mL,34.318,34.318,ng/mL,CENTRAL BIOANALYTICAL LAB,PLASMA,1,2.0,2024-03-19T08:00,2,24H POST-DOSE,9,PT24H,DOSE ADMINISTRATION,2024-03-18T08:00
BI-1245.110,PC,BI-1245.110-CAN_SITE01-0015,1,EMPAGLIF,Empagliflozin,<1,ng/mL,<LLOQ,,ng/mL,CENTRAL BIOANALYTICAL LAB,PLASMA,1,2.0,2024-04-25T08:00,1,PRE-DOSE,1,PT0H,DOSE ADMINISTRATION,2024-04-25T08:00
BI-1245.110,PC,BI-1245.110-CAN_SITE01-0015,2,EMPAGLIF,Empagliflozin,73.99,ng/mL,73.99,73.99,ng/mL,CENTRAL BIOANALYTICAL LAB,PLASMA,1,2.0,2024-04-25T08:30,1,30 MIN POST-DOSE,2,PT30M,DOSE ADMINISTRATION,2024-04-25T08:00
BI-1245.110,PC,BI-1245.110-CAN_SITE01-0015,3,EMPAGLIF,Empagliflozin,117.022,ng/mL,117.022,117.022,ng/mL,CENTRAL BIOANALYTICAL LAB,PLASMA,1,2.0,2024-04-25T09:00,1,1H POST-DOSE,3,PT1H,DOSE ADMINISTRATION,2024-04-25T08:00
BI-1245.110,PC,BI-1245.110-CAN_SITE01-0015,4,EMPAGLIF,Empagliflozin,132.574,ng/mL,132.574,132.574,ng/mL,CENTRAL BIOANALYTICAL LAB,PLASMA,1,2.0,2024-04-25T10:00,1,2H POST-DOSE,4,PT2H,DOSE ADMINISTRATION,2024-04-25T08:00
BI-1245.110,PC,BI-1245.110-CAN_SITE01-0015,5,EMPAGLIF,Empagliflozin,89.718,ng/mL,89.718,89.718,ng/mL,CENTRAL BIOANALYTICAL LAB,PLASMA,1,2.0,2024-04-25T12:00,1,4H POST-DOSE,5,PT4H,DOSE ADMINISTRATION,2024-04-25T08:00
BI-1245.110,PC,BI-1245.110-CAN_SITE01-0015,6,EMPAGLIF,Empagliflozin,68.242,ng/mL,68.242,68.242,ng/mL,CENTRAL BIOANALYTICAL LAB,PLASMA,1,2.0,2024-04-25T14:00,1,6H POST-DOSE,6,PT6H,DOSE ADMINISTRATION,2024-04-25T08:00
BI-1245.110,PC,BI-1245.110-CAN_SITE01-0015,7,EMPAGLIF,Empagliflozin,56.229,ng/mL,56.229,56.229,ng/mL,CENTRAL BIOANALYTICAL LAB,PLASMA,1,2.0,2024-04-25T16:00,1,8H POST-DOSE,7,PT8H,DOSE ADMINISTRATION,2024-04-25T08:00
BI-1245.110,PC,BI-1245.110-CAN_SITE01-0015,8,EMPAGLIF,Empagliflozin,29.976,ng/mL,29.976,29.976,ng/mL,CENTRAL BIOANALYTICAL LAB,PLASMA,1,2.0,2024-04-25T20:00,1,12H POST-DOSE,8,PT12H,DOSE ADMINISTRATION,2024-04-25T08:00
BI-1245.110,PC,BI-1245.110-CAN_SITE01-0015,9,EMPAGLIF,Empagliflozin,6.885,ng/mL,6.885,6.885,ng/mL,CENTRAL BIOANALYTICAL LAB,PLASMA,1,2.0,2024-04-26T08:00,2,24H POST-DOSE,9,PT24H,DOSE ADMINISTRATION,2024-04-25T08:00
BI-1245.110,PC,BI-1245.110-JPN_SITE02-0007,1,EMPAGLIF,Empagliflozin,<1,ng/mL,<LLOQ,,ng/mL,CENTRAL BIOANALYTICAL LAB,PLASMA,1,2.0,2024-03-21T08:00,1,PRE-DOSE,1,PT0H,DOSE ADMINISTRATION,2024-03-21T08:00
BI-1245.110,PC,BI-1245.110-JPN_SITE02-0007,2,EMPAGLIF,Empagliflozin,72.958,ng/mL,72.958,72.958,ng/mL,CENTRAL BIOANALYTICAL LAB,PLASMA,1,2.0,2024-03-21T08:30,1,30 MIN POST-DOSE,2,PT30M,DOSE ADMINISTRATION,2024-03-21T08:00
BI-1245.110,PC,BI-1245.110-JPN_SITE02-0007,3,EMPAGLIF,Empagliflozin,111.047,ng/mL,111.047,111.047,ng/mL,CENTRAL BIOANALYTICAL LAB,PLASMA,1,2.0,2024-03-21T09:00,1,1H POST-DOSE,3,PT1H,DOSE ADMINISTRATION,2024-03-21T08:00
BI-1245.110,PC,BI-1245.110-JPN_SITE02-0007,4,EMPAGLIF,Empagliflozin,121.008,ng/mL,121.008,121.008,ng/mL,CENTRAL BIOANALYTICAL LAB,PLASMA,1,2.0,2024-03-21T10:00,1,2H POST-DOSE,4,PT2H,DOSE ADMINISTRATION,2024-03-21T08:00
BI-1245.110,PC,BI-1245.110-JPN_SITE02-0007,5,EMPAGLIF,Empagliflozin,101.105,ng/mL,101.105,101.105,ng/mL,CENTRAL BIOANALYTICAL LAB,PLASMA,1,2.0,2024-03-21T12:00,1,4H POST-DOSE,5,PT4H,DOSE ADMINISTRATION,2024-03-21T08:00
BI-1245.110,PC,BI-1245.110-JPN_SITE02-0007,6,EMPAGLIF,Empagliflozin,100.672,ng/mL,100.672,100.672,ng/mL,CENTRAL BIOANALYTICAL LAB,PLASMA,1,2.0,2024-03-21T14:00,1,6H POST-DOSE,6,PT6H,DOSE ADMINISTRATION,2024-03-21T08:00
BI-1245.110,PC,BI-1245.110-JPN_SITE02-0007,7,EMPAGLIF,Empagliflozin,87.76,ng/mL,87.76,87.76,ng/mL,CENTRAL BIOANALYTICAL LAB,PLASMA,1,2.0,2024-03-21T16:00,1,8H POST-DOSE,7,PT8H,DOSE ADMINISTRATION,2024-03-21T08:00
BI-1245.110,PC,BI-1245.110-JPN_SITE02-0007,8,EMPAGLIF,Empagliflozin,78.66,ng/mL,78.66,78.66,ng/mL,CENTRAL BIOANALYTICAL LAB,PLASMA,1,2.0,2024-03-21T20:00,1,12H POST-DOSE,8,PT12H,DOSE ADMINISTRATION,2024-03-21T08:00
BI-1245.110,PC,BI-1245.110-JPN_SITE02-0007,9,EMPAGLIF,Empagliflozin,47.631,ng/mL,47.631,47.631,ng/mL,CENTRAL BIOANALYTICAL LAB,PLASMA,1,2.0,2024-03-22T08:00,2,24H POST-DOSE,9,PT24H,DOSE ADMINISTRATION,2024-03-21T08:00
BI-1245.110,PC,BI-1245.110-JPN_SITE02-0014,1,EMPAGLIF,Empagliflozin,<1,ng/mL,<LLOQ,,ng/mL,CENTRAL BIOANALYTICAL LAB,PLASMA,1,2.0,2024-03-21T08:00,1,PRE-DOSE,1,PT0H,DOSE ADMINISTRATION,2024-03-21T08:00
BI-1245.110,PC,BI-1245.110-JPN_SITE02-0014,2,EMPAGLIF,Empagliflozin,112.201,ng/mL,112.201,112.201,ng/mL,CENTRAL BIOANALYTICAL LAB,PLASMA,1,2.0,2024-03-21T08:30,1,30 MIN POST-DOSE,2,PT30M,DOSE ADMINISTRATION,2024-03-21T08:00
BI-1245.110,PC,BI-1245.110-JPN_SITE02-0014,3,EMPAGLIF,Empagliflozin,146.531,ng/mL,146.531,146.531,ng/mL,CENTRAL BIOANALYTICAL LAB,PLASMA,1,2.0,2024-03-21T09:00,1,1H POST-DOSE,3,PT1H,DOSE ADMINISTRATION,2024-03-21T08:00
BI-1245.110,PC,BI-1245.110-JPN_SITE02-0014,4,EMPAGLIF,Empagliflozin,148.259,ng/mL,148.259,148.259,ng/mL,CENTRAL BIOANALYTICAL LAB,PLASMA,1,2.0,2024-03-21T10:00,1,2H POST-DOSE,4,PT2H,DOSE ADMINISTRATION,2024-03-21T08:00
BI-1245.110,PC,BI-1245.110-JPN_SITE02-0014,5,EMPAGLIF,Empagliflozin,107.548,ng/mL,107.548,107.548,ng/mL,CENTRAL BIOANALYTICAL LAB,PLASMA,1,2.0,2024-03-21T12:00,1,4H POST-DOSE,5,PT4H,DOSE ADMINISTRATION,2024-03-21T08:00
BI-1245.110,PC,BI-1245.110-JPN_SITE02-0014,6,EMPAGLIF,Empagliflozin,112.967,ng/mL,112.967,112.967,ng/mL,CENTRAL BIOANALYTICAL LAB,PLASMA,1,2.0,2024-03-21T14:00,1,6H POST-DOSE,6,PT6H,DOSE ADMINISTRATION,2024-03-21T08:00
BI-1245.110,PC,BI-1245.110-JPN_SITE02-0014,7,EMPAGLIF,Empagliflozin,87.202,ng/mL,87.202,87.202,ng/mL,CENTRAL BIOANALYTICAL LAB,PLASMA,1,2.0,2024-03-21T16:00,1,8H POST-DOSE,7,PT8H,DOSE ADMINISTRATION,2024-03-21T08:00
BI-1245.110,PC,BI-1245.110-JPN_SITE02-0014,8,EMPAGLIF,Empagliflozin,59.168,ng/mL,59.168,59.168,ng/mL,CENTRAL BIOANALYTICAL LAB,PLASMA,1,2.0,2024-03-21T20:00,1,12H POST-DOSE,8,PT12H,DOSE ADMINISTRATION,2024-03-21T08:00
BI-1245.110,PC,BI-1245.110-JPN_SITE02-0014,9,EMPAGLIF,Empagliflozin,23.325,ng/mL,23.325,23.325,ng/mL,CENTRAL BIOANALYTICAL LAB,PLASMA,1,2.0,2024-03-22T08:00,2,24H POST-DOSE,9,PT24H,DOSE ADMINISTRATION,2024-03-21T08:00
BI-1245.110,PC,BI-1245.110-MEX_SITE01-0016,1,EMPAGLIF,Empagliflozin,<1,ng/mL,<LLOQ,,ng/mL,CENTRAL BIOANALYTICAL LAB,PLASMA,1,2.0,2024-03-10T08:00,1,PRE-DOSE,1,PT0H,DOSE ADMINISTRATION,2024-03-10T08:00
BI-1245.110,PC,BI-1245.110-MEX_SITE01-0016,2,EMPAGLIF,Empagliflozin,68.422,ng/mL,68.422,68.422,ng/mL,CENTRAL BIOANALYTICAL LAB,PLASMA,1,2.0,2024-03-10T08:30,1,30 MIN POST-DOSE,2,PT30M,DOSE ADMINISTRATION,2024-03-10T08:00
BI-1245.110,PC,BI-1245.110-MEX_SITE01-0016,3,EMPAGLIF,Empagliflozin,89.548,ng/mL,89.548,89.548,ng/mL,CENTRAL BIOANALYTICAL LAB,PLASMA,1,2.0,2024-03-10T09:00,1,1H POST-DOSE,3,PT1H,DOSE ADMINISTRATION,2024-03-10T08:00
BI-1245.110,PC,BI-1245.110-MEX_SITE01-0016,4,EMPAGLIF,Empagliflozin,145.138,ng/mL,145.138,145.138,ng/mL,CENTRAL BIOANALYTICAL LAB,PLASMA,1,2.0,2024-03-10T10:00,1,2H POST-DOSE,4,PT2H,DOSE ADMINISTRATION,2024-03-10T08:00
BI-1245.110,PC,BI-1245.110-MEX_SITE01-0016,5,EMPAGLIF,Empagliflozin,136.708,ng/mL,136.708,136.708,ng/mL,CENTRAL BIOANALYTICAL LAB,PLASMA,1,2.0,2024-03-10T12:00,1,4H POST-DOSE,5,PT4H,DOSE ADMINISTRATION,2024-03-10T08:00
BI-1245.110,PC,BI-1245.110-MEX_SITE01-0016,6,EMPAGLIF,Empagliflozin,155.229,ng/mL,155.229,155.229,ng/mL,CENTRAL BIOANALYTICAL LAB,PLASMA,1,2.0,2024-03-10T14:00,1,6H POST-DOSE,6,PT6H,DOSE ADMINISTRATION,2024-03-10T08:00
BI-1245.110,PC,BI-1245.110-MEX_SITE01-0016,7,EMPAGLIF,Empagliflozin,124.6,ng/mL,124.6,124.6,ng/mL,CENTRAL BIOANALYTICAL LAB,PLASMA,1,2.0,2024-03-10T16:00,1,8H POST-DOSE,7,PT8H,DOSE ADMINISTRATION,2024-03-10T08:00
BI-1245.110,PC,BI-1245.110-MEX_SITE01-0016,8,EMPAGLIF,Empagliflozin,113.421,ng/mL,113.421,113.421,ng/mL,CENTRAL BIOANALYTICAL LAB,PLASMA,1,2.0,2024-03-10T20:00,1,12H POST-DOSE,8,PT12H,DOSE ADMINISTRATION,2024-03-10T08:00
BI-1245.110,PC,BI-1245.110-MEX_SITE01-0016,9,EMPAGLIF,Empagliflozin,65.768,ng/mL,65.768,65.768,ng/mL,CENTRAL BIOANALYTICAL LAB,PLASMA,1,2.0,2024-03-11T08:00,2,24H POST-DOSE,9,PT24H,DOSE ADMINISTRATION,2024-03-10T08:00
BI-1245.110,PC,BI-1245.110-USA_SITE02-0002,1,EMPAGLIF,Empagliflozin,<1,ng/mL,<LLOQ,,ng/mL,CENTRAL BIOANALYTICAL LAB,PLASMA,1,2.0,2024-04-10T08:00,1,PRE-DOSE,1,PT0H,DOSE ADMINISTRATION,2024-04-10T08:00
BI-1245.110,PC,BI-1245.110-USA_SITE02-0002,2,EMPAGLIF,Empagliflozin,56.194,ng/mL,56.194,56.194,ng/mL,CENTRAL BIOANALYTICAL LAB,PLASMA,1,2.0,2024-04-10T08:30,1,30 MIN POST-DOSE,2,PT30M,DOSE ADMINISTRATION,2024-04-10T08:00
BI-1245.110,PC,BI-1245.110-USA_SITE02-0002,3,EMPAGLIF,Empagliflozin,87.551,ng/mL,87.551,87.551,ng/mL,CENTRAL BIOANALYTICAL LAB,PLASMA,1,2.0,2024-04-10T09:00,1,1H POST-DOSE,3,PT1H,DOSE ADMINISTRATION,2024-04-10T08:00
BI-1245.110,PC,BI-1245.110-USA_SITE02-0002,4,EMPAGLIF,Empagliflozin,117.618,ng/mL,117.618,117.618,ng/mL,CENTRAL BIOANALYTICAL LAB,PLASMA,1,2.0,2024-04-10T10:00,1,2H POST-DOSE,4,PT2H,DOSE ADMINISTRATION,2024-04-10T08:00
BI-1245.110,PC,BI-1245.110-USA_SITE02-0002,5,EMPAGLIF,Empagliflozin,148.403,ng/mL,148.403,148.403,ng/mL,CENTRAL BIOANALYTICAL LAB,PLASMA,1,2.0,2024-04-10T12:00,1,4H POST-DOSE,5,PT4H,DOSE ADMINISTRATION,2024-04-10T08:00
BI-1245.110,PC,BI-1245.110-USA_SITE02-0002,6,EMPAGLIF,Empagliflozin,104.111,ng/mL,104.111,104.111,ng/mL,CENTRAL BIOANALYTICAL LAB,PLASMA,1,2.0,2024-04-10T14:00,1,6H POST-DOSE,6,PT6H,DOSE ADMINISTRATION,2024-04-10T08:00
BI-1245.110,PC,BI-1245.110-USA_SITE02-0002,7,EMPAGLIF,Empagliflozin,87.66,ng/mL,87.66,87.66,ng/mL,CENTRAL BIOANALYTICAL LAB,PLASMA,1,2.0,2024-04-10T16:00,1,8H POST-DOSE,7,PT8H,DOSE ADMINISTRATION,2024-04-10T08:00
BI-1245.110,PC,BI-1245.110-USA_SITE02-0002,8,EMPAGLIF,Empagliflozin,81.774,ng/mL,81.774,81.774,ng/mL,CENTRAL BIOANALYTICAL LAB,PLASMA,1,2.0,2024-04-10T20:00,1,12H POST-DOSE,8,PT12H,DOSE ADMINISTRATION,2024-04-10T08:00
BI-1245.110,PC,BI-1245.110-USA_SITE02-0002,9,EMPAGLIF,Empagliflozin,55.799,ng/mL,55.799,55.799,ng/mL,CENTRAL BIOANALYTICAL LAB,PLASMA,1,2.0,2024-04-11T08:00,2,24H POST-DOSE,9,PT24H,DOSE ADMINISTRATION,2024-04-10T08:00
