STUDYID,DOMAIN,USUBJID,SCSEQ,SCTESTCD,SCTEST,SCCAT,SCORRES,SCSTRESC,SCSTRESN,SCSTRESU,SCDTC,SCDY
BI-1245.110,SC,BI-1245.110-ARG_SITE01-0017,1,ALCUSE,Alcohol Use,LIFESTYLE,NON-DRINKER,NON-DRINKER,,,2024-03-05,-17
BI-1245.110,SC,BI-1245.110-ARG_SITE01-0017,2,BMI,Body Mass Index,PHYSICAL CHARACTERISTIC,27.6,27.6,27.6,kg/m2,2024-03-05,-17
BI-1245.110,SC,BI-1245.110-ARG_SITE01-0017,3,DURDIS,Duration of Disease,DISEASE HISTORY,255 months,255,255.0,MONTHS,2024-03-05,-17
BI-1245.110,SC,BI-1245.110-ARG_SITE01-0017,4,TOBPKYR,Tobacco Pack-Years,LIFESTYLE,36,36,36.0,PACK-YEARS,2024-03-05,-17
BI-1245.110,SC,BI-1245.110-ARG_SITE01-0017,5,TOBUSE,Tobacco Use,LIFESTYLE,FORMER SMOKER,FORMER SMOKER,,,2024-03-05,-17
BI-1245.110,SC,BI-1245.110-BRA_SITE01-0010,1,ALCUSE,Alcohol Use,LIFESTYLE,HEAVY DRINKER,HEAVY DRINKER,,,2024-02-27,-22
BI-1245.110,SC,BI-1245.110-BRA_SITE01-0010,2,BMI,Body Mass Index,PHYSICAL CHARACTERISTIC,17.7,17.7,17.7,kg/m2,2024-02-27,-22
BI-1245.110,SC,BI-1245.110-BRA_SITE01-0010,3,DURDIS,Duration of Disease,DISEASE HISTORY,255 months,255,255.0,MONTHS,2024-02-27,-22
BI-1245.110,SC,BI-1245.110-BRA_SITE01-0010,4,TOBUSE,Tobacco Use,LIFESTYLE,NEVER SMOKED,NEVER SMOKED,,,2024-02-27,-22
BI-1245.110,SC,BI-1245.110-BRA_SITE01-0020,1,ALCUSE,Alcohol Use,LIFESTYLE,NON-DRINKER,NON-DRINKER,,,2024-02-14,-32
BI-1245.110,SC,BI-1245.110-BRA_SITE01-0020,2,BMI,Body Mass Index,PHYSICAL CHARACTERISTIC,27.8,27.8,27.8,kg/m2,2024-02-14,-32
BI-1245.110,SC,BI-1245.110-BRA_SITE01-0020,3,DURDIS,Duration of Disease,DISEASE HISTORY,340 months,340,340.0,MONTHS,2024-02-14,-32
BI-1245.110,SC,BI-1245.110-BRA_SITE01-0020,4,TOBUSE,Tobacco Use,LIFESTYLE,NEVER SMOKED,NEVER SMOKED,,,2024-02-14,-32
BI-1245.110,SC,BI-1245.110-CAN_SITE01-0008,1,ALCUSE,Alcohol Use,LIFESTYLE,HEAVY DRINKER,HEAVY DRINKER,,,2024-02-18,-29
BI-1245.110,SC,BI-1245.110-CAN_SITE01-0008,2,BMI,Body Mass Index,PHYSICAL CHARACTERISTIC,37.9,37.9,37.9,kg/m2,2024-02-18,-29
BI-1245.110,SC,BI-1245.110-CAN_SITE01-0008,3,DURDIS,Duration of Disease,DISEASE HISTORY,328 months,328,328.0,MONTHS,2024-02-18,-29
BI-1245.110,SC,BI-1245.110-CAN_SITE01-0008,4,TOBPKYR,Tobacco Pack-Years,LIFESTYLE,28,28,28.0,PACK-YEARS,2024-02-18,-29
BI-1245.110,SC,BI-1245.110-CAN_SITE01-0008,5,TOBUSE,Tobacco Use,LIFESTYLE,CURRENT SMOKER,CURRENT SMOKER,,,2024-02-18,-29
BI-1245.110,SC,BI-1245.110-CAN_SITE01-0015,1,ALCUSE,Alcohol Use,LIFESTYLE,HEAVY DRINKER,HEAVY DRINKER,,,2024-03-23,-33
BI-1245.110,SC,BI-1245.110-CAN_SITE01-0015,2,BMI,Body Mass Index,PHYSICAL CHARACTERISTIC,31.2,31.2,31.2,kg/m2,2024-03-23,-33
BI-1245.110,SC,BI-1245.110-CAN_SITE01-0015,3,DURDIS,Duration of Disease,DISEASE HISTORY,267 months,267,267.0,MONTHS,2024-03-23,-33
BI-1245.110,SC,BI-1245.110-CAN_SITE01-0015,4,TOBPKYR,Tobacco Pack-Years,LIFESTYLE,6,6,6.0,PACK-YEARS,2024-03-23,-33
BI-1245.110,SC,BI-1245.110-CAN_SITE01-0015,5,TOBUSE,Tobacco Use,LIFESTYLE,CURRENT SMOKER,CURRENT SMOKER,,,2024-03-23,-33
BI-1245.110,SC,BI-1245.110-JPN_SITE01-0003,1,ALCUSE,Alcohol Use,LIFESTYLE,NON-DRINKER,NON-DRINKER,,,2024-02-09,-32
BI-1245.110,SC,BI-1245.110-JPN_SITE01-0003,2,BMI,Body Mass Index,PHYSICAL CHARACTERISTIC,31.2,31.2,31.2,kg/m2,2024-02-09,-32
BI-1245.110,SC,BI-1245.110-JPN_SITE01-0003,3,DURDIS,Duration of Disease,DISEASE HISTORY,328 months,328,328.0,MONTHS,2024-02-09,-32
BI-1245.110,SC,BI-1245.110-JPN_SITE01-0003,4,TOBPKYR,Tobacco Pack-Years,LIFESTYLE,34,34,34.0,PACK-YEARS,2024-02-09,-32
BI-1245.110,SC,BI-1245.110-JPN_SITE01-0003,5,TOBUSE,Tobacco Use,LIFESTYLE,CURRENT SMOKER,CURRENT SMOKER,,,2024-02-09,-32
BI-1245.110,SC,BI-1245.110-JPN_SITE01-0013,1,ALCUSE,Alcohol Use,LIFESTYLE,NON-DRINKER,NON-DRINKER,,,2024-03-18,-10
BI-1245.110,SC,BI-1245.110-JPN_SITE01-0013,2,BMI,Body Mass Index,PHYSICAL CHARACTERISTIC,41.7,41.7,41.7,kg/m2,2024-03-18,-10
BI-1245.110,SC,BI-1245.110-JPN_SITE01-0013,3,DURDIS,Duration of Disease,DISEASE HISTORY,182 months,182,182.0,MONTHS,2024-03-18,-10
BI-1245.110,SC,BI-1245.110-JPN_SITE01-0013,4,TOBPKYR,Tobacco Pack-Years,LIFESTYLE,28,28,28.0,PACK-YEARS,2024-03-18,-10
BI-1245.110,SC,BI-1245.110-JPN_SITE01-0013,5,TOBUSE,Tobacco Use,LIFESTYLE,FORMER SMOKER,FORMER SMOKER,,,2024-03-18,-10
BI-1245.110,SC,BI-1245.110-JPN_SITE02-0007,1,ALCUSE,Alcohol Use,LIFESTYLE,NON-DRINKER,NON-DRINKER,,,2024-02-19,-31
BI-1245.110,SC,BI-1245.110-JPN_SITE02-0007,2,BMI,Body Mass Index,PHYSICAL CHARACTERISTIC,23.5,23.5,23.5,kg/m2,2024-02-19,-31
BI-1245.110,SC,BI-1245.110-JPN_SITE02-0007,3,DURDIS,Duration of Disease,DISEASE HISTORY,316 months,316,316.0,MONTHS,2024-02-19,-31
BI-1245.110,SC,BI-1245.110-JPN_SITE02-0007,4,TOBUSE,Tobacco Use,LIFESTYLE,NEVER SMOKED,NEVER SMOKED,,,2024-02-19,-31
BI-1245.110,SC,BI-1245.110-JPN_SITE02-0014,1,ALCUSE,Alcohol Use,LIFESTYLE,CURRENT DRINKER,CURRENT DRINKER,,,2024-03-09,-12
BI-1245.110,SC,BI-1245.110-JPN_SITE02-0014,2,BMI,Body Mass Index,PHYSICAL CHARACTERISTIC,30.4,30.4,30.4,kg/m2,2024-03-09,-12
BI-1245.110,SC,BI-1245.110-JPN_SITE02-0014,3,DURDIS,Duration of Disease,DISEASE HISTORY,279 months,279,279.0,MONTHS,2024-03-09,-12
BI-1245.110,SC,BI-1245.110-JPN_SITE02-0014,4,TOBPKYR,Tobacco Pack-Years,LIFESTYLE,9,9,9.0,PACK-YEARS,2024-03-09,-12
BI-1245.110,SC,BI-1245.110-JPN_SITE02-0014,5,TOBUSE,Tobacco Use,LIFESTYLE,FORMER SMOKER,FORMER SMOKER,,,2024-03-09,-12
BI-1245.110,SC,BI-1245.110-KOR_SITE01-0012,1,ALCUSE,Alcohol Use,LIFESTYLE,HEAVY DRINKER,HEAVY DRINKER,,,2024-04-11,-22
BI-1245.110,SC,BI-1245.110-KOR_SITE01-0012,2,BMI,Body Mass Index,PHYSICAL CHARACTERISTIC,35.5,35.5,35.5,kg/m2,2024-04-11,-22
BI-1245.110,SC,BI-1245.110-KOR_SITE01-0012,3,DURDIS,Duration of Disease,DISEASE HISTORY,304 months,304,304.0,MONTHS,2024-04-11,-22
BI-1245.110,SC,BI-1245.110-KOR_SITE01-0012,4,TOBUSE,Tobacco Use,LIFESTYLE,NEVER SMOKED,NEVER SMOKED,,,2024-04-11,-22
BI-1245.110,SC,BI-1245.110-MEX_SITE01-0016,1,ALCUSE,Alcohol Use,LIFESTYLE,NON-DRINKER,NON-DRINKER,,,2024-02-27,-12
BI-1245.110,SC,BI-1245.110-MEX_SITE01-0016,2,BMI,Body Mass Index,PHYSICAL CHARACTERISTIC,27.7,27.7,27.7,kg/m2,2024-02-27,-12
BI-1245.110,SC,BI-1245.110-MEX_SITE01-0016,3,DURDIS,Duration of Disease,DISEASE HISTORY,316 months,316,316.0,MONTHS,2024-02-27,-12
BI-1245.110,SC,BI-1245.110-MEX_SITE01-0016,4,TOBUSE,Tobacco Use,LIFESTYLE,NEVER SMOKED,NEVER SMOKED,,,2024-02-27,-12
BI-1245.110,SC,BI-1245.110-MEX_SITE01-0019,1,ALCUSE,Alcohol Use,LIFESTYLE,CURRENT DRINKER,CURRENT DRINKER,,,2024-02-22,-7
BI-1245.110,SC,BI-1245.110-MEX_SITE01-0019,2,BMI,Body Mass Index,PHYSICAL CHARACTERISTIC,22.0,22.0,22.0,kg/m2,2024-02-22,-7
BI-1245.110,SC,BI-1245.110-MEX_SITE01-0019,3,DURDIS,Duration of Disease,DISEASE HISTORY,328 months,328,328.0,MONTHS,2024-02-22,-7
BI-1245.110,SC,BI-1245.110-MEX_SITE01-0019,4,TOBPKYR,Tobacco Pack-Years,LIFESTYLE,15,15,15.0,PACK-YEARS,2024-02-22,-7
BI-1245.110,SC,BI-1245.110-MEX_SITE01-0019,5,TOBUSE,Tobacco Use,LIFESTYLE,FORMER SMOKER,FORMER SMOKER,,,2024-02-22,-7
BI-1245.110,SC,BI-1245.110-POL_SITE01-0004,1,ALCUSE,Alcohol Use,LIFESTYLE,CURRENT DRINKER,CURRENT DRINKER,,,2024-01-22,-21
BI-1245.110,SC,BI-1245.110-POL_SITE01-0004,2,BMI,Body Mass Index,PHYSICAL CHARACTERISTIC,25.4,25.4,25.4,kg/m2,2024-01-22,-21
BI-1245.110,SC,BI-1245.110-POL_SITE01-0004,3,DURDIS,Duration of Disease,DISEASE HISTORY,316 months,316,316.0,MONTHS,2024-01-22,-21
BI-1245.110,SC,BI-1245.110-POL_SITE01-0004,4,TOBUSE,Tobacco Use,LIFESTYLE,NEVER SMOKED,NEVER SMOKED,,,2024-01-22,-21
BI-1245.110,SC,BI-1245.110-POL_SITE01-0006,1,ALCUSE,Alcohol Use,LIFESTYLE,CURRENT DRINKER,CURRENT DRINKER,,,2024-03-26,-17
BI-1245.110,SC,BI-1245.110-POL_SITE01-0006,2,BMI,Body Mass Index,PHYSICAL CHARACTERISTIC,17.0,17.0,17.0,kg/m2,2024-03-26,-17
BI-1245.110,SC,BI-1245.110-POL_SITE01-0006,3,DURDIS,Duration of Disease,DISEASE HISTORY,340 months,340,340.0,MONTHS,2024-03-26,-17
BI-1245.110,SC,BI-1245.110-POL_SITE01-0006,4,TOBPKYR,Tobacco Pack-Years,LIFESTYLE,28,28,28.0,PACK-YEARS,2024-03-26,-17
BI-1245.110,SC,BI-1245.110-POL_SITE01-0006,5,TOBUSE,Tobacco Use,LIFESTYLE,FORMER SMOKER,FORMER SMOKER,,,2024-03-26,-17
BI-1245.110,SC,BI-1245.110-RUS_SITE01-0011,1,ALCUSE,Alcohol Use,LIFESTYLE,NON-DRINKER,NON-DRINKER,,,2024-04-01,-14
BI-1245.110,SC,BI-1245.110-RUS_SITE01-0011,2,BMI,Body Mass Index,PHYSICAL CHARACTERISTIC,25.1,25.1,25.1,kg/m2,2024-04-01,-14
BI-1245.110,SC,BI-1245.110-RUS_SITE01-0011,3,DURDIS,Duration of Disease,DISEASE HISTORY,279 months,279,279.0,MONTHS,2024-04-01,-14
BI-1245.110,SC,BI-1245.110-RUS_SITE01-0011,4,TOBUSE,Tobacco Use,LIFESTYLE,NEVER SMOKED,NEVER SMOKED,,,2024-04-01,-14
BI-1245.110,SC,BI-1245.110-USA_SITE01-0005,1,ALCUSE,Alcohol Use,LIFESTYLE,CURRENT DRINKER,CURRENT DRINKER,,,2024-02-21,-25
BI-1245.110,SC,BI-1245.110-USA_SITE01-0005,2,BMI,Body Mass Index,PHYSICAL CHARACTERISTIC,34.1,34.1,34.1,kg/m2,2024-02-21,-25
BI-1245.110,SC,BI-1245.110-USA_SITE01-0005,3,DURDIS,Duration of Disease,DISEASE HISTORY,304 months,304,304.0,MONTHS,2024-02-21,-25
BI-1245.110,SC,BI-1245.110-USA_SITE01-0005,4,TOBPKYR,Tobacco Pack-Years,LIFESTYLE,29,29,29.0,PACK-YEARS,2024-02-21,-25
BI-1245.110,SC,BI-1245.110-USA_SITE01-0005,5,TOBUSE,Tobacco Use,LIFESTYLE,FORMER SMOKER,FORMER SMOKER,,,2024-02-21,-25
BI-1245.110,SC,BI-1245.110-USA_SITE01-0018,1,ALCUSE,Alcohol Use,LIFESTYLE,NON-DRINKER,NON-DRINKER,,,2024-01-23,-9
BI-1245.110,SC,BI-1245.110-USA_SITE01-0018,2,BMI,Body Mass Index,PHYSICAL CHARACTERISTIC,26.0,26.0,26.0,kg/m2,2024-01-23,-9
BI-1245.110,SC,BI-1245.110-USA_SITE01-0018,3,DURDIS,Duration of Disease,DISEASE HISTORY,292 months,292,292.0,MONTHS,2024-01-23,-9
BI-1245.110,SC,BI-1245.110-USA_SITE01-0018,4,TOBUSE,Tobacco Use,LIFESTYLE,NEVER SMOKED,NEVER SMOKED,,,2024-01-23,-9
BI-1245.110,SC,BI-1245.110-USA_SITE02-0002,1,ALCUSE,Alcohol Use,LIFESTYLE,NON-DRINKER,NON-DRINKER,,,2024-03-23,-18
BI-1245.110,SC,BI-1245.110-USA_SITE02-0002,2,BMI,Body Mass Index,PHYSICAL CHARACTERISTIC,44.7,44.7,44.7,kg/m2,2024-03-23,-18
BI-1245.110,SC,BI-1245.110-USA_SITE02-0002,3,DURDIS,Duration of Disease,DISEASE HISTORY,352 months,352,352.0,MONTHS,2024-03-23,-18
BI-1245.110,SC,BI-1245.110-USA_SITE02-0002,4,TOBPKYR,Tobacco Pack-Years,LIFESTYLE,39,39,39.0,PACK-YEARS,2024-03-23,-18
BI-1245.110,SC,BI-1245.110-USA_SITE02-0002,5,TOBUSE,Tobacco Use,LIFESTYLE,FORMER SMOKER,FORMER SMOKER,,,2024-03-23,-18
