{"subject_id":"NBI-1065846-MDD2020-TERPSIS-USA_SITE01-0016","study_id":"NBI-1065846-MDD2020-TERPSIS","generated_at":"2026-07-07T05:41:07.940036+00:00","sdtmig_version":"3.4","flags":{"has_serious_ae":false,"has_fatal_ae":false,"has_protocol_deviation":true,"n_protocol_deviations":3,"n_adverse_events":0,"n_concomitant_meds":1,"max_ae_severity":null,"screen_failure":false,"discontinued_early":false,"discontinuation_reason":null,"death":false,"exposure_days":49},"timeline":[{"dtc":"2005-03-08","dy":"-6950","event":"CM START: ESCITALOPRAM","domain":"CM","category":"concomitant_med"},{"dtc":"2024-02-13","dy":"-34","event":"VISIT: SCREENING","domain":"SV","category":"visit"},{"dtc":"2024-03-03","dy":"-15","event":"INFORMED CONSENT OBTAINED","domain":"DS","category":"milestone"},{"dtc":"2024-03-18","dy":"1","event":"RANDOMIZED","domain":"DS","category":"milestone"},{"dtc":"2024-03-18","dy":"1","event":"FIRST DOSE: PLACEBO","domain":"EX","category":"exposure"},{"dtc":"2024-03-18","dy":"1","event":"VISIT: DAY 1 LOADING","domain":"SV","category":"visit"},{"dtc":"2024-04-01","dy":"15","event":"VISIT: WEEK 2","domain":"SV","category":"visit"},{"dtc":"2024-04-07","dy":"21","event":"VISIT: WEEK 3","domain":"SV","category":"visit"},{"dtc":"2024-04-17","dy":"31","event":"VISIT: WEEK 4","domain":"SV","category":"visit"},{"dtc":"2024-04-23","dy":"37","event":"VISIT: WEEK 5","domain":"SV","category":"visit"},{"dtc":"2024-04-27","dy":"41","event":"VISIT: WEEK 6","domain":"SV","category":"visit"},{"dtc":"2024-05-04","dy":"48","event":"DEVIATION: VISIT OCCURRED OUTSIDE VISIT WINDOW","domain":"DV","category":"deviation"},{"dtc":"2024-05-04","dy":"48","event":"VISIT: WEEK 7","domain":"SV","category":"visit"},{"dtc":"2024-05-06","dy":"50","event":"LAST DOSE: PLACEBO","domain":"EX","category":"exposure"},{"dtc":"2024-05-13","dy":"57","event":"VISIT: WEEK 8 EOT","domain":"SV","category":"visit"},{"dtc":"2024-06-06","dy":"81","event":"DEVIATION: VISIT OCCURRED OUTSIDE VISIT WINDOW","domain":"DV","category":"deviation"},{"dtc":"2024-06-06","dy":"81","event":"VISIT: SAFETY FU WEEK 4","domain":"SV","category":"visit"},{"dtc":"2024-07-08","dy":"113","event":"DEVIATION: VISIT OCCURRED OUTSIDE VISIT WINDOW","domain":"DV","category":"deviation"},{"dtc":"2024-07-08","dy":"113","event":"VISIT: SAFETY FU WEEK 8","domain":"SV","category":"visit"},{"dtc":"2024-08-04","dy":"140","event":"COMPLETED","domain":"DS","category":"milestone"}],"section_1_demographics":{"usubjid":"NBI-1065846-MDD2020-TERPSIS-USA_SITE01-0016","subjid":"0016","siteid":"USA_SITE01","age":"44","ageu":"YEARS","sex":"F","race":"WHITE","ethnicity":"NOT HISPANIC OR LATINO","country":"USA","arm":"Matching placebo (4 tablets Day 1 loading, 2 tablets QW thereafter)","armcd":"PLACEBO","actarm":"Matching placebo (4 tablets Day 1 loading, 2 tablets QW thereafter)","actarmcd":"PLACEBO","randomization_date":null,"informed_consent_date":"2024-03-03","reference_start_date":"2024-03-18","reference_end_date":"2024-08-04","screen_failure":false,"death_flag":null,"death_date":null,"subject_characteristics":[{"testcd":"ALCUSE","test":"Alcohol Use","orres":"CURRENT DRINKER","stresc":"CURRENT DRINKER","visit":null,"dtc":"2024-03-03"},{"testcd":"BMI","test":"Body Mass Index","orres":"21.7","stresc":"21.7","visit":null,"dtc":"2024-03-03"},{"testcd":"DURDIS","test":"Duration of Disease","orres":"231 months","stresc":"231","visit":null,"dtc":"2024-03-03"},{"testcd":"TOBUSE","test":"Tobacco Use","orres":"NEVER SMOKED","stresc":"NEVER SMOKED","visit":null,"dtc":"2024-03-03"}]},"section_2_medical_history":{"items":[{"seq":"1","term":"MAJOR DEPRESSIVE DISORDER","decod":"MAJOR DEPRESSIVE DISORDER","cat":"PSYCHIATRIC","scat":null,"presp":null,"occur":null,"status":null,"onset_dtc":"2005-03-08","end_dtc":null,"visit":null}]},"section_3_inclusion_exclusion":{"criteria":[]},"section_4_trial_participation":{"visits":[{"visitnum":"1.0","visit":"SCREENING","start_dtc":"2024-02-13","end_dtc":"2024-02-13","updes":null},{"visitnum":"2.0","visit":"DAY 1 LOADING","start_dtc":"2024-03-18","end_dtc":"2024-03-18","updes":null},{"visitnum":"3.0","visit":"WEEK 2","start_dtc":"2024-04-01","end_dtc":"2024-04-01","updes":null},{"visitnum":"4.0","visit":"WEEK 3","start_dtc":"2024-04-07","end_dtc":"2024-04-07","updes":null},{"visitnum":"5.0","visit":"WEEK 4","start_dtc":"2024-04-17","end_dtc":"2024-04-17","updes":null},{"visitnum":"6.0","visit":"WEEK 5","start_dtc":"2024-04-23","end_dtc":"2024-04-23","updes":null},{"visitnum":"7.0","visit":"WEEK 6","start_dtc":"2024-04-27","end_dtc":"2024-04-27","updes":null},{"visitnum":"8.0","visit":"WEEK 7","start_dtc":"2024-05-04","end_dtc":"2024-05-04","updes":null},{"visitnum":"9.0","visit":"WEEK 8 EOT","start_dtc":"2024-05-13","end_dtc":"2024-05-13","updes":null},{"visitnum":"10.0","visit":"SAFETY FU WEEK 4","start_dtc":"2024-06-06","end_dtc":"2024-06-06","updes":null},{"visitnum":"11.0","visit":"SAFETY FU WEEK 8","start_dtc":"2024-07-08","end_dtc":"2024-07-08","updes":null}],"epochs":[{"seq":"1","etcd":"SCRN","element":"Screening","start_dtc":"2024-02-19","end_dtc":"2024-03-18","updes":null},{"seq":"2","etcd":"TRT","element":"Treatment","start_dtc":"2024-03-18","end_dtc":"2024-05-13","updes":null},{"seq":"3","etcd":"FU","element":"Safety follow-up","start_dtc":"2024-05-13","end_dtc":"2024-07-07","updes":null}],"visit_count":11},"section_5_concomitant_medications":{"medications":[{"seq":"1","trt":"ESCITALOPRAM","decod":"ESCITALOPRAM","cat":"PRIOR","dose":"10.0","doseu":null,"dosef":"QD","route":"ORAL","indication":"MAJOR DEPRESSIVE DISORDER","start_dtc":"2005-03-08","end_dtc":"2024-08-04","ongoing":null,"visit":null}]},"section_6_exposure":{"exposure_as_administered":[{"seq":"1","trt":"PLACEBO","dose":"0.0","doseu":null,"dosef":"ONCE","route":"ORAL","lot":null,"start_dtc":"2024-03-18","end_dtc":"2024-03-18","start_dy":"1","end_dy":"1","epoch":"TREATMENT","visit":null},{"seq":"2","trt":"PLACEBO","dose":"0.0","doseu":null,"dosef":"QW","route":"ORAL","lot":null,"start_dtc":"2024-03-25","end_dtc":"2024-03-25","start_dy":"8","end_dy":"8","epoch":"TREATMENT","visit":null},{"seq":"3","trt":"PLACEBO","dose":"0.0","doseu":null,"dosef":"QW","route":"ORAL","lot":null,"start_dtc":"2024-04-01","end_dtc":"2024-04-01","start_dy":"15","end_dy":"15","epoch":"TREATMENT","visit":null},{"seq":"4","trt":"PLACEBO","dose":"0.0","doseu":null,"dosef":"QW","route":"ORAL","lot":null,"start_dtc":"2024-04-08","end_dtc":"2024-04-08","start_dy":"22","end_dy":"22","epoch":"TREATMENT","visit":null},{"seq":"5","trt":"PLACEBO","dose":"0.0","doseu":null,"dosef":"QW","route":"ORAL","lot":null,"start_dtc":"2024-04-15","end_dtc":"2024-04-15","start_dy":"29","end_dy":"29","epoch":"TREATMENT","visit":null},{"seq":"6","trt":"PLACEBO","dose":"0.0","doseu":null,"dosef":"QW","route":"ORAL","lot":null,"start_dtc":"2024-04-22","end_dtc":"2024-04-22","start_dy":"36","end_dy":"36","epoch":"TREATMENT","visit":null},{"seq":"7","trt":"PLACEBO","dose":"0.0","doseu":null,"dosef":"QW","route":"ORAL","lot":null,"start_dtc":"2024-04-29","end_dtc":"2024-04-29","start_dy":"43","end_dy":"43","epoch":"TREATMENT","visit":null},{"seq":"8","trt":"PLACEBO","dose":"0.0","doseu":null,"dosef":"QW","route":"ORAL","lot":null,"start_dtc":"2024-05-06","end_dtc":"2024-05-06","start_dy":"50","end_dy":"50","epoch":"TREATMENT","visit":null}],"exposure_as_collected":[{"seq":"1","trt":"PLACEBO","dose":null,"doseu":null,"dosef":"ONCE","route":"ORAL","start_dtc":"2024-03-18","end_dtc":"2024-03-18","visit":"DAY 1 LOADING"},{"seq":"2","trt":"PLACEBO","dose":null,"doseu":null,"dosef":"QW","route":"ORAL","start_dtc":"2024-03-25","end_dtc":"2024-03-25","visit":null},{"seq":"3","trt":"PLACEBO","dose":null,"doseu":null,"dosef":"QW","route":"ORAL","start_dtc":"2024-04-01","end_dtc":"2024-04-01","visit":"WEEK 2"},{"seq":"4","trt":"PLACEBO","dose":null,"doseu":null,"dosef":"QW","route":"ORAL","start_dtc":"2024-04-08","end_dtc":"2024-04-08","visit":"WEEK 3"},{"seq":"5","trt":"PLACEBO","dose":null,"doseu":null,"dosef":"QW","route":"ORAL","start_dtc":"2024-04-15","end_dtc":"2024-04-15","visit":"WEEK 4"},{"seq":"6","trt":"PLACEBO","dose":null,"doseu":null,"dosef":"QW","route":"ORAL","start_dtc":"2024-04-22","end_dtc":"2024-04-22","visit":"WEEK 5"},{"seq":"7","trt":"PLACEBO","dose":null,"doseu":null,"dosef":"QW","route":"ORAL","start_dtc":"2024-04-29","end_dtc":"2024-04-29","visit":"WEEK 6"},{"seq":"8","trt":"PLACEBO","dose":null,"doseu":null,"dosef":"QW","route":"ORAL","start_dtc":"2024-05-06","end_dtc":"2024-05-06","visit":"WEEK 7"}]},"section_7_adverse_events":{"summary":{"total_aes":0,"serious_aes":0,"fatal_aes":0,"by_severity":{},"by_soc":{}},"events":[]},"section_8_laboratory_results":{"summary":{"total_records":77,"abnormal_count":21,"abnormal_pct":27.3},"shift_summary":[{"testcd":"ALT","baseline_value":29.94,"baseline_nrind":"NORMAL","worst_post_baseline_value":31.62,"worst_post_baseline_nrind":"NORMAL","worst_visit":"WEEK 3"},{"testcd":"AST","baseline_value":22.62,"baseline_nrind":"NORMAL","worst_post_baseline_value":26.67,"worst_post_baseline_nrind":"NORMAL","worst_visit":"WEEK 6"},{"testcd":"CREAT","baseline_value":92.93,"baseline_nrind":"HIGH","worst_post_baseline_value":92.5,"worst_post_baseline_nrind":"HIGH","worst_visit":"WEEK 7"},{"testcd":"GLUC","baseline_value":4.19,"baseline_nrind":"NORMAL","worst_post_baseline_value":4.51,"worst_post_baseline_nrind":"NORMAL","worst_visit":"WEEK 5"},{"testcd":"HGB","baseline_value":113.34,"baseline_nrind":"LOW","worst_post_baseline_value":110.02,"worst_post_baseline_nrind":"LOW","worst_visit":"WEEK 5"},{"testcd":"PLAT","baseline_value":291.0,"baseline_nrind":"NORMAL","worst_post_baseline_value":288.26,"worst_post_baseline_nrind":"NORMAL","worst_visit":"WEEK 2"},{"testcd":"WBC","baseline_value":5.25,"baseline_nrind":"NORMAL","worst_post_baseline_value":5.85,"worst_post_baseline_nrind":"NORMAL","worst_visit":"WEEK 3"}],"results":[{"seq":"1","testcd":"ALT","test":"Alanine Aminotransferase","cat":"CHEMISTRY","orres":"29.94","orresu":"U/L","stresc":"29.94","stresn":"29.94","stresu":"U/L","stnrlo":"7","stnrhi":"56","nrind":"NORMAL","fast":null,"dtc":"2024-02-13","dy":"-34","visit":"SCREENING","visitnum":"1.0","epoch":"SCREENING","spec":null,"method":null},{"seq":"2","testcd":"AST","test":"Aspartate Aminotransferase","cat":"CHEMISTRY","orres":"22.62","orresu":"U/L","stresc":"22.62","stresn":"22.62","stresu":"U/L","stnrlo":"10","stnrhi":"40","nrind":"NORMAL","fast":null,"dtc":"2024-02-13","dy":"-34","visit":"SCREENING","visitnum":"1.0","epoch":"SCREENING","spec":null,"method":null},{"seq":"3","testcd":"CREAT","test":"Creatinine","cat":"CHEMISTRY","orres":"92.93","orresu":"umol/L","stresc":"92.93","stresn":"92.93","stresu":"umol/L","stnrlo":"44","stnrhi":"80","nrind":"HIGH","fast":null,"dtc":"2024-02-13","dy":"-34","visit":"SCREENING","visitnum":"1.0","epoch":"SCREENING","spec":null,"method":null},{"seq":"4","testcd":"GLUC","test":"Glucose","cat":"CHEMISTRY","orres":"4.19","orresu":"mmol/L","stresc":"4.19","stresn":"4.19","stresu":"mmol/L","stnrlo":"3.9","stnrhi":"5.6","nrind":"NORMAL","fast":null,"dtc":"2024-02-13","dy":"-34","visit":"SCREENING","visitnum":"1.0","epoch":"SCREENING","spec":null,"method":null},{"seq":"5","testcd":"HGB","test":"Hemoglobin","cat":"HEMATOLOGY","orres":"113.34","orresu":"g/L","stresc":"113.34","stresn":"113.34","stresu":"g/L","stnrlo":"120","stnrhi":"155","nrind":"LOW","fast":null,"dtc":"2024-02-13","dy":"-34","visit":"SCREENING","visitnum":"1.0","epoch":"SCREENING","spec":null,"method":null},{"seq":"6","testcd":"PLAT","test":"Platelets","cat":"HEMATOLOGY","orres":"291.0","orresu":"10^9/L","stresc":"291.0","stresn":"291.0","stresu":"10^9/L","stnrlo":"150","stnrhi":"400","nrind":"NORMAL","fast":null,"dtc":"2024-02-13","dy":"-34","visit":"SCREENING","visitnum":"1.0","epoch":"SCREENING","spec":null,"method":null},{"seq":"7","testcd":"WBC","test":"Leukocytes","cat":"HEMATOLOGY","orres":"5.25","orresu":"10^9/L","stresc":"5.25","stresn":"5.25","stresu":"10^9/L","stnrlo":"4.0","stnrhi":"11.0","nrind":"NORMAL","fast":null,"dtc":"2024-02-13","dy":"-34","visit":"SCREENING","visitnum":"1.0","epoch":"SCREENING","spec":null,"method":null},{"seq":"8","testcd":"ALT","test":"Alanine Aminotransferase","cat":"CHEMISTRY","orres":null,"orresu":null,"stresc":null,"stresn":null,"stresu":null,"stnrlo":null,"stnrhi":null,"nrind":null,"fast":null,"dtc":"2024-03-18","dy":"1","visit":"DAY 1 LOADING","visitnum":"2.0","epoch":"TREATMENT","spec":null,"method":null},{"seq":"9","testcd":"AST","test":"Aspartate Aminotransferase","cat":"CHEMISTRY","orres":null,"orresu":null,"stresc":null,"stresn":null,"stresu":null,"stnrlo":null,"stnrhi":null,"nrind":null,"fast":null,"dtc":"2024-03-18","dy":"1","visit":"DAY 1 LOADING","visitnum":"2.0","epoch":"TREATMENT","spec":null,"method":null},{"seq":"10","testcd":"CREAT","test":"Creatinine","cat":"CHEMISTRY","orres":"91.86","orresu":"umol/L","stresc":"91.86","stresn":"91.86","stresu":"umol/L","stnrlo":"44","stnrhi":"80","nrind":"HIGH","fast":null,"dtc":"2024-03-18","dy":"1","visit":"DAY 1 LOADING","visitnum":"2.0","epoch":"TREATMENT","spec":null,"method":null},{"seq":"11","testcd":"GLUC","test":"Glucose","cat":"CHEMISTRY","orres":"4.28","orresu":"mmol/L","stresc":"4.28","stresn":"4.28","stresu":"mmol/L","stnrlo":"3.9","stnrhi":"5.6","nrind":"NORMAL","fast":null,"dtc":"2024-03-18","dy":"1","visit":"DAY 1 LOADING","visitnum":"2.0","epoch":"TREATMENT","spec":null,"method":null},{"seq":"12","testcd":"HGB","test":"Hemoglobin","cat":"HEMATOLOGY","orres":"114.58","orresu":"g/L","stresc":"114.58","stresn":"114.58","stresu":"g/L","stnrlo":"120","stnrhi":"155","nrind":"LOW","fast":null,"dtc":"2024-03-18","dy":"1","visit":"DAY 1 LOADING","visitnum":"2.0","epoch":"TREATMENT","spec":null,"method":null},{"seq":"13","testcd":"PLAT","test":"Platelets","cat":"HEMATOLOGY","orres":"282.42","orresu":"10^9/L","stresc":"282.42","stresn":"282.42","stresu":"10^9/L","stnrlo":"150","stnrhi":"400","nrind":"NORMAL","fast":null,"dtc":"2024-03-18","dy":"1","visit":"DAY 1 LOADING","visitnum":"2.0","epoch":"TREATMENT","spec":null,"method":null},{"seq":"14","testcd":"WBC","test":"Leukocytes","cat":"HEMATOLOGY","orres":"4.95","orresu":"10^9/L","stresc":"4.95","stresn":"4.95","stresu":"10^9/L","stnrlo":"4.0","stnrhi":"11.0","nrind":"NORMAL","fast":null,"dtc":"2024-03-18","dy":"1","visit":"DAY 1 LOADING","visitnum":"2.0","epoch":"TREATMENT","spec":null,"method":null},{"seq":"15","testcd":"ALT","test":"Alanine Aminotransferase","cat":"CHEMISTRY","orres":"28.84","orresu":"U/L","stresc":"28.84","stresn":"28.84","stresu":"U/L","stnrlo":"7","stnrhi":"56","nrind":"NORMAL","fast":null,"dtc":"2024-04-01","dy":"15","visit":"WEEK 2","visitnum":"3.0","epoch":"TREATMENT","spec":null,"method":null},{"seq":"16","testcd":"AST","test":"Aspartate Aminotransferase","cat":"CHEMISTRY","orres":"23.06","orresu":"U/L","stresc":"23.06","stresn":"23.06","stresu":"U/L","stnrlo":"10","stnrhi":"40","nrind":"NORMAL","fast":null,"dtc":"2024-04-01","dy":"15","visit":"WEEK 2","visitnum":"3.0","epoch":"TREATMENT","spec":null,"method":null},{"seq":"17","testcd":"CREAT","test":"Creatinine","cat":"CHEMISTRY","orres":"90.92","orresu":"umol/L","stresc":"90.92","stresn":"90.92","stresu":"umol/L","stnrlo":"44","stnrhi":"80","nrind":"HIGH","fast":null,"dtc":"2024-04-01","dy":"15","visit":"WEEK 2","visitnum":"3.0","epoch":"TREATMENT","spec":null,"method":null},{"seq":"18","testcd":"GLUC","test":"Glucose","cat":"CHEMISTRY","orres":"4.21","orresu":"mmol/L","stresc":"4.21","stresn":"4.21","stresu":"mmol/L","stnrlo":"3.9","stnrhi":"5.6","nrind":"NORMAL","fast":null,"dtc":"2024-04-01","dy":"15","visit":"WEEK 2","visitnum":"3.0","epoch":"TREATMENT","spec":null,"method":null},{"seq":"19","testcd":"HGB","test":"Hemoglobin","cat":"HEMATOLOGY","orres":"111.63","orresu":"g/L","stresc":"111.63","stresn":"111.63","stresu":"g/L","stnrlo":"120","stnrhi":"155","nrind":"LOW","fast":null,"dtc":"2024-04-01","dy":"15","visit":"WEEK 2","visitnum":"3.0","epoch":"TREATMENT","spec":null,"method":null},{"seq":"20","testcd":"PLAT","test":"Platelets","cat":"HEMATOLOGY","orres":"288.26","orresu":"10^9/L","stresc":"288.26","stresn":"288.26","stresu":"10^9/L","stnrlo":"150","stnrhi":"400","nrind":"NORMAL","fast":null,"dtc":"2024-04-01","dy":"15","visit":"WEEK 2","visitnum":"3.0","epoch":"TREATMENT","spec":null,"method":null},{"seq":"21","testcd":"WBC","test":"Leukocytes","cat":"HEMATOLOGY","orres":"5.51","orresu":"10^9/L","stresc":"5.51","stresn":"5.51","stresu":"10^9/L","stnrlo":"4.0","stnrhi":"11.0","nrind":"NORMAL","fast":null,"dtc":"2024-04-01","dy":"15","visit":"WEEK 2","visitnum":"3.0","epoch":"TREATMENT","spec":null,"method":null},{"seq":"22","testcd":"ALT","test":"Alanine Aminotransferase","cat":"CHEMISTRY","orres":"31.62","orresu":"U/L","stresc":"31.62","stresn":"31.62","stresu":"U/L","stnrlo":"7","stnrhi":"56","nrind":"NORMAL","fast":null,"dtc":"2024-04-07","dy":"21","visit":"WEEK 3","visitnum":"4.0","epoch":"TREATMENT","spec":null,"method":null},{"seq":"23","testcd":"AST","test":"Aspartate Aminotransferase","cat":"CHEMISTRY","orres":"22.29","orresu":"U/L","stresc":"22.29","stresn":"22.29","stresu":"U/L","stnrlo":"10","stnrhi":"40","nrind":"NORMAL","fast":null,"dtc":"2024-04-07","dy":"21","visit":"WEEK 3","visitnum":"4.0","epoch":"TREATMENT","spec":null,"method":null},{"seq":"24","testcd":"CREAT","test":"Creatinine","cat":"CHEMISTRY","orres":"91.64","orresu":"umol/L","stresc":"91.64","stresn":"91.64","stresu":"umol/L","stnrlo":"44","stnrhi":"80","nrind":"HIGH","fast":null,"dtc":"2024-04-07","dy":"21","visit":"WEEK 3","visitnum":"4.0","epoch":"TREATMENT","spec":null,"method":null},{"seq":"25","testcd":"GLUC","test":"Glucose","cat":"CHEMISTRY","orres":"4.21","orresu":"mmol/L","stresc":"4.21","stresn":"4.21","stresu":"mmol/L","stnrlo":"3.9","stnrhi":"5.6","nrind":"NORMAL","fast":null,"dtc":"2024-04-07","dy":"21","visit":"WEEK 3","visitnum":"4.0","epoch":"TREATMENT","spec":null,"method":null},{"seq":"26","testcd":"HGB","test":"Hemoglobin","cat":"HEMATOLOGY","orres":"111.06","orresu":"g/L","stresc":"111.06","stresn":"111.06","stresu":"g/L","stnrlo":"120","stnrhi":"155","nrind":"LOW","fast":null,"dtc":"2024-04-07","dy":"21","visit":"WEEK 3","visitnum":"4.0","epoch":"TREATMENT","spec":null,"method":null},{"seq":"27","testcd":"PLAT","test":"Platelets","cat":"HEMATOLOGY","orres":"277.99","orresu":"10^9/L","stresc":"277.99","stresn":"277.99","stresu":"10^9/L","stnrlo":"150","stnrhi":"400","nrind":"NORMAL","fast":null,"dtc":"2024-04-07","dy":"21","visit":"WEEK 3","visitnum":"4.0","epoch":"TREATMENT","spec":null,"method":null},{"seq":"28","testcd":"WBC","test":"Leukocytes","cat":"HEMATOLOGY","orres":"5.85","orresu":"10^9/L","stresc":"5.85","stresn":"5.85","stresu":"10^9/L","stnrlo":"4.0","stnrhi":"11.0","nrind":"NORMAL","fast":null,"dtc":"2024-04-07","dy":"21","visit":"WEEK 3","visitnum":"4.0","epoch":"TREATMENT","spec":null,"method":null},{"seq":"29","testcd":"ALT","test":"Alanine Aminotransferase","cat":"CHEMISTRY","orres":"29.14","orresu":"U/L","stresc":"29.14","stresn":"29.14","stresu":"U/L","stnrlo":"7","stnrhi":"56","nrind":"NORMAL","fast":null,"dtc":"2024-04-17","dy":"31","visit":"WEEK 4","visitnum":"5.0","epoch":"TREATMENT","spec":null,"method":null},{"seq":"30","testcd":"AST","test":"Aspartate Aminotransferase","cat":"CHEMISTRY","orres":"24.18","orresu":"U/L","stresc":"24.18","stresn":"24.18","stresu":"U/L","stnrlo":"10","stnrhi":"40","nrind":"NORMAL","fast":null,"dtc":"2024-04-17","dy":"31","visit":"WEEK 4","visitnum":"5.0","epoch":"TREATMENT","spec":null,"method":null},{"seq":"31","testcd":"CREAT","test":"Creatinine","cat":"CHEMISTRY","orres":"91.7","orresu":"umol/L","stresc":"91.7","stresn":"91.7","stresu":"umol/L","stnrlo":"44","stnrhi":"80","nrind":"HIGH","fast":null,"dtc":"2024-04-17","dy":"31","visit":"WEEK 4","visitnum":"5.0","epoch":"TREATMENT","spec":null,"method":null},{"seq":"32","testcd":"GLUC","test":"Glucose","cat":"CHEMISTRY","orres":"4.25","orresu":"mmol/L","stresc":"4.25","stresn":"4.25","stresu":"mmol/L","stnrlo":"3.9","stnrhi":"5.6","nrind":"NORMAL","fast":null,"dtc":"2024-04-17","dy":"31","visit":"WEEK 4","visitnum":"5.0","epoch":"TREATMENT","spec":null,"method":null},{"seq":"33","testcd":"HGB","test":"Hemoglobin","cat":"HEMATOLOGY","orres":"110.41","orresu":"g/L","stresc":"110.41","stresn":"110.41","stresu":"g/L","stnrlo":"120","stnrhi":"155","nrind":"LOW","fast":null,"dtc":"2024-04-17","dy":"31","visit":"WEEK 4","visitnum":"5.0","epoch":"TREATMENT","spec":null,"method":null},{"seq":"34","testcd":"PLAT","test":"Platelets","cat":"HEMATOLOGY","orres":"279.06","orresu":"10^9/L","stresc":"279.06","stresn":"279.06","stresu":"10^9/L","stnrlo":"150","stnrhi":"400","nrind":"NORMAL","fast":null,"dtc":"2024-04-17","dy":"31","visit":"WEEK 4","visitnum":"5.0","epoch":"TREATMENT","spec":null,"method":null},{"seq":"35","testcd":"WBC","test":"Leukocytes","cat":"HEMATOLOGY","orres":"5.22","orresu":"10^9/L","stresc":"5.22","stresn":"5.22","stresu":"10^9/L","stnrlo":"4.0","stnrhi":"11.0","nrind":"NORMAL","fast":null,"dtc":"2024-04-17","dy":"31","visit":"WEEK 4","visitnum":"5.0","epoch":"TREATMENT","spec":null,"method":null},{"seq":"36","testcd":"ALT","test":"Alanine Aminotransferase","cat":"CHEMISTRY","orres":"29.68","orresu":"U/L","stresc":"29.68","stresn":"29.68","stresu":"U/L","stnrlo":"7","stnrhi":"56","nrind":"NORMAL","fast":null,"dtc":"2024-04-23","dy":"37","visit":"WEEK 5","visitnum":"6.0","epoch":"TREATMENT","spec":null,"method":null},{"seq":"37","testcd":"AST","test":"Aspartate Aminotransferase","cat":"CHEMISTRY","orres":"24.18","orresu":"U/L","stresc":"24.18","stresn":"24.18","stresu":"U/L","stnrlo":"10","stnrhi":"40","nrind":"NORMAL","fast":null,"dtc":"2024-04-23","dy":"37","visit":"WEEK 5","visitnum":"6.0","epoch":"TREATMENT","spec":null,"method":null},{"seq":"38","testcd":"CREAT","test":"Creatinine","cat":"CHEMISTRY","orres":"92.32","orresu":"umol/L","stresc":"92.32","stresn":"92.32","stresu":"umol/L","stnrlo":"44","stnrhi":"80","nrind":"HIGH","fast":null,"dtc":"2024-04-23","dy":"37","visit":"WEEK 5","visitnum":"6.0","epoch":"TREATMENT","spec":null,"method":null},{"seq":"39","testcd":"GLUC","test":"Glucose","cat":"CHEMISTRY","orres":"4.51","orresu":"mmol/L","stresc":"4.51","stresn":"4.51","stresu":"mmol/L","stnrlo":"3.9","stnrhi":"5.6","nrind":"NORMAL","fast":null,"dtc":"2024-04-23","dy":"37","visit":"WEEK 5","visitnum":"6.0","epoch":"TREATMENT","spec":null,"method":null},{"seq":"40","testcd":"HGB","test":"Hemoglobin","cat":"HEMATOLOGY","orres":"110.02","orresu":"g/L","stresc":"110.02","stresn":"110.02","stresu":"g/L","stnrlo":"120","stnrhi":"155","nrind":"LOW","fast":null,"dtc":"2024-04-23","dy":"37","visit":"WEEK 5","visitnum":"6.0","epoch":"TREATMENT","spec":null,"method":null},{"seq":"41","testcd":"PLAT","test":"Platelets","cat":"HEMATOLOGY","orres":"255.15","orresu":"10^9/L","stresc":"255.15","stresn":"255.15","stresu":"10^9/L","stnrlo":"150","stnrhi":"400","nrind":"NORMAL","fast":null,"dtc":"2024-04-23","dy":"37","visit":"WEEK 5","visitnum":"6.0","epoch":"TREATMENT","spec":null,"method":null},{"seq":"42","testcd":"WBC","test":"Leukocytes","cat":"HEMATOLOGY","orres":"4.53","orresu":"10^9/L","stresc":"4.53","stresn":"4.53","stresu":"10^9/L","stnrlo":"4.0","stnrhi":"11.0","nrind":"NORMAL","fast":null,"dtc":"2024-04-23","dy":"37","visit":"WEEK 5","visitnum":"6.0","epoch":"TREATMENT","spec":null,"method":null},{"seq":"43","testcd":"ALT","test":"Alanine Aminotransferase","cat":"CHEMISTRY","orres":"29.61","orresu":"U/L","stresc":"29.61","stresn":"29.61","stresu":"U/L","stnrlo":"7","stnrhi":"56","nrind":"NORMAL","fast":null,"dtc":"2024-04-27","dy":"41","visit":"WEEK 6","visitnum":"7.0","epoch":"TREATMENT","spec":null,"method":null},{"seq":"44","testcd":"AST","test":"Aspartate Aminotransferase","cat":"CHEMISTRY","orres":"26.67","orresu":"U/L","stresc":"26.67","stresn":"26.67","stresu":"U/L","stnrlo":"10","stnrhi":"40","nrind":"NORMAL","fast":null,"dtc":"2024-04-27","dy":"41","visit":"WEEK 6","visitnum":"7.0","epoch":"TREATMENT","spec":null,"method":null},{"seq":"45","testcd":"CREAT","test":"Creatinine","cat":"CHEMISTRY","orres":"90.51","orresu":"umol/L","stresc":"90.51","stresn":"90.51","stresu":"umol/L","stnrlo":"44","stnrhi":"80","nrind":"HIGH","fast":null,"dtc":"2024-04-27","dy":"41","visit":"WEEK 6","visitnum":"7.0","epoch":"TREATMENT","spec":null,"method":null},{"seq":"46","testcd":"GLUC","test":"Glucose","cat":"CHEMISTRY","orres":"4.37","orresu":"mmol/L","stresc":"4.37","stresn":"4.37","stresu":"mmol/L","stnrlo":"3.9","stnrhi":"5.6","nrind":"NORMAL","fast":null,"dtc":"2024-04-27","dy":"41","visit":"WEEK 6","visitnum":"7.0","epoch":"TREATMENT","spec":null,"method":null},{"seq":"47","testcd":"HGB","test":"Hemoglobin","cat":"HEMATOLOGY","orres":"110.6","orresu":"g/L","stresc":"110.6","stresn":"110.6","stresu":"g/L","stnrlo":"120","stnrhi":"155","nrind":"LOW","fast":null,"dtc":"2024-04-27","dy":"41","visit":"WEEK 6","visitnum":"7.0","epoch":"TREATMENT","spec":null,"method":null},{"seq":"48","testcd":"PLAT","test":"Platelets","cat":"HEMATOLOGY","orres":"249.44","orresu":"10^9/L","stresc":"249.44","stresn":"249.44","stresu":"10^9/L","stnrlo":"150","stnrhi":"400","nrind":"NORMAL","fast":null,"dtc":"2024-04-27","dy":"41","visit":"WEEK 6","visitnum":"7.0","epoch":"TREATMENT","spec":null,"method":null},{"seq":"49","testcd":"WBC","test":"Leukocytes","cat":"HEMATOLOGY","orres":"5.31","orresu":"10^9/L","stresc":"5.31","stresn":"5.31","stresu":"10^9/L","stnrlo":"4.0","stnrhi":"11.0","nrind":"NORMAL","fast":null,"dtc":"2024-04-27","dy":"41","visit":"WEEK 6","visitnum":"7.0","epoch":"TREATMENT","spec":null,"method":null},{"seq":"50","testcd":"ALT","test":"Alanine Aminotransferase","cat":"CHEMISTRY","orres":"26.96","orresu":"U/L","stresc":"26.96","stresn":"26.96","stresu":"U/L","stnrlo":"7","stnrhi":"56","nrind":"NORMAL","fast":null,"dtc":"2024-05-04","dy":"48","visit":"WEEK 7","visitnum":"8.0","epoch":"TREATMENT","spec":null,"method":null},{"seq":"51","testcd":"AST","test":"Aspartate Aminotransferase","cat":"CHEMISTRY","orres":"25.34","orresu":"U/L","stresc":"25.34","stresn":"25.34","stresu":"U/L","stnrlo":"10","stnrhi":"40","nrind":"NORMAL","fast":null,"dtc":"2024-05-04","dy":"48","visit":"WEEK 7","visitnum":"8.0","epoch":"TREATMENT","spec":null,"method":null},{"seq":"52","testcd":"CREAT","test":"Creatinine","cat":"CHEMISTRY","orres":"92.5","orresu":"umol/L","stresc":"92.5","stresn":"92.5","stresu":"umol/L","stnrlo":"44","stnrhi":"80","nrind":"HIGH","fast":null,"dtc":"2024-05-04","dy":"48","visit":"WEEK 7","visitnum":"8.0","epoch":"TREATMENT","spec":null,"method":null},{"seq":"53","testcd":"GLUC","test":"Glucose","cat":"CHEMISTRY","orres":"4.27","orresu":"mmol/L","stresc":"4.27","stresn":"4.27","stresu":"mmol/L","stnrlo":"3.9","stnrhi":"5.6","nrind":"NORMAL","fast":null,"dtc":"2024-05-04","dy":"48","visit":"WEEK 7","visitnum":"8.0","epoch":"TREATMENT","spec":null,"method":null},{"seq":"54","testcd":"HGB","test":"Hemoglobin","cat":"HEMATOLOGY","orres":"111.79","orresu":"g/L","stresc":"111.79","stresn":"111.79","stresu":"g/L","stnrlo":"120","stnrhi":"155","nrind":"LOW","fast":null,"dtc":"2024-05-04","dy":"48","visit":"WEEK 7","visitnum":"8.0","epoch":"TREATMENT","spec":null,"method":null},{"seq":"55","testcd":"PLAT","test":"Platelets","cat":"HEMATOLOGY","orres":"264.68","orresu":"10^9/L","stresc":"264.68","stresn":"264.68","stresu":"10^9/L","stnrlo":"150","stnrhi":"400","nrind":"NORMAL","fast":null,"dtc":"2024-05-04","dy":"48","visit":"WEEK 7","visitnum":"8.0","epoch":"TREATMENT","spec":null,"method":null},{"seq":"56","testcd":"WBC","test":"Leukocytes","cat":"HEMATOLOGY","orres":"5.46","orresu":"10^9/L","stresc":"5.46","stresn":"5.46","stresu":"10^9/L","stnrlo":"4.0","stnrhi":"11.0","nrind":"NORMAL","fast":null,"dtc":"2024-05-04","dy":"48","visit":"WEEK 7","visitnum":"8.0","epoch":"TREATMENT","spec":null,"method":null},{"seq":"57","testcd":"ALT","test":"Alanine Aminotransferase","cat":"CHEMISTRY","orres":"27.34","orresu":"U/L","stresc":"27.34","stresn":"27.34","stresu":"U/L","stnrlo":"7","stnrhi":"56","nrind":"NORMAL","fast":null,"dtc":"2024-05-13","dy":"57","visit":"WEEK 8 EOT","visitnum":"9.0","epoch":"TREATMENT","spec":null,"method":null},{"seq":"58","testcd":"AST","test":"Aspartate Aminotransferase","cat":"CHEMISTRY","orres":"23.35","orresu":"U/L","stresc":"23.35","stresn":"23.35","stresu":"U/L","stnrlo":"10","stnrhi":"40","nrind":"NORMAL","fast":null,"dtc":"2024-05-13","dy":"57","visit":"WEEK 8 EOT","visitnum":"9.0","epoch":"TREATMENT","spec":null,"method":null},{"seq":"59","testcd":"CREAT","test":"Creatinine","cat":"CHEMISTRY","orres":"90.76","orresu":"umol/L","stresc":"90.76","stresn":"90.76","stresu":"umol/L","stnrlo":"44","stnrhi":"80","nrind":"HIGH","fast":null,"dtc":"2024-05-13","dy":"57","visit":"WEEK 8 EOT","visitnum":"9.0","epoch":"TREATMENT","spec":null,"method":null},{"seq":"60","testcd":"GLUC","test":"Glucose","cat":"CHEMISTRY","orres":"4.37","orresu":"mmol/L","stresc":"4.37","stresn":"4.37","stresu":"mmol/L","stnrlo":"3.9","stnrhi":"5.6","nrind":"NORMAL","fast":null,"dtc":"2024-05-13","dy":"57","visit":"WEEK 8 EOT","visitnum":"9.0","epoch":"TREATMENT","spec":null,"method":null},{"seq":"61","testcd":"HGB","test":"Hemoglobin","cat":"HEMATOLOGY","orres":"113.4","orresu":"g/L","stresc":"113.4","stresn":"113.4","stresu":"g/L","stnrlo":"120","stnrhi":"155","nrind":"LOW","fast":null,"dtc":"2024-05-13","dy":"57","visit":"WEEK 8 EOT","visitnum":"9.0","epoch":"TREATMENT","spec":null,"method":null},{"seq":"62","testcd":"PLAT","test":"Platelets","cat":"HEMATOLOGY","orres":"271.45","orresu":"10^9/L","stresc":"271.45","stresn":"271.45","stresu":"10^9/L","stnrlo":"150","stnrhi":"400","nrind":"NORMAL","fast":null,"dtc":"2024-05-13","dy":"57","visit":"WEEK 8 EOT","visitnum":"9.0","epoch":"TREATMENT","spec":null,"method":null},{"seq":"63","testcd":"WBC","test":"Leukocytes","cat":"HEMATOLOGY","orres":"5.01","orresu":"10^9/L","stresc":"5.01","stresn":"5.01","stresu":"10^9/L","stnrlo":"4.0","stnrhi":"11.0","nrind":"NORMAL","fast":null,"dtc":"2024-05-13","dy":"57","visit":"WEEK 8 EOT","visitnum":"9.0","epoch":"TREATMENT","spec":null,"method":null},{"seq":"64","testcd":"ALT","test":"Alanine Aminotransferase","cat":"CHEMISTRY","orres":"25.22","orresu":"U/L","stresc":"25.22","stresn":"25.22","stresu":"U/L","stnrlo":"7","stnrhi":"56","nrind":"NORMAL","fast":null,"dtc":"2024-06-06","dy":"81","visit":"SAFETY FU WEEK 4","visitnum":"10.0","epoch":"FOLLOW-UP","spec":null,"method":null},{"seq":"65","testcd":"AST","test":"Aspartate Aminotransferase","cat":"CHEMISTRY","orres":"22.8","orresu":"U/L","stresc":"22.8","stresn":"22.8","stresu":"U/L","stnrlo":"10","stnrhi":"40","nrind":"NORMAL","fast":null,"dtc":"2024-06-06","dy":"81","visit":"SAFETY FU WEEK 4","visitnum":"10.0","epoch":"FOLLOW-UP","spec":null,"method":null},{"seq":"66","testcd":"CREAT","test":"Creatinine","cat":"CHEMISTRY","orres":"90.45","orresu":"umol/L","stresc":"90.45","stresn":"90.45","stresu":"umol/L","stnrlo":"44","stnrhi":"80","nrind":"HIGH","fast":null,"dtc":"2024-06-06","dy":"81","visit":"SAFETY FU WEEK 4","visitnum":"10.0","epoch":"FOLLOW-UP","spec":null,"method":null},{"seq":"67","testcd":"GLUC","test":"Glucose","cat":"CHEMISTRY","orres":"4.38","orresu":"mmol/L","stresc":"4.38","stresn":"4.38","stresu":"mmol/L","stnrlo":"3.9","stnrhi":"5.6","nrind":"NORMAL","fast":null,"dtc":"2024-06-06","dy":"81","visit":"SAFETY FU WEEK 4","visitnum":"10.0","epoch":"FOLLOW-UP","spec":null,"method":null},{"seq":"68","testcd":"HGB","test":"Hemoglobin","cat":"HEMATOLOGY","orres":null,"orresu":null,"stresc":null,"stresn":null,"stresu":null,"stnrlo":null,"stnrhi":null,"nrind":null,"fast":null,"dtc":"2024-06-06","dy":"81","visit":"SAFETY FU WEEK 4","visitnum":"10.0","epoch":"FOLLOW-UP","spec":null,"method":null},{"seq":"69","testcd":"PLAT","test":"Platelets","cat":"HEMATOLOGY","orres":"260.51","orresu":"10^9/L","stresc":"260.51","stresn":"260.51","stresu":"10^9/L","stnrlo":"150","stnrhi":"400","nrind":"NORMAL","fast":null,"dtc":"2024-06-06","dy":"81","visit":"SAFETY FU WEEK 4","visitnum":"10.0","epoch":"FOLLOW-UP","spec":null,"method":null},{"seq":"70","testcd":"WBC","test":"Leukocytes","cat":"HEMATOLOGY","orres":"5.09","orresu":"10^9/L","stresc":"5.09","stresn":"5.09","stresu":"10^9/L","stnrlo":"4.0","stnrhi":"11.0","nrind":"NORMAL","fast":null,"dtc":"2024-06-06","dy":"81","visit":"SAFETY FU WEEK 4","visitnum":"10.0","epoch":"FOLLOW-UP","spec":null,"method":null},{"seq":"71","testcd":"ALT","test":"Alanine Aminotransferase","cat":"CHEMISTRY","orres":"26.58","orresu":"U/L","stresc":"26.58","stresn":"26.58","stresu":"U/L","stnrlo":"7","stnrhi":"56","nrind":"NORMAL","fast":null,"dtc":"2024-07-08","dy":"113","visit":"SAFETY FU WEEK 8","visitnum":"11.0","epoch":"FOLLOW-UP","spec":null,"method":null},{"seq":"72","testcd":"AST","test":"Aspartate Aminotransferase","cat":"CHEMISTRY","orres":"22.4","orresu":"U/L","stresc":"22.4","stresn":"22.4","stresu":"U/L","stnrlo":"10","stnrhi":"40","nrind":"NORMAL","fast":null,"dtc":"2024-07-08","dy":"113","visit":"SAFETY FU WEEK 8","visitnum":"11.0","epoch":"FOLLOW-UP","spec":null,"method":null},{"seq":"73","testcd":"CREAT","test":"Creatinine","cat":"CHEMISTRY","orres":"91.61","orresu":"umol/L","stresc":"91.61","stresn":"91.61","stresu":"umol/L","stnrlo":"44","stnrhi":"80","nrind":"HIGH","fast":null,"dtc":"2024-07-08","dy":"113","visit":"SAFETY FU WEEK 8","visitnum":"11.0","epoch":"FOLLOW-UP","spec":null,"method":null},{"seq":"74","testcd":"GLUC","test":"Glucose","cat":"CHEMISTRY","orres":"4.29","orresu":"mmol/L","stresc":"4.29","stresn":"4.29","stresu":"mmol/L","stnrlo":"3.9","stnrhi":"5.6","nrind":"NORMAL","fast":null,"dtc":"2024-07-08","dy":"113","visit":"SAFETY FU WEEK 8","visitnum":"11.0","epoch":"FOLLOW-UP","spec":null,"method":null},{"seq":"75","testcd":"HGB","test":"Hemoglobin","cat":"HEMATOLOGY","orres":"115.32","orresu":"g/L","stresc":"115.32","stresn":"115.32","stresu":"g/L","stnrlo":"120","stnrhi":"155","nrind":"LOW","fast":null,"dtc":"2024-07-08","dy":"113","visit":"SAFETY FU WEEK 8","visitnum":"11.0","epoch":"FOLLOW-UP","spec":null,"method":null},{"seq":"76","testcd":"PLAT","test":"Platelets","cat":"HEMATOLOGY","orres":"272.55","orresu":"10^9/L","stresc":"272.55","stresn":"272.55","stresu":"10^9/L","stnrlo":"150","stnrhi":"400","nrind":"NORMAL","fast":null,"dtc":"2024-07-08","dy":"113","visit":"SAFETY FU WEEK 8","visitnum":"11.0","epoch":"FOLLOW-UP","spec":null,"method":null},{"seq":"77","testcd":"WBC","test":"Leukocytes","cat":"HEMATOLOGY","orres":"5.85","orresu":"10^9/L","stresc":"5.85","stresn":"5.85","stresu":"10^9/L","stnrlo":"4.0","stnrhi":"11.0","nrind":"NORMAL","fast":null,"dtc":"2024-07-08","dy":"113","visit":"SAFETY FU WEEK 8","visitnum":"11.0","epoch":"FOLLOW-UP","spec":null,"method":null}]},"section_9_vital_signs":{"summary":{"total_records":80},"trends":{"BMI":[{"visit":"SCREENING","visitnum":"1.0","dtc":"2024-02-13","value":"21.7","unit":"kg/m2"},{"visit":"DAY 1 LOADING","visitnum":"2.0","dtc":"2024-03-18","value":"22.5","unit":"kg/m2"},{"visit":"WEEK 2","visitnum":"3.0","dtc":"2024-04-01","value":"22.0","unit":"kg/m2"},{"visit":"WEEK 4","visitnum":"5.0","dtc":"2024-04-17","value":"22.6","unit":"kg/m2"},{"visit":"WEEK 5","visitnum":"6.0","dtc":"2024-04-23","value":"23.6","unit":"kg/m2"},{"visit":"WEEK 6","visitnum":"7.0","dtc":"2024-04-27","value":"23.1","unit":"kg/m2"},{"visit":"WEEK 7","visitnum":"8.0","dtc":"2024-05-04","value":"21.9","unit":"kg/m2"},{"visit":"WEEK 8 EOT","visitnum":"9.0","dtc":"2024-05-13","value":"21.5","unit":"kg/m2"},{"visit":"SAFETY FU WEEK 4","visitnum":"10.0","dtc":"2024-06-06","value":"21.0","unit":"kg/m2"},{"visit":"SAFETY FU WEEK 8","visitnum":"11.0","dtc":"2024-07-08","value":"20.0","unit":"kg/m2"}],"DIABP":[{"visit":"SCREENING","visitnum":"1.0","dtc":"2024-02-13","value":"50.3","unit":"mmHg"},{"visit":"DAY 1 LOADING","visitnum":"2.0","dtc":"2024-03-18","value":"51.1","unit":"mmHg"},{"visit":"WEEK 2","visitnum":"3.0","dtc":"2024-04-01","value":"51.1","unit":"mmHg"},{"visit":"WEEK 4","visitnum":"5.0","dtc":"2024-04-17","value":"49.9","unit":"mmHg"},{"visit":"WEEK 5","visitnum":"6.0","dtc":"2024-04-23","value":"49.6","unit":"mmHg"},{"visit":"WEEK 6","visitnum":"7.0","dtc":"2024-04-27","value":"50.3","unit":"mmHg"},{"visit":"WEEK 7","visitnum":"8.0","dtc":"2024-05-04","value":"49.3","unit":"mmHg"},{"visit":"SAFETY FU WEEK 4","visitnum":"10.0","dtc":"2024-06-06","value":"49.8","unit":"mmHg"},{"visit":"SAFETY FU WEEK 8","visitnum":"11.0","dtc":"2024-07-08","value":"50.6","unit":"mmHg"}],"HEIGHT":[{"visit":"SCREENING","visitnum":"1.0","dtc":"2024-02-13","value":"159.0","unit":"cm"},{"visit":"DAY 1 LOADING","visitnum":"2.0","dtc":"2024-03-18","value":"158.8","unit":"cm"},{"visit":"WEEK 2","visitnum":"3.0","dtc":"2024-04-01","value":"159.2","unit":"cm"},{"visit":"WEEK 4","visitnum":"5.0","dtc":"2024-04-17","value":"159.4","unit":"cm"},{"visit":"WEEK 5","visitnum":"6.0","dtc":"2024-04-23","value":"159.8","unit":"cm"},{"visit":"WEEK 6","visitnum":"7.0","dtc":"2024-04-27","value":"160.3","unit":"cm"},{"visit":"WEEK 7","visitnum":"8.0","dtc":"2024-05-04","value":"160.2","unit":"cm"},{"visit":"WEEK 8 EOT","visitnum":"9.0","dtc":"2024-05-13","value":"160.4","unit":"cm"},{"visit":"SAFETY FU WEEK 4","visitnum":"10.0","dtc":"2024-06-06","value":"160.8","unit":"cm"},{"visit":"SAFETY FU WEEK 8","visitnum":"11.0","dtc":"2024-07-08","value":"160.5","unit":"cm"}],"PULSE":[{"visit":"SCREENING","visitnum":"1.0","dtc":"2024-02-13","value":"76.0","unit":"beats/min"},{"visit":"DAY 1 LOADING","visitnum":"2.0","dtc":"2024-03-18","value":"78.2","unit":"beats/min"},{"visit":"WEEK 2","visitnum":"3.0","dtc":"2024-04-01","value":"80.5","unit":"beats/min"},{"visit":"WEEK 4","visitnum":"5.0","dtc":"2024-04-17","value":"81.2","unit":"beats/min"},{"visit":"WEEK 5","visitnum":"6.0","dtc":"2024-04-23","value":"82.9","unit":"beats/min"},{"visit":"WEEK 6","visitnum":"7.0","dtc":"2024-04-27","value":"79.2","unit":"beats/min"},{"visit":"WEEK 7","visitnum":"8.0","dtc":"2024-05-04","value":"72.2","unit":"beats/min"},{"visit":"WEEK 8 EOT","visitnum":"9.0","dtc":"2024-05-13","value":"72.4","unit":"beats/min"},{"visit":"SAFETY FU WEEK 4","visitnum":"10.0","dtc":"2024-06-06","value":"73.7","unit":"beats/min"},{"visit":"SAFETY FU WEEK 8","visitnum":"11.0","dtc":"2024-07-08","value":"72.9","unit":"beats/min"}],"RESP":[{"visit":"SCREENING","visitnum":"1.0","dtc":"2024-02-13","value":"20.2","unit":"breaths/min"},{"visit":"DAY 1 LOADING","visitnum":"2.0","dtc":"2024-03-18","value":"21.1","unit":"breaths/min"},{"visit":"WEEK 2","visitnum":"3.0","dtc":"2024-04-01","value":"18.7","unit":"breaths/min"},{"visit":"WEEK 4","visitnum":"5.0","dtc":"2024-04-17","value":"18.8","unit":"breaths/min"},{"visit":"WEEK 5","visitnum":"6.0","dtc":"2024-04-23","value":"21.0","unit":"breaths/min"},{"visit":"WEEK 6","visitnum":"7.0","dtc":"2024-04-27","value":"21.3","unit":"breaths/min"},{"visit":"WEEK 7","visitnum":"8.0","dtc":"2024-05-04","value":"20.1","unit":"breaths/min"},{"visit":"WEEK 8 EOT","visitnum":"9.0","dtc":"2024-05-13","value":"20.4","unit":"breaths/min"},{"visit":"SAFETY FU WEEK 4","visitnum":"10.0","dtc":"2024-06-06","value":"20.4","unit":"breaths/min"},{"visit":"SAFETY FU WEEK 8","visitnum":"11.0","dtc":"2024-07-08","value":"19.9","unit":"breaths/min"}],"SYSBP":[{"visit":"SCREENING","visitnum":"1.0","dtc":"2024-02-13","value":"113.4","unit":"mmHg"},{"visit":"DAY 1 LOADING","visitnum":"2.0","dtc":"2024-03-18","value":"115.5","unit":"mmHg"},{"visit":"WEEK 2","visitnum":"3.0","dtc":"2024-04-01","value":"114.3","unit":"mmHg"},{"visit":"WEEK 4","visitnum":"5.0","dtc":"2024-04-17","value":"112.6","unit":"mmHg"},{"visit":"WEEK 5","visitnum":"6.0","dtc":"2024-04-23","value":"114.4","unit":"mmHg"},{"visit":"WEEK 6","visitnum":"7.0","dtc":"2024-04-27","value":"112.0","unit":"mmHg"},{"visit":"WEEK 7","visitnum":"8.0","dtc":"2024-05-04","value":"111.7","unit":"mmHg"},{"visit":"WEEK 8 EOT","visitnum":"9.0","dtc":"2024-05-13","value":"114.5","unit":"mmHg"},{"visit":"SAFETY FU WEEK 4","visitnum":"10.0","dtc":"2024-06-06","value":"114.1","unit":"mmHg"},{"visit":"SAFETY FU WEEK 8","visitnum":"11.0","dtc":"2024-07-08","value":"116.3","unit":"mmHg"}],"TEMP":[{"visit":"SCREENING","visitnum":"1.0","dtc":"2024-02-13","value":"36.7","unit":"C"},{"visit":"DAY 1 LOADING","visitnum":"2.0","dtc":"2024-03-18","value":"36.6","unit":"C"},{"visit":"WEEK 2","visitnum":"3.0","dtc":"2024-04-01","value":"36.9","unit":"C"},{"visit":"WEEK 4","visitnum":"5.0","dtc":"2024-04-17","value":"36.6","unit":"C"},{"visit":"WEEK 5","visitnum":"6.0","dtc":"2024-04-23","value":"36.8","unit":"C"},{"visit":"WEEK 6","visitnum":"7.0","dtc":"2024-04-27","value":"36.7","unit":"C"},{"visit":"WEEK 7","visitnum":"8.0","dtc":"2024-05-04","value":"36.9","unit":"C"},{"visit":"WEEK 8 EOT","visitnum":"9.0","dtc":"2024-05-13","value":"36.6","unit":"C"},{"visit":"SAFETY FU WEEK 4","visitnum":"10.0","dtc":"2024-06-06","value":"36.5","unit":"C"},{"visit":"SAFETY FU WEEK 8","visitnum":"11.0","dtc":"2024-07-08","value":"36.8","unit":"C"}],"WEIGHT":[{"visit":"SCREENING","visitnum":"1.0","dtc":"2024-02-13","value":"54.9","unit":"kg"},{"visit":"DAY 1 LOADING","visitnum":"2.0","dtc":"2024-03-18","value":"56.8","unit":"kg"},{"visit":"WEEK 2","visitnum":"3.0","dtc":"2024-04-01","value":"55.7","unit":"kg"},{"visit":"WEEK 4","visitnum":"5.0","dtc":"2024-04-17","value":"57.4","unit":"kg"},{"visit":"WEEK 5","visitnum":"6.0","dtc":"2024-04-23","value":"60.2","unit":"kg"},{"visit":"WEEK 6","visitnum":"7.0","dtc":"2024-04-27","value":"59.3","unit":"kg"},{"visit":"WEEK 7","visitnum":"8.0","dtc":"2024-05-04","value":"56.1","unit":"kg"},{"visit":"WEEK 8 EOT","visitnum":"9.0","dtc":"2024-05-13","value":"55.2","unit":"kg"},{"visit":"SAFETY FU WEEK 4","visitnum":"10.0","dtc":"2024-06-06","value":"54.2","unit":"kg"},{"visit":"SAFETY FU WEEK 8","visitnum":"11.0","dtc":"2024-07-08","value":"51.6","unit":"kg"}]},"results":[{"seq":"1","testcd":"BMI","test":"BMI","cat":null,"orres":null,"orresu":null,"stresc":"21.7","stresn":"21.7","stresu":"kg/m2","stnrlo":null,"stnrhi":null,"nrind":null,"pos":null,"loc":null,"dtc":"2024-02-13","dy":"-34","visit":"SCREENING","visitnum":"1.0","epoch":"SCREENING"},{"seq":"2","testcd":"DIABP","test":"Diastolic Blood Pressure","cat":null,"orres":"50.3","orresu":"mmHg","stresc":"50.3","stresn":"50.3","stresu":"mmHg","stnrlo":null,"stnrhi":null,"nrind":null,"pos":null,"loc":null,"dtc":"2024-02-13","dy":"-34","visit":"SCREENING","visitnum":"1.0","epoch":"SCREENING"},{"seq":"3","testcd":"HEIGHT","test":"Height","cat":null,"orres":"159.0","orresu":"cm","stresc":"159.0","stresn":"159.0","stresu":"cm","stnrlo":null,"stnrhi":null,"nrind":null,"pos":null,"loc":null,"dtc":"2024-02-13","dy":"-34","visit":"SCREENING","visitnum":"1.0","epoch":"SCREENING"},{"seq":"4","testcd":"PULSE","test":"Pulse Rate","cat":null,"orres":"76.0","orresu":"beats/min","stresc":"76.0","stresn":"76.0","stresu":"beats/min","stnrlo":null,"stnrhi":null,"nrind":null,"pos":null,"loc":null,"dtc":"2024-02-13","dy":"-34","visit":"SCREENING","visitnum":"1.0","epoch":"SCREENING"},{"seq":"5","testcd":"RESP","test":"Respiratory Rate","cat":null,"orres":"20.2","orresu":"breaths/min","stresc":"20.2","stresn":"20.2","stresu":"breaths/min","stnrlo":null,"stnrhi":null,"nrind":null,"pos":null,"loc":null,"dtc":"2024-02-13","dy":"-34","visit":"SCREENING","visitnum":"1.0","epoch":"SCREENING"},{"seq":"6","testcd":"SYSBP","test":"Systolic Blood Pressure","cat":null,"orres":"113.4","orresu":"mmHg","stresc":"113.4","stresn":"113.4","stresu":"mmHg","stnrlo":null,"stnrhi":null,"nrind":null,"pos":null,"loc":null,"dtc":"2024-02-13","dy":"-34","visit":"SCREENING","visitnum":"1.0","epoch":"SCREENING"},{"seq":"7","testcd":"TEMP","test":"Temperature","cat":null,"orres":"36.7","orresu":"C","stresc":"36.7","stresn":"36.7","stresu":"C","stnrlo":null,"stnrhi":null,"nrind":null,"pos":null,"loc":null,"dtc":"2024-02-13","dy":"-34","visit":"SCREENING","visitnum":"1.0","epoch":"SCREENING"},{"seq":"8","testcd":"WEIGHT","test":"Weight","cat":null,"orres":"54.9","orresu":"kg","stresc":"54.9","stresn":"54.9","stresu":"kg","stnrlo":null,"stnrhi":null,"nrind":null,"pos":null,"loc":null,"dtc":"2024-02-13","dy":"-34","visit":"SCREENING","visitnum":"1.0","epoch":"SCREENING"},{"seq":"9","testcd":"BMI","test":"BMI","cat":null,"orres":null,"orresu":null,"stresc":"22.5","stresn":"22.5","stresu":"kg/m2","stnrlo":null,"stnrhi":null,"nrind":null,"pos":null,"loc":null,"dtc":"2024-03-18","dy":"1","visit":"DAY 1 LOADING","visitnum":"2.0","epoch":"TREATMENT"},{"seq":"10","testcd":"DIABP","test":"Diastolic Blood Pressure","cat":null,"orres":"51.1","orresu":"mmHg","stresc":"51.1","stresn":"51.1","stresu":"mmHg","stnrlo":null,"stnrhi":null,"nrind":null,"pos":null,"loc":null,"dtc":"2024-03-18","dy":"1","visit":"DAY 1 LOADING","visitnum":"2.0","epoch":"TREATMENT"},{"seq":"11","testcd":"HEIGHT","test":"Height","cat":null,"orres":"158.8","orresu":"cm","stresc":"158.8","stresn":"158.8","stresu":"cm","stnrlo":null,"stnrhi":null,"nrind":null,"pos":null,"loc":null,"dtc":"2024-03-18","dy":"1","visit":"DAY 1 LOADING","visitnum":"2.0","epoch":"TREATMENT"},{"seq":"12","testcd":"PULSE","test":"Pulse Rate","cat":null,"orres":"78.2","orresu":"beats/min","stresc":"78.2","stresn":"78.2","stresu":"beats/min","stnrlo":null,"stnrhi":null,"nrind":null,"pos":null,"loc":null,"dtc":"2024-03-18","dy":"1","visit":"DAY 1 LOADING","visitnum":"2.0","epoch":"TREATMENT"},{"seq":"13","testcd":"RESP","test":"Respiratory Rate","cat":null,"orres":"21.1","orresu":"breaths/min","stresc":"21.1","stresn":"21.1","stresu":"breaths/min","stnrlo":null,"stnrhi":null,"nrind":null,"pos":null,"loc":null,"dtc":"2024-03-18","dy":"1","visit":"DAY 1 LOADING","visitnum":"2.0","epoch":"TREATMENT"},{"seq":"14","testcd":"SYSBP","test":"Systolic Blood Pressure","cat":null,"orres":"115.5","orresu":"mmHg","stresc":"115.5","stresn":"115.5","stresu":"mmHg","stnrlo":null,"stnrhi":null,"nrind":null,"pos":null,"loc":null,"dtc":"2024-03-18","dy":"1","visit":"DAY 1 LOADING","visitnum":"2.0","epoch":"TREATMENT"},{"seq":"15","testcd":"TEMP","test":"Temperature","cat":null,"orres":"36.6","orresu":"C","stresc":"36.6","stresn":"36.6","stresu":"C","stnrlo":null,"stnrhi":null,"nrind":null,"pos":null,"loc":null,"dtc":"2024-03-18","dy":"1","visit":"DAY 1 LOADING","visitnum":"2.0","epoch":"TREATMENT"},{"seq":"16","testcd":"WEIGHT","test":"Weight","cat":null,"orres":"56.8","orresu":"kg","stresc":"56.8","stresn":"56.8","stresu":"kg","stnrlo":null,"stnrhi":null,"nrind":null,"pos":null,"loc":null,"dtc":"2024-03-18","dy":"1","visit":"DAY 1 LOADING","visitnum":"2.0","epoch":"TREATMENT"},{"seq":"17","testcd":"BMI","test":"BMI","cat":null,"orres":null,"orresu":null,"stresc":"22.0","stresn":"22.0","stresu":"kg/m2","stnrlo":null,"stnrhi":null,"nrind":null,"pos":null,"loc":null,"dtc":"2024-04-01","dy":"15","visit":"WEEK 2","visitnum":"3.0","epoch":"TREATMENT"},{"seq":"18","testcd":"DIABP","test":"Diastolic Blood Pressure","cat":null,"orres":"51.1","orresu":"mmHg","stresc":"51.1","stresn":"51.1","stresu":"mmHg","stnrlo":null,"stnrhi":null,"nrind":null,"pos":null,"loc":null,"dtc":"2024-04-01","dy":"15","visit":"WEEK 2","visitnum":"3.0","epoch":"TREATMENT"},{"seq":"19","testcd":"HEIGHT","test":"Height","cat":null,"orres":"159.2","orresu":"cm","stresc":"159.2","stresn":"159.2","stresu":"cm","stnrlo":null,"stnrhi":null,"nrind":null,"pos":null,"loc":null,"dtc":"2024-04-01","dy":"15","visit":"WEEK 2","visitnum":"3.0","epoch":"TREATMENT"},{"seq":"20","testcd":"PULSE","test":"Pulse Rate","cat":null,"orres":"80.5","orresu":"beats/min","stresc":"80.5","stresn":"80.5","stresu":"beats/min","stnrlo":null,"stnrhi":null,"nrind":null,"pos":null,"loc":null,"dtc":"2024-04-01","dy":"15","visit":"WEEK 2","visitnum":"3.0","epoch":"TREATMENT"},{"seq":"21","testcd":"RESP","test":"Respiratory Rate","cat":null,"orres":"18.7","orresu":"breaths/min","stresc":"18.7","stresn":"18.7","stresu":"breaths/min","stnrlo":null,"stnrhi":null,"nrind":null,"pos":null,"loc":null,"dtc":"2024-04-01","dy":"15","visit":"WEEK 2","visitnum":"3.0","epoch":"TREATMENT"},{"seq":"22","testcd":"SYSBP","test":"Systolic Blood Pressure","cat":null,"orres":"114.3","orresu":"mmHg","stresc":"114.3","stresn":"114.3","stresu":"mmHg","stnrlo":null,"stnrhi":null,"nrind":null,"pos":null,"loc":null,"dtc":"2024-04-01","dy":"15","visit":"WEEK 2","visitnum":"3.0","epoch":"TREATMENT"},{"seq":"23","testcd":"TEMP","test":"Temperature","cat":null,"orres":"36.9","orresu":"C","stresc":"36.9","stresn":"36.9","stresu":"C","stnrlo":null,"stnrhi":null,"nrind":null,"pos":null,"loc":null,"dtc":"2024-04-01","dy":"15","visit":"WEEK 2","visitnum":"3.0","epoch":"TREATMENT"},{"seq":"24","testcd":"WEIGHT","test":"Weight","cat":null,"orres":"55.7","orresu":"kg","stresc":"55.7","stresn":"55.7","stresu":"kg","stnrlo":null,"stnrhi":null,"nrind":null,"pos":null,"loc":null,"dtc":"2024-04-01","dy":"15","visit":"WEEK 2","visitnum":"3.0","epoch":"TREATMENT"},{"seq":"25","testcd":"BMI","test":"BMI","cat":null,"orres":null,"orresu":null,"stresc":"22.6","stresn":"22.6","stresu":"kg/m2","stnrlo":null,"stnrhi":null,"nrind":null,"pos":null,"loc":null,"dtc":"2024-04-17","dy":"31","visit":"WEEK 4","visitnum":"5.0","epoch":"TREATMENT"},{"seq":"26","testcd":"DIABP","test":"Diastolic Blood Pressure","cat":null,"orres":"49.9","orresu":"mmHg","stresc":"49.9","stresn":"49.9","stresu":"mmHg","stnrlo":null,"stnrhi":null,"nrind":null,"pos":null,"loc":null,"dtc":"2024-04-17","dy":"31","visit":"WEEK 4","visitnum":"5.0","epoch":"TREATMENT"},{"seq":"27","testcd":"HEIGHT","test":"Height","cat":null,"orres":"159.4","orresu":"cm","stresc":"159.4","stresn":"159.4","stresu":"cm","stnrlo":null,"stnrhi":null,"nrind":null,"pos":null,"loc":null,"dtc":"2024-04-17","dy":"31","visit":"WEEK 4","visitnum":"5.0","epoch":"TREATMENT"},{"seq":"28","testcd":"PULSE","test":"Pulse Rate","cat":null,"orres":"81.2","orresu":"beats/min","stresc":"81.2","stresn":"81.2","stresu":"beats/min","stnrlo":null,"stnrhi":null,"nrind":null,"pos":null,"loc":null,"dtc":"2024-04-17","dy":"31","visit":"WEEK 4","visitnum":"5.0","epoch":"TREATMENT"},{"seq":"29","testcd":"RESP","test":"Respiratory Rate","cat":null,"orres":"18.8","orresu":"breaths/min","stresc":"18.8","stresn":"18.8","stresu":"breaths/min","stnrlo":null,"stnrhi":null,"nrind":null,"pos":null,"loc":null,"dtc":"2024-04-17","dy":"31","visit":"WEEK 4","visitnum":"5.0","epoch":"TREATMENT"},{"seq":"30","testcd":"SYSBP","test":"Systolic Blood Pressure","cat":null,"orres":"112.6","orresu":"mmHg","stresc":"112.6","stresn":"112.6","stresu":"mmHg","stnrlo":null,"stnrhi":null,"nrind":null,"pos":null,"loc":null,"dtc":"2024-04-17","dy":"31","visit":"WEEK 4","visitnum":"5.0","epoch":"TREATMENT"},{"seq":"31","testcd":"TEMP","test":"Temperature","cat":null,"orres":"36.6","orresu":"C","stresc":"36.6","stresn":"36.6","stresu":"C","stnrlo":null,"stnrhi":null,"nrind":null,"pos":null,"loc":null,"dtc":"2024-04-17","dy":"31","visit":"WEEK 4","visitnum":"5.0","epoch":"TREATMENT"},{"seq":"32","testcd":"WEIGHT","test":"Weight","cat":null,"orres":"57.4","orresu":"kg","stresc":"57.4","stresn":"57.4","stresu":"kg","stnrlo":null,"stnrhi":null,"nrind":null,"pos":null,"loc":null,"dtc":"2024-04-17","dy":"31","visit":"WEEK 4","visitnum":"5.0","epoch":"TREATMENT"},{"seq":"33","testcd":"BMI","test":"BMI","cat":null,"orres":null,"orresu":null,"stresc":"23.6","stresn":"23.6","stresu":"kg/m2","stnrlo":null,"stnrhi":null,"nrind":null,"pos":null,"loc":null,"dtc":"2024-04-23","dy":"37","visit":"WEEK 5","visitnum":"6.0","epoch":"TREATMENT"},{"seq":"34","testcd":"DIABP","test":"Diastolic Blood Pressure","cat":null,"orres":"49.6","orresu":"mmHg","stresc":"49.6","stresn":"49.6","stresu":"mmHg","stnrlo":null,"stnrhi":null,"nrind":null,"pos":null,"loc":null,"dtc":"2024-04-23","dy":"37","visit":"WEEK 5","visitnum":"6.0","epoch":"TREATMENT"},{"seq":"35","testcd":"HEIGHT","test":"Height","cat":null,"orres":"159.8","orresu":"cm","stresc":"159.8","stresn":"159.8","stresu":"cm","stnrlo":null,"stnrhi":null,"nrind":null,"pos":null,"loc":null,"dtc":"2024-04-23","dy":"37","visit":"WEEK 5","visitnum":"6.0","epoch":"TREATMENT"},{"seq":"36","testcd":"PULSE","test":"Pulse Rate","cat":null,"orres":"82.9","orresu":"beats/min","stresc":"82.9","stresn":"82.9","stresu":"beats/min","stnrlo":null,"stnrhi":null,"nrind":null,"pos":null,"loc":null,"dtc":"2024-04-23","dy":"37","visit":"WEEK 5","visitnum":"6.0","epoch":"TREATMENT"},{"seq":"37","testcd":"RESP","test":"Respiratory Rate","cat":null,"orres":"21.0","orresu":"breaths/min","stresc":"21.0","stresn":"21.0","stresu":"breaths/min","stnrlo":null,"stnrhi":null,"nrind":null,"pos":null,"loc":null,"dtc":"2024-04-23","dy":"37","visit":"WEEK 5","visitnum":"6.0","epoch":"TREATMENT"},{"seq":"38","testcd":"SYSBP","test":"Systolic Blood Pressure","cat":null,"orres":"114.4","orresu":"mmHg","stresc":"114.4","stresn":"114.4","stresu":"mmHg","stnrlo":null,"stnrhi":null,"nrind":null,"pos":null,"loc":null,"dtc":"2024-04-23","dy":"37","visit":"WEEK 5","visitnum":"6.0","epoch":"TREATMENT"},{"seq":"39","testcd":"TEMP","test":"Temperature","cat":null,"orres":"36.8","orresu":"C","stresc":"36.8","stresn":"36.8","stresu":"C","stnrlo":null,"stnrhi":null,"nrind":null,"pos":null,"loc":null,"dtc":"2024-04-23","dy":"37","visit":"WEEK 5","visitnum":"6.0","epoch":"TREATMENT"},{"seq":"40","testcd":"WEIGHT","test":"Weight","cat":null,"orres":"60.2","orresu":"kg","stresc":"60.2","stresn":"60.2","stresu":"kg","stnrlo":null,"stnrhi":null,"nrind":null,"pos":null,"loc":null,"dtc":"2024-04-23","dy":"37","visit":"WEEK 5","visitnum":"6.0","epoch":"TREATMENT"},{"seq":"41","testcd":"BMI","test":"BMI","cat":null,"orres":null,"orresu":null,"stresc":"23.1","stresn":"23.1","stresu":"kg/m2","stnrlo":null,"stnrhi":null,"nrind":null,"pos":null,"loc":null,"dtc":"2024-04-27","dy":"41","visit":"WEEK 6","visitnum":"7.0","epoch":"TREATMENT"},{"seq":"42","testcd":"DIABP","test":"Diastolic Blood Pressure","cat":null,"orres":"50.3","orresu":"mmHg","stresc":"50.3","stresn":"50.3","stresu":"mmHg","stnrlo":null,"stnrhi":null,"nrind":null,"pos":null,"loc":null,"dtc":"2024-04-27","dy":"41","visit":"WEEK 6","visitnum":"7.0","epoch":"TREATMENT"},{"seq":"43","testcd":"HEIGHT","test":"Height","cat":null,"orres":"160.3","orresu":"cm","stresc":"160.3","stresn":"160.3","stresu":"cm","stnrlo":null,"stnrhi":null,"nrind":null,"pos":null,"loc":null,"dtc":"2024-04-27","dy":"41","visit":"WEEK 6","visitnum":"7.0","epoch":"TREATMENT"},{"seq":"44","testcd":"PULSE","test":"Pulse Rate","cat":null,"orres":"79.2","orresu":"beats/min","stresc":"79.2","stresn":"79.2","stresu":"beats/min","stnrlo":null,"stnrhi":null,"nrind":null,"pos":null,"loc":null,"dtc":"2024-04-27","dy":"41","visit":"WEEK 6","visitnum":"7.0","epoch":"TREATMENT"},{"seq":"45","testcd":"RESP","test":"Respiratory Rate","cat":null,"orres":"21.3","orresu":"breaths/min","stresc":"21.3","stresn":"21.3","stresu":"breaths/min","stnrlo":null,"stnrhi":null,"nrind":null,"pos":null,"loc":null,"dtc":"2024-04-27","dy":"41","visit":"WEEK 6","visitnum":"7.0","epoch":"TREATMENT"},{"seq":"46","testcd":"SYSBP","test":"Systolic Blood Pressure","cat":null,"orres":"112.0","orresu":"mmHg","stresc":"112.0","stresn":"112.0","stresu":"mmHg","stnrlo":null,"stnrhi":null,"nrind":null,"pos":null,"loc":null,"dtc":"2024-04-27","dy":"41","visit":"WEEK 6","visitnum":"7.0","epoch":"TREATMENT"},{"seq":"47","testcd":"TEMP","test":"Temperature","cat":null,"orres":"36.7","orresu":"C","stresc":"36.7","stresn":"36.7","stresu":"C","stnrlo":null,"stnrhi":null,"nrind":null,"pos":null,"loc":null,"dtc":"2024-04-27","dy":"41","visit":"WEEK 6","visitnum":"7.0","epoch":"TREATMENT"},{"seq":"48","testcd":"WEIGHT","test":"Weight","cat":null,"orres":"59.3","orresu":"kg","stresc":"59.3","stresn":"59.3","stresu":"kg","stnrlo":null,"stnrhi":null,"nrind":null,"pos":null,"loc":null,"dtc":"2024-04-27","dy":"41","visit":"WEEK 6","visitnum":"7.0","epoch":"TREATMENT"},{"seq":"49","testcd":"BMI","test":"BMI","cat":null,"orres":null,"orresu":null,"stresc":"21.9","stresn":"21.9","stresu":"kg/m2","stnrlo":null,"stnrhi":null,"nrind":null,"pos":null,"loc":null,"dtc":"2024-05-04","dy":"48","visit":"WEEK 7","visitnum":"8.0","epoch":"TREATMENT"},{"seq":"50","testcd":"DIABP","test":"Diastolic Blood Pressure","cat":null,"orres":"49.3","orresu":"mmHg","stresc":"49.3","stresn":"49.3","stresu":"mmHg","stnrlo":null,"stnrhi":null,"nrind":null,"pos":null,"loc":null,"dtc":"2024-05-04","dy":"48","visit":"WEEK 7","visitnum":"8.0","epoch":"TREATMENT"},{"seq":"51","testcd":"HEIGHT","test":"Height","cat":null,"orres":"160.2","orresu":"cm","stresc":"160.2","stresn":"160.2","stresu":"cm","stnrlo":null,"stnrhi":null,"nrind":null,"pos":null,"loc":null,"dtc":"2024-05-04","dy":"48","visit":"WEEK 7","visitnum":"8.0","epoch":"TREATMENT"},{"seq":"52","testcd":"PULSE","test":"Pulse Rate","cat":null,"orres":"72.2","orresu":"beats/min","stresc":"72.2","stresn":"72.2","stresu":"beats/min","stnrlo":null,"stnrhi":null,"nrind":null,"pos":null,"loc":null,"dtc":"2024-05-04","dy":"48","visit":"WEEK 7","visitnum":"8.0","epoch":"TREATMENT"},{"seq":"53","testcd":"RESP","test":"Respiratory Rate","cat":null,"orres":"20.1","orresu":"breaths/min","stresc":"20.1","stresn":"20.1","stresu":"breaths/min","stnrlo":null,"stnrhi":null,"nrind":null,"pos":null,"loc":null,"dtc":"2024-05-04","dy":"48","visit":"WEEK 7","visitnum":"8.0","epoch":"TREATMENT"},{"seq":"54","testcd":"SYSBP","test":"Systolic Blood Pressure","cat":null,"orres":"111.7","orresu":"mmHg","stresc":"111.7","stresn":"111.7","stresu":"mmHg","stnrlo":null,"stnrhi":null,"nrind":null,"pos":null,"loc":null,"dtc":"2024-05-04","dy":"48","visit":"WEEK 7","visitnum":"8.0","epoch":"TREATMENT"},{"seq":"55","testcd":"TEMP","test":"Temperature","cat":null,"orres":"36.9","orresu":"C","stresc":"36.9","stresn":"36.9","stresu":"C","stnrlo":null,"stnrhi":null,"nrind":null,"pos":null,"loc":null,"dtc":"2024-05-04","dy":"48","visit":"WEEK 7","visitnum":"8.0","epoch":"TREATMENT"},{"seq":"56","testcd":"WEIGHT","test":"Weight","cat":null,"orres":"56.1","orresu":"kg","stresc":"56.1","stresn":"56.1","stresu":"kg","stnrlo":null,"stnrhi":null,"nrind":null,"pos":null,"loc":null,"dtc":"2024-05-04","dy":"48","visit":"WEEK 7","visitnum":"8.0","epoch":"TREATMENT"},{"seq":"57","testcd":"BMI","test":"BMI","cat":null,"orres":null,"orresu":null,"stresc":"21.5","stresn":"21.5","stresu":"kg/m2","stnrlo":null,"stnrhi":null,"nrind":null,"pos":null,"loc":null,"dtc":"2024-05-13","dy":"57","visit":"WEEK 8 EOT","visitnum":"9.0","epoch":"TREATMENT"},{"seq":"58","testcd":"DIABP","test":"Diastolic Blood Pressure","cat":null,"orres":null,"orresu":null,"stresc":null,"stresn":null,"stresu":null,"stnrlo":null,"stnrhi":null,"nrind":null,"pos":null,"loc":null,"dtc":"2024-05-13","dy":"57","visit":"WEEK 8 EOT","visitnum":"9.0","epoch":"TREATMENT"},{"seq":"59","testcd":"HEIGHT","test":"Height","cat":null,"orres":"160.4","orresu":"cm","stresc":"160.4","stresn":"160.4","stresu":"cm","stnrlo":null,"stnrhi":null,"nrind":null,"pos":null,"loc":null,"dtc":"2024-05-13","dy":"57","visit":"WEEK 8 EOT","visitnum":"9.0","epoch":"TREATMENT"},{"seq":"60","testcd":"PULSE","test":"Pulse Rate","cat":null,"orres":"72.4","orresu":"beats/min","stresc":"72.4","stresn":"72.4","stresu":"beats/min","stnrlo":null,"stnrhi":null,"nrind":null,"pos":null,"loc":null,"dtc":"2024-05-13","dy":"57","visit":"WEEK 8 EOT","visitnum":"9.0","epoch":"TREATMENT"},{"seq":"61","testcd":"RESP","test":"Respiratory Rate","cat":null,"orres":"20.4","orresu":"breaths/min","stresc":"20.4","stresn":"20.4","stresu":"breaths/min","stnrlo":null,"stnrhi":null,"nrind":null,"pos":null,"loc":null,"dtc":"2024-05-13","dy":"57","visit":"WEEK 8 EOT","visitnum":"9.0","epoch":"TREATMENT"},{"seq":"62","testcd":"SYSBP","test":"Systolic Blood Pressure","cat":null,"orres":"114.5","orresu":"mmHg","stresc":"114.5","stresn":"114.5","stresu":"mmHg","stnrlo":null,"stnrhi":null,"nrind":null,"pos":null,"loc":null,"dtc":"2024-05-13","dy":"57","visit":"WEEK 8 EOT","visitnum":"9.0","epoch":"TREATMENT"},{"seq":"63","testcd":"TEMP","test":"Temperature","cat":null,"orres":"36.6","orresu":"C","stresc":"36.6","stresn":"36.6","stresu":"C","stnrlo":null,"stnrhi":null,"nrind":null,"pos":null,"loc":null,"dtc":"2024-05-13","dy":"57","visit":"WEEK 8 EOT","visitnum":"9.0","epoch":"TREATMENT"},{"seq":"64","testcd":"WEIGHT","test":"Weight","cat":null,"orres":"55.2","orresu":"kg","stresc":"55.2","stresn":"55.2","stresu":"kg","stnrlo":null,"stnrhi":null,"nrind":null,"pos":null,"loc":null,"dtc":"2024-05-13","dy":"57","visit":"WEEK 8 EOT","visitnum":"9.0","epoch":"TREATMENT"},{"seq":"65","testcd":"BMI","test":"BMI","cat":null,"orres":null,"orresu":null,"stresc":"21.0","stresn":"21.0","stresu":"kg/m2","stnrlo":null,"stnrhi":null,"nrind":null,"pos":null,"loc":null,"dtc":"2024-06-06","dy":"81","visit":"SAFETY FU WEEK 4","visitnum":"10.0","epoch":"FOLLOW-UP"},{"seq":"66","testcd":"DIABP","test":"Diastolic Blood Pressure","cat":null,"orres":"49.8","orresu":"mmHg","stresc":"49.8","stresn":"49.8","stresu":"mmHg","stnrlo":null,"stnrhi":null,"nrind":null,"pos":null,"loc":null,"dtc":"2024-06-06","dy":"81","visit":"SAFETY FU WEEK 4","visitnum":"10.0","epoch":"FOLLOW-UP"},{"seq":"67","testcd":"HEIGHT","test":"Height","cat":null,"orres":"160.8","orresu":"cm","stresc":"160.8","stresn":"160.8","stresu":"cm","stnrlo":null,"stnrhi":null,"nrind":null,"pos":null,"loc":null,"dtc":"2024-06-06","dy":"81","visit":"SAFETY FU WEEK 4","visitnum":"10.0","epoch":"FOLLOW-UP"},{"seq":"68","testcd":"PULSE","test":"Pulse Rate","cat":null,"orres":"73.7","orresu":"beats/min","stresc":"73.7","stresn":"73.7","stresu":"beats/min","stnrlo":null,"stnrhi":null,"nrind":null,"pos":null,"loc":null,"dtc":"2024-06-06","dy":"81","visit":"SAFETY FU WEEK 4","visitnum":"10.0","epoch":"FOLLOW-UP"},{"seq":"69","testcd":"RESP","test":"Respiratory Rate","cat":null,"orres":"20.4","orresu":"breaths/min","stresc":"20.4","stresn":"20.4","stresu":"breaths/min","stnrlo":null,"stnrhi":null,"nrind":null,"pos":null,"loc":null,"dtc":"2024-06-06","dy":"81","visit":"SAFETY FU WEEK 4","visitnum":"10.0","epoch":"FOLLOW-UP"},{"seq":"70","testcd":"SYSBP","test":"Systolic Blood Pressure","cat":null,"orres":"114.1","orresu":"mmHg","stresc":"114.1","stresn":"114.1","stresu":"mmHg","stnrlo":null,"stnrhi":null,"nrind":null,"pos":null,"loc":null,"dtc":"2024-06-06","dy":"81","visit":"SAFETY FU WEEK 4","visitnum":"10.0","epoch":"FOLLOW-UP"},{"seq":"71","testcd":"TEMP","test":"Temperature","cat":null,"orres":"36.5","orresu":"C","stresc":"36.5","stresn":"36.5","stresu":"C","stnrlo":null,"stnrhi":null,"nrind":null,"pos":null,"loc":null,"dtc":"2024-06-06","dy":"81","visit":"SAFETY FU WEEK 4","visitnum":"10.0","epoch":"FOLLOW-UP"},{"seq":"72","testcd":"WEIGHT","test":"Weight","cat":null,"orres":"54.2","orresu":"kg","stresc":"54.2","stresn":"54.2","stresu":"kg","stnrlo":null,"stnrhi":null,"nrind":null,"pos":null,"loc":null,"dtc":"2024-06-06","dy":"81","visit":"SAFETY FU WEEK 4","visitnum":"10.0","epoch":"FOLLOW-UP"},{"seq":"73","testcd":"BMI","test":"BMI","cat":null,"orres":null,"orresu":null,"stresc":"20.0","stresn":"20.0","stresu":"kg/m2","stnrlo":null,"stnrhi":null,"nrind":null,"pos":null,"loc":null,"dtc":"2024-07-08","dy":"113","visit":"SAFETY FU WEEK 8","visitnum":"11.0","epoch":"FOLLOW-UP"},{"seq":"74","testcd":"DIABP","test":"Diastolic Blood Pressure","cat":null,"orres":"50.6","orresu":"mmHg","stresc":"50.6","stresn":"50.6","stresu":"mmHg","stnrlo":null,"stnrhi":null,"nrind":null,"pos":null,"loc":null,"dtc":"2024-07-08","dy":"113","visit":"SAFETY FU WEEK 8","visitnum":"11.0","epoch":"FOLLOW-UP"},{"seq":"75","testcd":"HEIGHT","test":"Height","cat":null,"orres":"160.5","orresu":"cm","stresc":"160.5","stresn":"160.5","stresu":"cm","stnrlo":null,"stnrhi":null,"nrind":null,"pos":null,"loc":null,"dtc":"2024-07-08","dy":"113","visit":"SAFETY FU WEEK 8","visitnum":"11.0","epoch":"FOLLOW-UP"},{"seq":"76","testcd":"PULSE","test":"Pulse Rate","cat":null,"orres":"72.9","orresu":"beats/min","stresc":"72.9","stresn":"72.9","stresu":"beats/min","stnrlo":null,"stnrhi":null,"nrind":null,"pos":null,"loc":null,"dtc":"2024-07-08","dy":"113","visit":"SAFETY FU WEEK 8","visitnum":"11.0","epoch":"FOLLOW-UP"},{"seq":"77","testcd":"RESP","test":"Respiratory Rate","cat":null,"orres":"19.9","orresu":"breaths/min","stresc":"19.9","stresn":"19.9","stresu":"breaths/min","stnrlo":null,"stnrhi":null,"nrind":null,"pos":null,"loc":null,"dtc":"2024-07-08","dy":"113","visit":"SAFETY FU WEEK 8","visitnum":"11.0","epoch":"FOLLOW-UP"},{"seq":"78","testcd":"SYSBP","test":"Systolic Blood Pressure","cat":null,"orres":"116.3","orresu":"mmHg","stresc":"116.3","stresn":"116.3","stresu":"mmHg","stnrlo":null,"stnrhi":null,"nrind":null,"pos":null,"loc":null,"dtc":"2024-07-08","dy":"113","visit":"SAFETY FU WEEK 8","visitnum":"11.0","epoch":"FOLLOW-UP"},{"seq":"79","testcd":"TEMP","test":"Temperature","cat":null,"orres":"36.8","orresu":"C","stresc":"36.8","stresn":"36.8","stresu":"C","stnrlo":null,"stnrhi":null,"nrind":null,"pos":null,"loc":null,"dtc":"2024-07-08","dy":"113","visit":"SAFETY FU WEEK 8","visitnum":"11.0","epoch":"FOLLOW-UP"},{"seq":"80","testcd":"WEIGHT","test":"Weight","cat":null,"orres":"51.6","orresu":"kg","stresc":"51.6","stresn":"51.6","stresu":"kg","stnrlo":null,"stnrhi":null,"nrind":null,"pos":null,"loc":null,"dtc":"2024-07-08","dy":"113","visit":"SAFETY FU WEEK 8","visitnum":"11.0","epoch":"FOLLOW-UP"}]},"section_10_questionnaires_and_scores":{"questionnaires":[{"seq":"1","testcd":"MADRS01","test":"Apparent Sadness","cat":"MADRS","scat":null,"orres":"2","stresc":"2","stresn":"2.0","dtc":"2024-03-03","dy":"-15","visit":"SCREENING","visitnum":"1.0"},{"seq":"2","testcd":"MADRS02","test":"Reported Sadness","cat":"MADRS","scat":null,"orres":"3","stresc":"3","stresn":"3.0","dtc":"2024-03-03","dy":"-15","visit":"SCREENING","visitnum":"1.0"},{"seq":"3","testcd":"MADRS03","test":"Inner Tension","cat":"MADRS","scat":null,"orres":"3","stresc":"3","stresn":"3.0","dtc":"2024-03-03","dy":"-15","visit":"SCREENING","visitnum":"1.0"},{"seq":"4","testcd":"MADRS04","test":"Reduced Sleep","cat":"MADRS","scat":null,"orres":"5","stresc":"5","stresn":"5.0","dtc":"2024-03-03","dy":"-15","visit":"SCREENING","visitnum":"1.0"},{"seq":"5","testcd":"MADRS05","test":"Reduced Appetite","cat":"MADRS","scat":null,"orres":"3","stresc":"3","stresn":"3.0","dtc":"2024-03-03","dy":"-15","visit":"SCREENING","visitnum":"1.0"},{"seq":"6","testcd":"MADRS06","test":"Concentration Difficulties","cat":"MADRS","scat":null,"orres":"2","stresc":"2","stresn":"2.0","dtc":"2024-03-03","dy":"-15","visit":"SCREENING","visitnum":"1.0"},{"seq":"7","testcd":"MADRS07","test":"Lassitude","cat":"MADRS","scat":null,"orres":"2","stresc":"2","stresn":"2.0","dtc":"2024-03-03","dy":"-15","visit":"SCREENING","visitnum":"1.0"},{"seq":"8","testcd":"MADRS08","test":"Inability to Feel","cat":"MADRS","scat":null,"orres":"4","stresc":"4","stresn":"4.0","dtc":"2024-03-03","dy":"-15","visit":"SCREENING","visitnum":"1.0"},{"seq":"9","testcd":"MADRS09","test":"Pessimistic Thoughts","cat":"MADRS","scat":null,"orres":"3","stresc":"3","stresn":"3.0","dtc":"2024-03-03","dy":"-15","visit":"SCREENING","visitnum":"1.0"},{"seq":"10","testcd":"MADRS10","test":"Suicidal Thoughts","cat":"MADRS","scat":null,"orres":"3","stresc":"3","stresn":"3.0","dtc":"2024-03-03","dy":"-15","visit":"SCREENING","visitnum":"1.0"},{"seq":"11","testcd":"MADRSTOT","test":"MADRS Total Score","cat":"MADRS","scat":"TOTAL","orres":"30.0","stresc":"30.0","stresn":"30.0","dtc":"2024-03-03","dy":"-15","visit":"SCREENING","visitnum":"1.0"},{"seq":"12","testcd":"MADRS01","test":"Apparent Sadness","cat":"MADRS","scat":null,"orres":"3","stresc":"3","stresn":"3.0","dtc":"2024-03-18","dy":"1","visit":"DAY 1 LOADING","visitnum":"2.0"},{"seq":"13","testcd":"MADRS02","test":"Reported Sadness","cat":"MADRS","scat":null,"orres":"3","stresc":"3","stresn":"3.0","dtc":"2024-03-18","dy":"1","visit":"DAY 1 LOADING","visitnum":"2.0"},{"seq":"14","testcd":"MADRS03","test":"Inner Tension","cat":"MADRS","scat":null,"orres":"3","stresc":"3","stresn":"3.0","dtc":"2024-03-18","dy":"1","visit":"DAY 1 LOADING","visitnum":"2.0"},{"seq":"15","testcd":"MADRS04","test":"Reduced Sleep","cat":"MADRS","scat":null,"orres":"2","stresc":"2","stresn":"2.0","dtc":"2024-03-18","dy":"1","visit":"DAY 1 LOADING","visitnum":"2.0"},{"seq":"16","testcd":"MADRS05","test":"Reduced Appetite","cat":"MADRS","scat":null,"orres":"3","stresc":"3","stresn":"3.0","dtc":"2024-03-18","dy":"1","visit":"DAY 1 LOADING","visitnum":"2.0"},{"seq":"17","testcd":"MADRS06","test":"Concentration Difficulties","cat":"MADRS","scat":null,"orres":"3","stresc":"3","stresn":"3.0","dtc":"2024-03-18","dy":"1","visit":"DAY 1 LOADING","visitnum":"2.0"},{"seq":"18","testcd":"MADRS07","test":"Lassitude","cat":"MADRS","scat":null,"orres":"2","stresc":"2","stresn":"2.0","dtc":"2024-03-18","dy":"1","visit":"DAY 1 LOADING","visitnum":"2.0"},{"seq":"19","testcd":"MADRS08","test":"Inability to Feel","cat":"MADRS","scat":null,"orres":"4","stresc":"4","stresn":"4.0","dtc":"2024-03-18","dy":"1","visit":"DAY 1 LOADING","visitnum":"2.0"},{"seq":"20","testcd":"MADRS09","test":"Pessimistic Thoughts","cat":"MADRS","scat":null,"orres":"2","stresc":"2","stresn":"2.0","dtc":"2024-03-18","dy":"1","visit":"DAY 1 LOADING","visitnum":"2.0"},{"seq":"21","testcd":"MADRS10","test":"Suicidal Thoughts","cat":"MADRS","scat":null,"orres":"3","stresc":"3","stresn":"3.0","dtc":"2024-03-18","dy":"1","visit":"DAY 1 LOADING","visitnum":"2.0"},{"seq":"22","testcd":"MADRSTOT","test":"MADRS Total Score","cat":"MADRS","scat":"TOTAL","orres":"28.0","stresc":"28.0","stresn":"28.0","dtc":"2024-03-18","dy":"1","visit":"DAY 1 LOADING","visitnum":"2.0"},{"seq":"23","testcd":"MADRS01","test":"Apparent Sadness","cat":"MADRS","scat":null,"orres":"3","stresc":"3","stresn":"3.0","dtc":"2024-04-01","dy":"15","visit":"WEEK 2","visitnum":"3.0"},{"seq":"24","testcd":"MADRS02","test":"Reported Sadness","cat":"MADRS","scat":null,"orres":"2","stresc":"2","stresn":"2.0","dtc":"2024-04-01","dy":"15","visit":"WEEK 2","visitnum":"3.0"},{"seq":"25","testcd":"MADRS03","test":"Inner Tension","cat":"MADRS","scat":null,"orres":"3","stresc":"3","stresn":"3.0","dtc":"2024-04-01","dy":"15","visit":"WEEK 2","visitnum":"3.0"},{"seq":"26","testcd":"MADRS04","test":"Reduced Sleep","cat":"MADRS","scat":null,"orres":"2","stresc":"2","stresn":"2.0","dtc":"2024-04-01","dy":"15","visit":"WEEK 2","visitnum":"3.0"},{"seq":"27","testcd":"MADRS05","test":"Reduced Appetite","cat":"MADRS","scat":null,"orres":"1","stresc":"1","stresn":"1.0","dtc":"2024-04-01","dy":"15","visit":"WEEK 2","visitnum":"3.0"},{"seq":"28","testcd":"MADRS06","test":"Concentration Difficulties","cat":"MADRS","scat":null,"orres":"3","stresc":"3","stresn":"3.0","dtc":"2024-04-01","dy":"15","visit":"WEEK 2","visitnum":"3.0"},{"seq":"29","testcd":"MADRS07","test":"Lassitude","cat":"MADRS","scat":null,"orres":"2","stresc":"2","stresn":"2.0","dtc":"2024-04-01","dy":"15","visit":"WEEK 2","visitnum":"3.0"},{"seq":"30","testcd":"MADRS08","test":"Inability to Feel","cat":"MADRS","scat":null,"orres":"2","stresc":"2","stresn":"2.0","dtc":"2024-04-01","dy":"15","visit":"WEEK 2","visitnum":"3.0"},{"seq":"31","testcd":"MADRS09","test":"Pessimistic Thoughts","cat":"MADRS","scat":null,"orres":"1","stresc":"1","stresn":"1.0","dtc":"2024-04-01","dy":"15","visit":"WEEK 2","visitnum":"3.0"},{"seq":"32","testcd":"MADRS10","test":"Suicidal Thoughts","cat":"MADRS","scat":null,"orres":"2","stresc":"2","stresn":"2.0","dtc":"2024-04-01","dy":"15","visit":"WEEK 2","visitnum":"3.0"},{"seq":"33","testcd":"MADRSTOT","test":"MADRS Total Score","cat":"MADRS","scat":"TOTAL","orres":"21.0","stresc":"21.0","stresn":"21.0","dtc":"2024-04-01","dy":"15","visit":"WEEK 2","visitnum":"3.0"},{"seq":"34","testcd":"MADRS01","test":"Apparent Sadness","cat":"MADRS","scat":null,"orres":"4","stresc":"4","stresn":"4.0","dtc":"2024-04-08","dy":"22","visit":"WEEK 3","visitnum":"4.0"},{"seq":"35","testcd":"MADRS02","test":"Reported Sadness","cat":"MADRS","scat":null,"orres":"0","stresc":"0","stresn":"0.0","dtc":"2024-04-08","dy":"22","visit":"WEEK 3","visitnum":"4.0"},{"seq":"36","testcd":"MADRS03","test":"Inner Tension","cat":"MADRS","scat":null,"orres":"3","stresc":"3","stresn":"3.0","dtc":"2024-04-08","dy":"22","visit":"WEEK 3","visitnum":"4.0"},{"seq":"37","testcd":"MADRS04","test":"Reduced Sleep","cat":"MADRS","scat":null,"orres":"4","stresc":"4","stresn":"4.0","dtc":"2024-04-08","dy":"22","visit":"WEEK 3","visitnum":"4.0"},{"seq":"38","testcd":"MADRS05","test":"Reduced Appetite","cat":"MADRS","scat":null,"orres":"1","stresc":"1","stresn":"1.0","dtc":"2024-04-08","dy":"22","visit":"WEEK 3","visitnum":"4.0"},{"seq":"39","testcd":"MADRS06","test":"Concentration Difficulties","cat":"MADRS","scat":null,"orres":"2","stresc":"2","stresn":"2.0","dtc":"2024-04-08","dy":"22","visit":"WEEK 3","visitnum":"4.0"},{"seq":"40","testcd":"MADRS07","test":"Lassitude","cat":"MADRS","scat":null,"orres":"2","stresc":"2","stresn":"2.0","dtc":"2024-04-08","dy":"22","visit":"WEEK 3","visitnum":"4.0"},{"seq":"41","testcd":"MADRS08","test":"Inability to Feel","cat":"MADRS","scat":null,"orres":"1","stresc":"1","stresn":"1.0","dtc":"2024-04-08","dy":"22","visit":"WEEK 3","visitnum":"4.0"},{"seq":"42","testcd":"MADRS09","test":"Pessimistic Thoughts","cat":"MADRS","scat":null,"orres":"0","stresc":"0","stresn":"0.0","dtc":"2024-04-08","dy":"22","visit":"WEEK 3","visitnum":"4.0"},{"seq":"43","testcd":"MADRS10","test":"Suicidal Thoughts","cat":"MADRS","scat":null,"orres":"2","stresc":"2","stresn":"2.0","dtc":"2024-04-08","dy":"22","visit":"WEEK 3","visitnum":"4.0"},{"seq":"44","testcd":"MADRSTOT","test":"MADRS Total Score","cat":"MADRS","scat":"TOTAL","orres":"19.0","stresc":"19.0","stresn":"19.0","dtc":"2024-04-08","dy":"22","visit":"WEEK 3","visitnum":"4.0"},{"seq":"45","testcd":"MADRS01","test":"Apparent Sadness","cat":"MADRS","scat":null,"orres":"3","stresc":"3","stresn":"3.0","dtc":"2024-04-15","dy":"29","visit":"WEEK 4","visitnum":"5.0"},{"seq":"46","testcd":"MADRS02","test":"Reported Sadness","cat":"MADRS","scat":null,"orres":"2","stresc":"2","stresn":"2.0","dtc":"2024-04-15","dy":"29","visit":"WEEK 4","visitnum":"5.0"},{"seq":"47","testcd":"MADRS03","test":"Inner Tension","cat":"MADRS","scat":null,"orres":"3","stresc":"3","stresn":"3.0","dtc":"2024-04-15","dy":"29","visit":"WEEK 4","visitnum":"5.0"},{"seq":"48","testcd":"MADRS04","test":"Reduced Sleep","cat":"MADRS","scat":null,"orres":"2","stresc":"2","stresn":"2.0","dtc":"2024-04-15","dy":"29","visit":"WEEK 4","visitnum":"5.0"},{"seq":"49","testcd":"MADRS05","test":"Reduced Appetite","cat":"MADRS","scat":null,"orres":"2","stresc":"2","stresn":"2.0","dtc":"2024-04-15","dy":"29","visit":"WEEK 4","visitnum":"5.0"},{"seq":"50","testcd":"MADRS06","test":"Concentration Difficulties","cat":"MADRS","scat":null,"orres":"2","stresc":"2","stresn":"2.0","dtc":"2024-04-15","dy":"29","visit":"WEEK 4","visitnum":"5.0"},{"seq":"51","testcd":"MADRS07","test":"Lassitude","cat":"MADRS","scat":null,"orres":"1","stresc":"1","stresn":"1.0","dtc":"2024-04-15","dy":"29","visit":"WEEK 4","visitnum":"5.0"},{"seq":"52","testcd":"MADRS08","test":"Inability to Feel","cat":"MADRS","scat":null,"orres":"1","stresc":"1","stresn":"1.0","dtc":"2024-04-15","dy":"29","visit":"WEEK 4","visitnum":"5.0"},{"seq":"53","testcd":"MADRS09","test":"Pessimistic Thoughts","cat":"MADRS","scat":null,"orres":"4","stresc":"4","stresn":"4.0","dtc":"2024-04-15","dy":"29","visit":"WEEK 4","visitnum":"5.0"},{"seq":"54","testcd":"MADRS10","test":"Suicidal Thoughts","cat":"MADRS","scat":null,"orres":"2","stresc":"2","stresn":"2.0","dtc":"2024-04-15","dy":"29","visit":"WEEK 4","visitnum":"5.0"},{"seq":"55","testcd":"MADRSTOT","test":"MADRS Total Score","cat":"MADRS","scat":"TOTAL","orres":"22.0","stresc":"22.0","stresn":"22.0","dtc":"2024-04-15","dy":"29","visit":"WEEK 4","visitnum":"5.0"},{"seq":"56","testcd":"MADRS01","test":"Apparent Sadness","cat":"MADRS","scat":null,"orres":"3","stresc":"3","stresn":"3.0","dtc":"2024-04-22","dy":"36","visit":"WEEK 5","visitnum":"6.0"},{"seq":"57","testcd":"MADRS02","test":"Reported Sadness","cat":"MADRS","scat":null,"orres":"3","stresc":"3","stresn":"3.0","dtc":"2024-04-22","dy":"36","visit":"WEEK 5","visitnum":"6.0"},{"seq":"58","testcd":"MADRS03","test":"Inner Tension","cat":"MADRS","scat":null,"orres":"1","stresc":"1","stresn":"1.0","dtc":"2024-04-22","dy":"36","visit":"WEEK 5","visitnum":"6.0"},{"seq":"59","testcd":"MADRS04","test":"Reduced Sleep","cat":"MADRS","scat":null,"orres":"5","stresc":"5","stresn":"5.0","dtc":"2024-04-22","dy":"36","visit":"WEEK 5","visitnum":"6.0"},{"seq":"60","testcd":"MADRS05","test":"Reduced Appetite","cat":"MADRS","scat":null,"orres":"3","stresc":"3","stresn":"3.0","dtc":"2024-04-22","dy":"36","visit":"WEEK 5","visitnum":"6.0"},{"seq":"61","testcd":"MADRS06","test":"Concentration Difficulties","cat":"MADRS","scat":null,"orres":"3","stresc":"3","stresn":"3.0","dtc":"2024-04-22","dy":"36","visit":"WEEK 5","visitnum":"6.0"},{"seq":"62","testcd":"MADRS07","test":"Lassitude","cat":"MADRS","scat":null,"orres":"2","stresc":"2","stresn":"2.0","dtc":"2024-04-22","dy":"36","visit":"WEEK 5","visitnum":"6.0"},{"seq":"63","testcd":"MADRS08","test":"Inability to Feel","cat":"MADRS","scat":null,"orres":"3","stresc":"3","stresn":"3.0","dtc":"2024-04-22","dy":"36","visit":"WEEK 5","visitnum":"6.0"},{"seq":"64","testcd":"MADRS09","test":"Pessimistic Thoughts","cat":"MADRS","scat":null,"orres":"3","stresc":"3","stresn":"3.0","dtc":"2024-04-22","dy":"36","visit":"WEEK 5","visitnum":"6.0"},{"seq":"65","testcd":"MADRS10","test":"Suicidal Thoughts","cat":"MADRS","scat":null,"orres":"2","stresc":"2","stresn":"2.0","dtc":"2024-04-22","dy":"36","visit":"WEEK 5","visitnum":"6.0"},{"seq":"66","testcd":"MADRSTOT","test":"MADRS Total Score","cat":"MADRS","scat":"TOTAL","orres":"28.0","stresc":"28.0","stresn":"28.0","dtc":"2024-04-22","dy":"36","visit":"WEEK 5","visitnum":"6.0"},{"seq":"67","testcd":"MADRS01","test":"Apparent Sadness","cat":"MADRS","scat":null,"orres":"2","stresc":"2","stresn":"2.0","dtc":"2024-04-29","dy":"43","visit":"WEEK 6","visitnum":"7.0"},{"seq":"68","testcd":"MADRS02","test":"Reported Sadness","cat":"MADRS","scat":null,"orres":"2","stresc":"2","stresn":"2.0","dtc":"2024-04-29","dy":"43","visit":"WEEK 6","visitnum":"7.0"},{"seq":"69","testcd":"MADRS03","test":"Inner Tension","cat":"MADRS","scat":null,"orres":"3","stresc":"3","stresn":"3.0","dtc":"2024-04-29","dy":"43","visit":"WEEK 6","visitnum":"7.0"},{"seq":"70","testcd":"MADRS04","test":"Reduced Sleep","cat":"MADRS","scat":null,"orres":"2","stresc":"2","stresn":"2.0","dtc":"2024-04-29","dy":"43","visit":"WEEK 6","visitnum":"7.0"},{"seq":"71","testcd":"MADRS05","test":"Reduced Appetite","cat":"MADRS","scat":null,"orres":"1","stresc":"1","stresn":"1.0","dtc":"2024-04-29","dy":"43","visit":"WEEK 6","visitnum":"7.0"},{"seq":"72","testcd":"MADRS06","test":"Concentration Difficulties","cat":"MADRS","scat":null,"orres":"1","stresc":"1","stresn":"1.0","dtc":"2024-04-29","dy":"43","visit":"WEEK 6","visitnum":"7.0"},{"seq":"73","testcd":"MADRS07","test":"Lassitude","cat":"MADRS","scat":null,"orres":"4","stresc":"4","stresn":"4.0","dtc":"2024-04-29","dy":"43","visit":"WEEK 6","visitnum":"7.0"},{"seq":"74","testcd":"MADRS08","test":"Inability to Feel","cat":"MADRS","scat":null,"orres":"3","stresc":"3","stresn":"3.0","dtc":"2024-04-29","dy":"43","visit":"WEEK 6","visitnum":"7.0"},{"seq":"75","testcd":"MADRS09","test":"Pessimistic Thoughts","cat":"MADRS","scat":null,"orres":"2","stresc":"2","stresn":"2.0","dtc":"2024-04-29","dy":"43","visit":"WEEK 6","visitnum":"7.0"},{"seq":"76","testcd":"MADRS10","test":"Suicidal Thoughts","cat":"MADRS","scat":null,"orres":"2","stresc":"2","stresn":"2.0","dtc":"2024-04-29","dy":"43","visit":"WEEK 6","visitnum":"7.0"},{"seq":"77","testcd":"MADRSTOT","test":"MADRS Total Score","cat":"MADRS","scat":"TOTAL","orres":"22.0","stresc":"22.0","stresn":"22.0","dtc":"2024-04-29","dy":"43","visit":"WEEK 6","visitnum":"7.0"},{"seq":"78","testcd":"MADRS01","test":"Apparent Sadness","cat":"MADRS","scat":null,"orres":"2","stresc":"2","stresn":"2.0","dtc":"2024-05-06","dy":"50","visit":"WEEK 7","visitnum":"8.0"},{"seq":"79","testcd":"MADRS02","test":"Reported Sadness","cat":"MADRS","scat":null,"orres":"3","stresc":"3","stresn":"3.0","dtc":"2024-05-06","dy":"50","visit":"WEEK 7","visitnum":"8.0"},{"seq":"80","testcd":"MADRS03","test":"Inner Tension","cat":"MADRS","scat":null,"orres":"1","stresc":"1","stresn":"1.0","dtc":"2024-05-06","dy":"50","visit":"WEEK 7","visitnum":"8.0"},{"seq":"81","testcd":"MADRS04","test":"Reduced Sleep","cat":"MADRS","scat":null,"orres":"2","stresc":"2","stresn":"2.0","dtc":"2024-05-06","dy":"50","visit":"WEEK 7","visitnum":"8.0"},{"seq":"82","testcd":"MADRS05","test":"Reduced Appetite","cat":"MADRS","scat":null,"orres":"2","stresc":"2","stresn":"2.0","dtc":"2024-05-06","dy":"50","visit":"WEEK 7","visitnum":"8.0"},{"seq":"83","testcd":"MADRS06","test":"Concentration Difficulties","cat":"MADRS","scat":null,"orres":"2","stresc":"2","stresn":"2.0","dtc":"2024-05-06","dy":"50","visit":"WEEK 7","visitnum":"8.0"},{"seq":"84","testcd":"MADRS07","test":"Lassitude","cat":"MADRS","scat":null,"orres":"4","stresc":"4","stresn":"4.0","dtc":"2024-05-06","dy":"50","visit":"WEEK 7","visitnum":"8.0"},{"seq":"85","testcd":"MADRS08","test":"Inability to Feel","cat":"MADRS","scat":null,"orres":"2","stresc":"2","stresn":"2.0","dtc":"2024-05-06","dy":"50","visit":"WEEK 7","visitnum":"8.0"},{"seq":"86","testcd":"MADRS09","test":"Pessimistic Thoughts","cat":"MADRS","scat":null,"orres":"3","stresc":"3","stresn":"3.0","dtc":"2024-05-06","dy":"50","visit":"WEEK 7","visitnum":"8.0"},{"seq":"87","testcd":"MADRS10","test":"Suicidal Thoughts","cat":"MADRS","scat":null,"orres":"1","stresc":"1","stresn":"1.0","dtc":"2024-05-06","dy":"50","visit":"WEEK 7","visitnum":"8.0"},{"seq":"88","testcd":"MADRSTOT","test":"MADRS Total Score","cat":"MADRS","scat":"TOTAL","orres":"22.0","stresc":"22.0","stresn":"22.0","dtc":"2024-05-06","dy":"50","visit":"WEEK 7","visitnum":"8.0"},{"seq":"89","testcd":"MADRS01","test":"Apparent Sadness","cat":"MADRS","scat":null,"orres":"3","stresc":"3","stresn":"3.0","dtc":"2024-05-13","dy":"57","visit":"WEEK 8 EOT","visitnum":"9.0"},{"seq":"90","testcd":"MADRS02","test":"Reported Sadness","cat":"MADRS","scat":null,"orres":"2","stresc":"2","stresn":"2.0","dtc":"2024-05-13","dy":"57","visit":"WEEK 8 EOT","visitnum":"9.0"},{"seq":"91","testcd":"MADRS03","test":"Inner Tension","cat":"MADRS","scat":null,"orres":"2","stresc":"2","stresn":"2.0","dtc":"2024-05-13","dy":"57","visit":"WEEK 8 EOT","visitnum":"9.0"},{"seq":"92","testcd":"MADRS04","test":"Reduced Sleep","cat":"MADRS","scat":null,"orres":"2","stresc":"2","stresn":"2.0","dtc":"2024-05-13","dy":"57","visit":"WEEK 8 EOT","visitnum":"9.0"},{"seq":"93","testcd":"MADRS05","test":"Reduced Appetite","cat":"MADRS","scat":null,"orres":"0","stresc":"0","stresn":"0.0","dtc":"2024-05-13","dy":"57","visit":"WEEK 8 EOT","visitnum":"9.0"},{"seq":"94","testcd":"MADRS06","test":"Concentration Difficulties","cat":"MADRS","scat":null,"orres":"2","stresc":"2","stresn":"2.0","dtc":"2024-05-13","dy":"57","visit":"WEEK 8 EOT","visitnum":"9.0"},{"seq":"95","testcd":"MADRS07","test":"Lassitude","cat":"MADRS","scat":null,"orres":"4","stresc":"4","stresn":"4.0","dtc":"2024-05-13","dy":"57","visit":"WEEK 8 EOT","visitnum":"9.0"},{"seq":"96","testcd":"MADRS08","test":"Inability to Feel","cat":"MADRS","scat":null,"orres":"1","stresc":"1","stresn":"1.0","dtc":"2024-05-13","dy":"57","visit":"WEEK 8 EOT","visitnum":"9.0"},{"seq":"97","testcd":"MADRS09","test":"Pessimistic Thoughts","cat":"MADRS","scat":null,"orres":"2","stresc":"2","stresn":"2.0","dtc":"2024-05-13","dy":"57","visit":"WEEK 8 EOT","visitnum":"9.0"},{"seq":"98","testcd":"MADRS10","test":"Suicidal Thoughts","cat":"MADRS","scat":null,"orres":"2","stresc":"2","stresn":"2.0","dtc":"2024-05-13","dy":"57","visit":"WEEK 8 EOT","visitnum":"9.0"},{"seq":"99","testcd":"MADRSTOT","test":"MADRS Total Score","cat":"MADRS","scat":"TOTAL","orres":"20.0","stresc":"20.0","stresn":"20.0","dtc":"2024-05-13","dy":"57","visit":"WEEK 8 EOT","visitnum":"9.0"}],"findings_about":[]},"section_11_protocol_deviations":{"deviations":[{"seq":"1","term":"Visit WEEK 7 occurred 2 days early (Day 48 vs planned Day 50)","decod":"VISIT OCCURRED OUTSIDE VISIT WINDOW","cat":"MINOR","scat":"VISIT WINDOW","start_dtc":"2024-05-04","end_dtc":null,"visit":null},{"seq":"2","term":"Visit SAFETY FU WEEK 4 occurred 4 days early (Day 81 vs planned Day 85)","decod":"VISIT OCCURRED OUTSIDE VISIT WINDOW","cat":"MINOR","scat":"VISIT WINDOW","start_dtc":"2024-06-06","end_dtc":null,"visit":null},{"seq":"3","term":"Visit SAFETY FU WEEK 8 occurred 0 days late (Day 113 vs planned Day 113)","decod":"VISIT OCCURRED OUTSIDE VISIT WINDOW","cat":"MINOR","scat":"VISIT WINDOW","start_dtc":"2024-07-08","end_dtc":null,"visit":null}],"total":3},"section_12_disposition":{"completion_status":"COMPLETED","disposition_records":[{"seq":"1","term":"INFORMED CONSENT OBTAINED","decod":"INFORMED CONSENT OBTAINED","cat":"PROTOCOL MILESTONE","scat":null,"dtc":"2024-03-03","dy":null,"visit":null,"epoch":"SCREENING"},{"seq":"2","term":"RANDOMIZED","decod":"RANDOMIZED","cat":"PROTOCOL MILESTONE","scat":null,"dtc":"2024-03-18","dy":null,"visit":null,"epoch":"TREATMENT"},{"seq":"3","term":"COMPLETED","decod":"COMPLETED","cat":"DISPOSITION EVENT","scat":null,"dtc":"2024-08-04","dy":null,"visit":null,"epoch":"FOLLOW-UP"}],"death":null},"section_13_hospitalizations":{"items":[],"total":0},"section_14_substance_use":{"items":[{"seq":"1","substance":"BEER/WINE/SPIRITS","decod":"ETHANOL","cat":"ALCOHOL","scat":null,"usage":"Y","dose":"2.0","dosu":"DRINKS/WEEK","freq":"QW","start_dtc":"2013-03-06","end_dtc":null},{"seq":"2","substance":"COFFEE","decod":"COFFEE","cat":"CAFFEINE","scat":null,"usage":"N","dose":null,"dosu":null,"freq":null,"start_dtc":null,"end_dtc":null},{"seq":"3","substance":"CIGARETTES","decod":"CIGARETTES","cat":"TOBACCO","scat":null,"usage":"N","dose":null,"dosu":null,"freq":null,"start_dtc":null,"end_dtc":null}],"total":3},"section_15_subject_status":{"items":[{"seq":"1","testcd":"SURVSTAT","test":"Survival Status","orres":"ALIVE","stresc":"ALIVE","dtc":"2024-08-04","visit":null,"epoch":"FOLLOW-UP"}],"total":1}}