{"subject_id":"NBI-1065846-MDD2020-TERPSIS-USA_SITE07-0011","study_id":"NBI-1065846-MDD2020-TERPSIS","generated_at":"2026-07-07T05:41:08.787015+00:00","sdtmig_version":"3.4","flags":{"has_serious_ae":false,"has_fatal_ae":false,"has_protocol_deviation":true,"n_protocol_deviations":1,"n_adverse_events":1,"n_concomitant_meds":0,"max_ae_severity":"MODERATE","screen_failure":false,"discontinued_early":false,"discontinuation_reason":null,"death":false,"exposure_days":49},"timeline":[{"dtc":"2023-12-18","dy":"-51","event":"VISIT: SCREENING","domain":"SV","category":"visit"},{"dtc":"2024-01-21","dy":"-17","event":"INFORMED CONSENT OBTAINED","domain":"DS","category":"milestone"},{"dtc":"2024-02-07","dy":"1","event":"RANDOMIZED","domain":"DS","category":"milestone"},{"dtc":"2024-02-07","dy":"1","event":"FIRST DOSE: PLACEBO","domain":"EX","category":"exposure"},{"dtc":"2024-02-07","dy":"1","event":"VISIT: DAY 1 LOADING","domain":"SV","category":"visit"},{"dtc":"2024-02-23","dy":"17","event":"VISIT: WEEK 2","domain":"SV","category":"visit"},{"dtc":"2024-02-27","dy":"21","event":"VISIT: WEEK 3","domain":"SV","category":"visit"},{"dtc":"2024-03-06","dy":"29","event":"VISIT: WEEK 4","domain":"SV","category":"visit"},{"dtc":"2024-03-12","dy":"35","event":"VISIT: WEEK 5","domain":"SV","category":"visit"},{"dtc":"2024-03-15","dy":"38","event":"AE: Insomnia (MODERATE)","domain":"AE","category":"adverse_event"},{"dtc":"2024-03-19","dy":"42","event":"VISIT: WEEK 6","domain":"SV","category":"visit"},{"dtc":"2024-03-27","dy":"50","event":"LAST DOSE: PLACEBO","domain":"EX","category":"exposure"},{"dtc":"2024-03-27","dy":"50","event":"VISIT: WEEK 7","domain":"SV","category":"visit"},{"dtc":"2024-04-02","dy":"56","event":"VISIT: WEEK 8 EOT","domain":"SV","category":"visit"},{"dtc":"2024-04-24","dy":"78","event":"DEVIATION: MISSED ASSESSMENT","domain":"DV","category":"deviation"},{"dtc":"2024-04-24","dy":"78","event":"VISIT: SAFETY FU WEEK 4","domain":"SV","category":"visit"},{"dtc":"2024-06-05","dy":"120","event":"VISIT: SAFETY FU WEEK 8","domain":"SV","category":"visit"},{"dtc":"2024-06-25","dy":"140","event":"COMPLETED","domain":"DS","category":"milestone"}],"section_1_demographics":{"usubjid":"NBI-1065846-MDD2020-TERPSIS-USA_SITE07-0011","subjid":"0011","siteid":"USA_SITE07","age":"25","ageu":"YEARS","sex":"F","race":"WHITE","ethnicity":"NOT HISPANIC OR LATINO","country":"USA","arm":"Matching placebo (4 tablets Day 1 loading, 2 tablets QW thereafter)","armcd":"PLACEBO","actarm":"Matching placebo (4 tablets Day 1 loading, 2 tablets QW thereafter)","actarmcd":"PLACEBO","randomization_date":null,"informed_consent_date":"2024-01-21","reference_start_date":"2024-02-07","reference_end_date":"2024-06-25","screen_failure":false,"death_flag":null,"death_date":null,"subject_characteristics":[{"testcd":"ALCUSE","test":"Alcohol Use","orres":"NON-DRINKER","stresc":"NON-DRINKER","visit":null,"dtc":"2024-01-21"},{"testcd":"BMI","test":"Body Mass Index","orres":"39.3","stresc":"39.3","visit":null,"dtc":"2024-01-21"},{"testcd":"DURDIS","test":"Duration of Disease","orres":"206 months","stresc":"206","visit":null,"dtc":"2024-01-21"},{"testcd":"TOBUSE","test":"Tobacco Use","orres":"NEVER SMOKED","stresc":"NEVER SMOKED","visit":null,"dtc":"2024-01-21"}]},"section_2_medical_history":{"items":[{"seq":"1","term":"MAJOR DEPRESSIVE DISORDER","decod":"MAJOR DEPRESSIVE DISORDER","cat":"PSYCHIATRIC","scat":null,"presp":null,"occur":null,"status":null,"onset_dtc":"2009-01-24","end_dtc":"2018-08-17","visit":null},{"seq":"2","term":"SUICIDAL IDEATION","decod":"SUICIDAL IDEATION","cat":"PSYCHIATRIC","scat":null,"presp":null,"occur":null,"status":null,"onset_dtc":"2007-01-25","end_dtc":"2023-06-29","visit":null}]},"section_3_inclusion_exclusion":{"criteria":[]},"section_4_trial_participation":{"visits":[{"visitnum":"1.0","visit":"SCREENING","start_dtc":"2023-12-18","end_dtc":"2023-12-18","updes":null},{"visitnum":"2.0","visit":"DAY 1 LOADING","start_dtc":"2024-02-07","end_dtc":"2024-02-07","updes":null},{"visitnum":"3.0","visit":"WEEK 2","start_dtc":"2024-02-23","end_dtc":"2024-02-23","updes":null},{"visitnum":"4.0","visit":"WEEK 3","start_dtc":"2024-02-27","end_dtc":"2024-02-27","updes":null},{"visitnum":"5.0","visit":"WEEK 4","start_dtc":"2024-03-06","end_dtc":"2024-03-06","updes":null},{"visitnum":"6.0","visit":"WEEK 5","start_dtc":"2024-03-12","end_dtc":"2024-03-12","updes":null},{"visitnum":"7.0","visit":"WEEK 6","start_dtc":"2024-03-19","end_dtc":"2024-03-19","updes":null},{"visitnum":"8.0","visit":"WEEK 7","start_dtc":"2024-03-27","end_dtc":"2024-03-27","updes":null},{"visitnum":"9.0","visit":"WEEK 8 EOT","start_dtc":"2024-04-02","end_dtc":"2024-04-02","updes":null},{"visitnum":"10.0","visit":"SAFETY FU WEEK 4","start_dtc":"2024-04-24","end_dtc":"2024-04-24","updes":null},{"visitnum":"11.0","visit":"SAFETY FU WEEK 8","start_dtc":"2024-06-05","end_dtc":"2024-06-05","updes":null}],"epochs":[{"seq":"1","etcd":"SCRN","element":"Screening","start_dtc":"2024-01-10","end_dtc":"2024-02-07","updes":null},{"seq":"2","etcd":"TRT","element":"Treatment","start_dtc":"2024-02-07","end_dtc":"2024-04-03","updes":null},{"seq":"3","etcd":"FU","element":"Safety follow-up","start_dtc":"2024-04-03","end_dtc":"2024-05-28","updes":null}],"visit_count":11},"section_5_concomitant_medications":{"medications":[]},"section_6_exposure":{"exposure_as_administered":[{"seq":"1","trt":"PLACEBO","dose":"0.0","doseu":null,"dosef":"ONCE","route":"ORAL","lot":null,"start_dtc":"2024-02-07","end_dtc":"2024-02-07","start_dy":"1","end_dy":"1","epoch":"TREATMENT","visit":null},{"seq":"2","trt":"PLACEBO","dose":"0.0","doseu":null,"dosef":"QW","route":"ORAL","lot":null,"start_dtc":"2024-02-14","end_dtc":"2024-02-14","start_dy":"8","end_dy":"8","epoch":"TREATMENT","visit":null},{"seq":"3","trt":"PLACEBO","dose":"0.0","doseu":null,"dosef":"QW","route":"ORAL","lot":null,"start_dtc":"2024-02-21","end_dtc":"2024-02-21","start_dy":"15","end_dy":"15","epoch":"TREATMENT","visit":null},{"seq":"4","trt":"PLACEBO","dose":"0.0","doseu":null,"dosef":"QW","route":"ORAL","lot":null,"start_dtc":"2024-02-28","end_dtc":"2024-02-28","start_dy":"22","end_dy":"22","epoch":"TREATMENT","visit":null},{"seq":"5","trt":"PLACEBO","dose":"0.0","doseu":null,"dosef":"QW","route":"ORAL","lot":null,"start_dtc":"2024-03-06","end_dtc":"2024-03-06","start_dy":"29","end_dy":"29","epoch":"TREATMENT","visit":null},{"seq":"6","trt":"PLACEBO","dose":"0.0","doseu":null,"dosef":"QW","route":"ORAL","lot":null,"start_dtc":"2024-03-13","end_dtc":"2024-03-13","start_dy":"36","end_dy":"36","epoch":"TREATMENT","visit":null},{"seq":"7","trt":"PLACEBO","dose":"0.0","doseu":null,"dosef":"QW","route":"ORAL","lot":null,"start_dtc":"2024-03-20","end_dtc":"2024-03-20","start_dy":"43","end_dy":"43","epoch":"TREATMENT","visit":null},{"seq":"8","trt":"PLACEBO","dose":"0.0","doseu":null,"dosef":"QW","route":"ORAL","lot":null,"start_dtc":"2024-03-27","end_dtc":"2024-03-27","start_dy":"50","end_dy":"50","epoch":"TREATMENT","visit":null}],"exposure_as_collected":[{"seq":"1","trt":"PLACEBO","dose":null,"doseu":null,"dosef":"ONCE","route":"ORAL","start_dtc":"2024-02-07","end_dtc":"2024-02-07","visit":"DAY 1 LOADING"},{"seq":"2","trt":"PLACEBO","dose":null,"doseu":null,"dosef":"QW","route":"ORAL","start_dtc":"2024-02-14","end_dtc":"2024-02-14","visit":null},{"seq":"3","trt":"PLACEBO","dose":null,"doseu":null,"dosef":"QW","route":"ORAL","start_dtc":"2024-02-21","end_dtc":"2024-02-21","visit":"WEEK 2"},{"seq":"4","trt":"PLACEBO","dose":null,"doseu":null,"dosef":"QW","route":"ORAL","start_dtc":"2024-02-28","end_dtc":"2024-02-28","visit":"WEEK 3"},{"seq":"5","trt":"PLACEBO","dose":null,"doseu":null,"dosef":"QW","route":"ORAL","start_dtc":"2024-03-06","end_dtc":"2024-03-06","visit":"WEEK 4"},{"seq":"6","trt":"PLACEBO","dose":null,"doseu":null,"dosef":"QW","route":"ORAL","start_dtc":"2024-03-13","end_dtc":"2024-03-13","visit":"WEEK 5"},{"seq":"7","trt":"PLACEBO","dose":null,"doseu":null,"dosef":"QW","route":"ORAL","start_dtc":"2024-03-20","end_dtc":"2024-03-20","visit":"WEEK 6"},{"seq":"8","trt":"PLACEBO","dose":null,"doseu":null,"dosef":"QW","route":"ORAL","start_dtc":"2024-03-27","end_dtc":"2024-03-27","visit":"WEEK 7"}]},"section_7_adverse_events":{"summary":{"total_aes":1,"serious_aes":0,"fatal_aes":0,"by_severity":{"MODERATE":1},"by_soc":{"Psychiatric disorders":1}},"events":[{"seq":"1","term":"INSOMNIA","decod":"Insomnia","llt":"Insomnia","hlt":"Sleep disorders and disturbances","hlgt":"Sleep disturbances (incl subtypes)","soc":"Psychiatric disorders","bodsys":"Psychiatric disorders","severity":"MODERATE","serious":"N","causality":"NOT RELATED","action_taken":"DOSE NOT CHANGED","outcome":"NOT RECOVERED/NOT RESOLVED","fatal":"N","hospitalization":"N","life_threatening":"N","onset_dtc":"2024-03-15","end_dtc":null,"onset_dy":"38","end_dy":null,"duration":null,"epoch":"TREATMENT","visit":null,"supplemental":{"AETRTEM":"Y"}}]},"section_8_laboratory_results":{"summary":{"total_records":70,"abnormal_count":0,"abnormal_pct":0.0},"shift_summary":[{"testcd":"ALT","baseline_value":22.6,"baseline_nrind":"NORMAL","worst_post_baseline_value":25.74,"worst_post_baseline_nrind":"NORMAL","worst_visit":"WEEK 7"},{"testcd":"AST","baseline_value":12.44,"baseline_nrind":"NORMAL","worst_post_baseline_value":14.52,"worst_post_baseline_nrind":"NORMAL","worst_visit":"WEEK 8 EOT"},{"testcd":"CREAT","baseline_value":54.33,"baseline_nrind":"NORMAL","worst_post_baseline_value":51.04,"worst_post_baseline_nrind":"NORMAL","worst_visit":"DAY 1 LOADING"},{"testcd":"GLUC","baseline_value":5.08,"baseline_nrind":"NORMAL","worst_post_baseline_value":5.01,"worst_post_baseline_nrind":"NORMAL","worst_visit":"DAY 1 LOADING"},{"testcd":"HGB","baseline_value":122.62,"baseline_nrind":"NORMAL","worst_post_baseline_value":120.56,"worst_post_baseline_nrind":"NORMAL","worst_visit":"WEEK 6"},{"testcd":"PLAT","baseline_value":256.0,"baseline_nrind":"NORMAL","worst_post_baseline_value":265.02,"worst_post_baseline_nrind":"NORMAL","worst_visit":"DAY 1 LOADING"},{"testcd":"WBC","baseline_value":6.37,"baseline_nrind":"NORMAL","worst_post_baseline_value":7.44,"worst_post_baseline_nrind":"NORMAL","worst_visit":"SAFETY FU WEEK 8"}],"results":[{"seq":"1","testcd":"ALT","test":"Alanine Aminotransferase","cat":"CHEMISTRY","orres":"22.6","orresu":"U/L","stresc":"22.6","stresn":"22.6","stresu":"U/L","stnrlo":"7","stnrhi":"56","nrind":"NORMAL","fast":null,"dtc":"2023-12-18","dy":"-51","visit":"SCREENING","visitnum":"1.0","epoch":"SCREENING","spec":null,"method":null},{"seq":"2","testcd":"AST","test":"Aspartate Aminotransferase","cat":"CHEMISTRY","orres":"12.44","orresu":"U/L","stresc":"12.44","stresn":"12.44","stresu":"U/L","stnrlo":"10","stnrhi":"40","nrind":"NORMAL","fast":null,"dtc":"2023-12-18","dy":"-51","visit":"SCREENING","visitnum":"1.0","epoch":"SCREENING","spec":null,"method":null},{"seq":"3","testcd":"CREAT","test":"Creatinine","cat":"CHEMISTRY","orres":"54.33","orresu":"umol/L","stresc":"54.33","stresn":"54.33","stresu":"umol/L","stnrlo":"44","stnrhi":"80","nrind":"NORMAL","fast":null,"dtc":"2023-12-18","dy":"-51","visit":"SCREENING","visitnum":"1.0","epoch":"SCREENING","spec":null,"method":null},{"seq":"4","testcd":"GLUC","test":"Glucose","cat":"CHEMISTRY","orres":"5.08","orresu":"mmol/L","stresc":"5.08","stresn":"5.08","stresu":"mmol/L","stnrlo":"3.9","stnrhi":"5.6","nrind":"NORMAL","fast":null,"dtc":"2023-12-18","dy":"-51","visit":"SCREENING","visitnum":"1.0","epoch":"SCREENING","spec":null,"method":null},{"seq":"5","testcd":"HGB","test":"Hemoglobin","cat":"HEMATOLOGY","orres":"122.62","orresu":"g/L","stresc":"122.62","stresn":"122.62","stresu":"g/L","stnrlo":"120","stnrhi":"155","nrind":"NORMAL","fast":null,"dtc":"2023-12-18","dy":"-51","visit":"SCREENING","visitnum":"1.0","epoch":"SCREENING","spec":null,"method":null},{"seq":"6","testcd":"PLAT","test":"Platelets","cat":"HEMATOLOGY","orres":"256.0","orresu":"10^9/L","stresc":"256.0","stresn":"256.0","stresu":"10^9/L","stnrlo":"150","stnrhi":"400","nrind":"NORMAL","fast":null,"dtc":"2023-12-18","dy":"-51","visit":"SCREENING","visitnum":"1.0","epoch":"SCREENING","spec":null,"method":null},{"seq":"7","testcd":"WBC","test":"Leukocytes","cat":"HEMATOLOGY","orres":"6.37","orresu":"10^9/L","stresc":"6.37","stresn":"6.37","stresu":"10^9/L","stnrlo":"4.0","stnrhi":"11.0","nrind":"NORMAL","fast":null,"dtc":"2023-12-18","dy":"-51","visit":"SCREENING","visitnum":"1.0","epoch":"SCREENING","spec":null,"method":null},{"seq":"8","testcd":"ALT","test":"Alanine Aminotransferase","cat":"CHEMISTRY","orres":"22.17","orresu":"U/L","stresc":"22.17","stresn":"22.17","stresu":"U/L","stnrlo":"7","stnrhi":"56","nrind":"NORMAL","fast":null,"dtc":"2024-02-07","dy":"1","visit":"DAY 1 LOADING","visitnum":"2.0","epoch":"TREATMENT","spec":null,"method":null},{"seq":"9","testcd":"AST","test":"Aspartate Aminotransferase","cat":"CHEMISTRY","orres":"12.09","orresu":"U/L","stresc":"12.09","stresn":"12.09","stresu":"U/L","stnrlo":"10","stnrhi":"40","nrind":"NORMAL","fast":null,"dtc":"2024-02-07","dy":"1","visit":"DAY 1 LOADING","visitnum":"2.0","epoch":"TREATMENT","spec":null,"method":null},{"seq":"10","testcd":"CREAT","test":"Creatinine","cat":"CHEMISTRY","orres":"51.04","orresu":"umol/L","stresc":"51.04","stresn":"51.04","stresu":"umol/L","stnrlo":"44","stnrhi":"80","nrind":"NORMAL","fast":null,"dtc":"2024-02-07","dy":"1","visit":"DAY 1 LOADING","visitnum":"2.0","epoch":"TREATMENT","spec":null,"method":null},{"seq":"11","testcd":"GLUC","test":"Glucose","cat":"CHEMISTRY","orres":"5.01","orresu":"mmol/L","stresc":"5.01","stresn":"5.01","stresu":"mmol/L","stnrlo":"3.9","stnrhi":"5.6","nrind":"NORMAL","fast":null,"dtc":"2024-02-07","dy":"1","visit":"DAY 1 LOADING","visitnum":"2.0","epoch":"TREATMENT","spec":null,"method":null},{"seq":"12","testcd":"HGB","test":"Hemoglobin","cat":"HEMATOLOGY","orres":"123.9","orresu":"g/L","stresc":"123.9","stresn":"123.9","stresu":"g/L","stnrlo":"120","stnrhi":"155","nrind":"NORMAL","fast":null,"dtc":"2024-02-07","dy":"1","visit":"DAY 1 LOADING","visitnum":"2.0","epoch":"TREATMENT","spec":null,"method":null},{"seq":"13","testcd":"PLAT","test":"Platelets","cat":"HEMATOLOGY","orres":"265.02","orresu":"10^9/L","stresc":"265.02","stresn":"265.02","stresu":"10^9/L","stnrlo":"150","stnrhi":"400","nrind":"NORMAL","fast":null,"dtc":"2024-02-07","dy":"1","visit":"DAY 1 LOADING","visitnum":"2.0","epoch":"TREATMENT","spec":null,"method":null},{"seq":"14","testcd":"WBC","test":"Leukocytes","cat":"HEMATOLOGY","orres":"6.72","orresu":"10^9/L","stresc":"6.72","stresn":"6.72","stresu":"10^9/L","stnrlo":"4.0","stnrhi":"11.0","nrind":"NORMAL","fast":null,"dtc":"2024-02-07","dy":"1","visit":"DAY 1 LOADING","visitnum":"2.0","epoch":"TREATMENT","spec":null,"method":null},{"seq":"15","testcd":"ALT","test":"Alanine Aminotransferase","cat":"CHEMISTRY","orres":"24.18","orresu":"U/L","stresc":"24.18","stresn":"24.18","stresu":"U/L","stnrlo":"7","stnrhi":"56","nrind":"NORMAL","fast":null,"dtc":"2024-02-23","dy":"17","visit":"WEEK 2","visitnum":"3.0","epoch":"TREATMENT","spec":null,"method":null},{"seq":"16","testcd":"AST","test":"Aspartate Aminotransferase","cat":"CHEMISTRY","orres":"10.91","orresu":"U/L","stresc":"10.91","stresn":"10.91","stresu":"U/L","stnrlo":"10","stnrhi":"40","nrind":"NORMAL","fast":null,"dtc":"2024-02-23","dy":"17","visit":"WEEK 2","visitnum":"3.0","epoch":"TREATMENT","spec":null,"method":null},{"seq":"17","testcd":"CREAT","test":"Creatinine","cat":"CHEMISTRY","orres":"49.6","orresu":"umol/L","stresc":"49.6","stresn":"49.6","stresu":"umol/L","stnrlo":"44","stnrhi":"80","nrind":"NORMAL","fast":null,"dtc":"2024-02-23","dy":"17","visit":"WEEK 2","visitnum":"3.0","epoch":"TREATMENT","spec":null,"method":null},{"seq":"18","testcd":"GLUC","test":"Glucose","cat":"CHEMISTRY","orres":"4.8","orresu":"mmol/L","stresc":"4.8","stresn":"4.8","stresu":"mmol/L","stnrlo":"3.9","stnrhi":"5.6","nrind":"NORMAL","fast":null,"dtc":"2024-02-23","dy":"17","visit":"WEEK 2","visitnum":"3.0","epoch":"TREATMENT","spec":null,"method":null},{"seq":"19","testcd":"HGB","test":"Hemoglobin","cat":"HEMATOLOGY","orres":"124.3","orresu":"g/L","stresc":"124.3","stresn":"124.3","stresu":"g/L","stnrlo":"120","stnrhi":"155","nrind":"NORMAL","fast":null,"dtc":"2024-02-23","dy":"17","visit":"WEEK 2","visitnum":"3.0","epoch":"TREATMENT","spec":null,"method":null},{"seq":"20","testcd":"PLAT","test":"Platelets","cat":"HEMATOLOGY","orres":"259.45","orresu":"10^9/L","stresc":"259.45","stresn":"259.45","stresu":"10^9/L","stnrlo":"150","stnrhi":"400","nrind":"NORMAL","fast":null,"dtc":"2024-02-23","dy":"17","visit":"WEEK 2","visitnum":"3.0","epoch":"TREATMENT","spec":null,"method":null},{"seq":"21","testcd":"WBC","test":"Leukocytes","cat":"HEMATOLOGY","orres":"6.49","orresu":"10^9/L","stresc":"6.49","stresn":"6.49","stresu":"10^9/L","stnrlo":"4.0","stnrhi":"11.0","nrind":"NORMAL","fast":null,"dtc":"2024-02-23","dy":"17","visit":"WEEK 2","visitnum":"3.0","epoch":"TREATMENT","spec":null,"method":null},{"seq":"22","testcd":"ALT","test":"Alanine Aminotransferase","cat":"CHEMISTRY","orres":"24.3","orresu":"U/L","stresc":"24.3","stresn":"24.3","stresu":"U/L","stnrlo":"7","stnrhi":"56","nrind":"NORMAL","fast":null,"dtc":"2024-02-27","dy":"21","visit":"WEEK 3","visitnum":"4.0","epoch":"TREATMENT","spec":null,"method":null},{"seq":"23","testcd":"AST","test":"Aspartate Aminotransferase","cat":"CHEMISTRY","orres":"11.98","orresu":"U/L","stresc":"11.98","stresn":"11.98","stresu":"U/L","stnrlo":"10","stnrhi":"40","nrind":"NORMAL","fast":null,"dtc":"2024-02-27","dy":"21","visit":"WEEK 3","visitnum":"4.0","epoch":"TREATMENT","spec":null,"method":null},{"seq":"24","testcd":"CREAT","test":"Creatinine","cat":"CHEMISTRY","orres":"45.08","orresu":"umol/L","stresc":"45.08","stresn":"45.08","stresu":"umol/L","stnrlo":"44","stnrhi":"80","nrind":"NORMAL","fast":null,"dtc":"2024-02-27","dy":"21","visit":"WEEK 3","visitnum":"4.0","epoch":"TREATMENT","spec":null,"method":null},{"seq":"25","testcd":"GLUC","test":"Glucose","cat":"CHEMISTRY","orres":"4.83","orresu":"mmol/L","stresc":"4.83","stresn":"4.83","stresu":"mmol/L","stnrlo":"3.9","stnrhi":"5.6","nrind":"NORMAL","fast":null,"dtc":"2024-02-27","dy":"21","visit":"WEEK 3","visitnum":"4.0","epoch":"TREATMENT","spec":null,"method":null},{"seq":"26","testcd":"HGB","test":"Hemoglobin","cat":"HEMATOLOGY","orres":"121.55","orresu":"g/L","stresc":"121.55","stresn":"121.55","stresu":"g/L","stnrlo":"120","stnrhi":"155","nrind":"NORMAL","fast":null,"dtc":"2024-02-27","dy":"21","visit":"WEEK 3","visitnum":"4.0","epoch":"TREATMENT","spec":null,"method":null},{"seq":"27","testcd":"PLAT","test":"Platelets","cat":"HEMATOLOGY","orres":"236.81","orresu":"10^9/L","stresc":"236.81","stresn":"236.81","stresu":"10^9/L","stnrlo":"150","stnrhi":"400","nrind":"NORMAL","fast":null,"dtc":"2024-02-27","dy":"21","visit":"WEEK 3","visitnum":"4.0","epoch":"TREATMENT","spec":null,"method":null},{"seq":"28","testcd":"WBC","test":"Leukocytes","cat":"HEMATOLOGY","orres":"6.6","orresu":"10^9/L","stresc":"6.6","stresn":"6.6","stresu":"10^9/L","stnrlo":"4.0","stnrhi":"11.0","nrind":"NORMAL","fast":null,"dtc":"2024-02-27","dy":"21","visit":"WEEK 3","visitnum":"4.0","epoch":"TREATMENT","spec":null,"method":null},{"seq":"29","testcd":"ALT","test":"Alanine Aminotransferase","cat":"CHEMISTRY","orres":"23.11","orresu":"U/L","stresc":"23.11","stresn":"23.11","stresu":"U/L","stnrlo":"7","stnrhi":"56","nrind":"NORMAL","fast":null,"dtc":"2024-03-06","dy":"29","visit":"WEEK 4","visitnum":"5.0","epoch":"TREATMENT","spec":null,"method":null},{"seq":"30","testcd":"AST","test":"Aspartate Aminotransferase","cat":"CHEMISTRY","orres":"11.68","orresu":"U/L","stresc":"11.68","stresn":"11.68","stresu":"U/L","stnrlo":"10","stnrhi":"40","nrind":"NORMAL","fast":null,"dtc":"2024-03-06","dy":"29","visit":"WEEK 4","visitnum":"5.0","epoch":"TREATMENT","spec":null,"method":null},{"seq":"31","testcd":"CREAT","test":"Creatinine","cat":"CHEMISTRY","orres":"46.88","orresu":"umol/L","stresc":"46.88","stresn":"46.88","stresu":"umol/L","stnrlo":"44","stnrhi":"80","nrind":"NORMAL","fast":null,"dtc":"2024-03-06","dy":"29","visit":"WEEK 4","visitnum":"5.0","epoch":"TREATMENT","spec":null,"method":null},{"seq":"32","testcd":"GLUC","test":"Glucose","cat":"CHEMISTRY","orres":"4.83","orresu":"mmol/L","stresc":"4.83","stresn":"4.83","stresu":"mmol/L","stnrlo":"3.9","stnrhi":"5.6","nrind":"NORMAL","fast":null,"dtc":"2024-03-06","dy":"29","visit":"WEEK 4","visitnum":"5.0","epoch":"TREATMENT","spec":null,"method":null},{"seq":"33","testcd":"HGB","test":"Hemoglobin","cat":"HEMATOLOGY","orres":"122.71","orresu":"g/L","stresc":"122.71","stresn":"122.71","stresu":"g/L","stnrlo":"120","stnrhi":"155","nrind":"NORMAL","fast":null,"dtc":"2024-03-06","dy":"29","visit":"WEEK 4","visitnum":"5.0","epoch":"TREATMENT","spec":null,"method":null},{"seq":"34","testcd":"PLAT","test":"Platelets","cat":"HEMATOLOGY","orres":"229.28","orresu":"10^9/L","stresc":"229.28","stresn":"229.28","stresu":"10^9/L","stnrlo":"150","stnrhi":"400","nrind":"NORMAL","fast":null,"dtc":"2024-03-06","dy":"29","visit":"WEEK 4","visitnum":"5.0","epoch":"TREATMENT","spec":null,"method":null},{"seq":"35","testcd":"WBC","test":"Leukocytes","cat":"HEMATOLOGY","orres":"6.74","orresu":"10^9/L","stresc":"6.74","stresn":"6.74","stresu":"10^9/L","stnrlo":"4.0","stnrhi":"11.0","nrind":"NORMAL","fast":null,"dtc":"2024-03-06","dy":"29","visit":"WEEK 4","visitnum":"5.0","epoch":"TREATMENT","spec":null,"method":null},{"seq":"36","testcd":"ALT","test":"Alanine Aminotransferase","cat":"CHEMISTRY","orres":"20.75","orresu":"U/L","stresc":"20.75","stresn":"20.75","stresu":"U/L","stnrlo":"7","stnrhi":"56","nrind":"NORMAL","fast":null,"dtc":"2024-03-12","dy":"35","visit":"WEEK 5","visitnum":"6.0","epoch":"TREATMENT","spec":null,"method":null},{"seq":"37","testcd":"AST","test":"Aspartate Aminotransferase","cat":"CHEMISTRY","orres":"12.5","orresu":"U/L","stresc":"12.5","stresn":"12.5","stresu":"U/L","stnrlo":"10","stnrhi":"40","nrind":"NORMAL","fast":null,"dtc":"2024-03-12","dy":"35","visit":"WEEK 5","visitnum":"6.0","epoch":"TREATMENT","spec":null,"method":null},{"seq":"38","testcd":"CREAT","test":"Creatinine","cat":"CHEMISTRY","orres":"48.17","orresu":"umol/L","stresc":"48.17","stresn":"48.17","stresu":"umol/L","stnrlo":"44","stnrhi":"80","nrind":"NORMAL","fast":null,"dtc":"2024-03-12","dy":"35","visit":"WEEK 5","visitnum":"6.0","epoch":"TREATMENT","spec":null,"method":null},{"seq":"39","testcd":"GLUC","test":"Glucose","cat":"CHEMISTRY","orres":"4.96","orresu":"mmol/L","stresc":"4.96","stresn":"4.96","stresu":"mmol/L","stnrlo":"3.9","stnrhi":"5.6","nrind":"NORMAL","fast":null,"dtc":"2024-03-12","dy":"35","visit":"WEEK 5","visitnum":"6.0","epoch":"TREATMENT","spec":null,"method":null},{"seq":"40","testcd":"HGB","test":"Hemoglobin","cat":"HEMATOLOGY","orres":"122.69","orresu":"g/L","stresc":"122.69","stresn":"122.69","stresu":"g/L","stnrlo":"120","stnrhi":"155","nrind":"NORMAL","fast":null,"dtc":"2024-03-12","dy":"35","visit":"WEEK 5","visitnum":"6.0","epoch":"TREATMENT","spec":null,"method":null},{"seq":"41","testcd":"PLAT","test":"Platelets","cat":"HEMATOLOGY","orres":null,"orresu":null,"stresc":null,"stresn":null,"stresu":null,"stnrlo":null,"stnrhi":null,"nrind":null,"fast":null,"dtc":"2024-03-12","dy":"35","visit":"WEEK 5","visitnum":"6.0","epoch":"TREATMENT","spec":null,"method":null},{"seq":"42","testcd":"WBC","test":"Leukocytes","cat":"HEMATOLOGY","orres":"7.03","orresu":"10^9/L","stresc":"7.03","stresn":"7.03","stresu":"10^9/L","stnrlo":"4.0","stnrhi":"11.0","nrind":"NORMAL","fast":null,"dtc":"2024-03-12","dy":"35","visit":"WEEK 5","visitnum":"6.0","epoch":"TREATMENT","spec":null,"method":null},{"seq":"43","testcd":"ALT","test":"Alanine Aminotransferase","cat":"CHEMISTRY","orres":"22.48","orresu":"U/L","stresc":"22.48","stresn":"22.48","stresu":"U/L","stnrlo":"7","stnrhi":"56","nrind":"NORMAL","fast":null,"dtc":"2024-03-19","dy":"42","visit":"WEEK 6","visitnum":"7.0","epoch":"TREATMENT","spec":null,"method":null},{"seq":"44","testcd":"AST","test":"Aspartate Aminotransferase","cat":"CHEMISTRY","orres":null,"orresu":null,"stresc":null,"stresn":null,"stresu":null,"stnrlo":null,"stnrhi":null,"nrind":null,"fast":null,"dtc":"2024-03-19","dy":"42","visit":"WEEK 6","visitnum":"7.0","epoch":"TREATMENT","spec":null,"method":null},{"seq":"45","testcd":"CREAT","test":"Creatinine","cat":"CHEMISTRY","orres":"48.68","orresu":"umol/L","stresc":"48.68","stresn":"48.68","stresu":"umol/L","stnrlo":"44","stnrhi":"80","nrind":"NORMAL","fast":null,"dtc":"2024-03-19","dy":"42","visit":"WEEK 6","visitnum":"7.0","epoch":"TREATMENT","spec":null,"method":null},{"seq":"46","testcd":"GLUC","test":"Glucose","cat":"CHEMISTRY","orres":"4.94","orresu":"mmol/L","stresc":"4.94","stresn":"4.94","stresu":"mmol/L","stnrlo":"3.9","stnrhi":"5.6","nrind":"NORMAL","fast":null,"dtc":"2024-03-19","dy":"42","visit":"WEEK 6","visitnum":"7.0","epoch":"TREATMENT","spec":null,"method":null},{"seq":"47","testcd":"HGB","test":"Hemoglobin","cat":"HEMATOLOGY","orres":"120.56","orresu":"g/L","stresc":"120.56","stresn":"120.56","stresu":"g/L","stnrlo":"120","stnrhi":"155","nrind":"NORMAL","fast":null,"dtc":"2024-03-19","dy":"42","visit":"WEEK 6","visitnum":"7.0","epoch":"TREATMENT","spec":null,"method":null},{"seq":"48","testcd":"PLAT","test":"Platelets","cat":"HEMATOLOGY","orres":"228.63","orresu":"10^9/L","stresc":"228.63","stresn":"228.63","stresu":"10^9/L","stnrlo":"150","stnrhi":"400","nrind":"NORMAL","fast":null,"dtc":"2024-03-19","dy":"42","visit":"WEEK 6","visitnum":"7.0","epoch":"TREATMENT","spec":null,"method":null},{"seq":"49","testcd":"WBC","test":"Leukocytes","cat":"HEMATOLOGY","orres":null,"orresu":null,"stresc":null,"stresn":null,"stresu":null,"stnrlo":null,"stnrhi":null,"nrind":null,"fast":null,"dtc":"2024-03-19","dy":"42","visit":"WEEK 6","visitnum":"7.0","epoch":"TREATMENT","spec":null,"method":null},{"seq":"50","testcd":"ALT","test":"Alanine Aminotransferase","cat":"CHEMISTRY","orres":"25.74","orresu":"U/L","stresc":"25.74","stresn":"25.74","stresu":"U/L","stnrlo":"7","stnrhi":"56","nrind":"NORMAL","fast":null,"dtc":"2024-03-27","dy":"50","visit":"WEEK 7","visitnum":"8.0","epoch":"TREATMENT","spec":null,"method":null},{"seq":"51","testcd":"AST","test":"Aspartate Aminotransferase","cat":"CHEMISTRY","orres":"11.73","orresu":"U/L","stresc":"11.73","stresn":"11.73","stresu":"U/L","stnrlo":"10","stnrhi":"40","nrind":"NORMAL","fast":null,"dtc":"2024-03-27","dy":"50","visit":"WEEK 7","visitnum":"8.0","epoch":"TREATMENT","spec":null,"method":null},{"seq":"52","testcd":"CREAT","test":"Creatinine","cat":"CHEMISTRY","orres":"47.49","orresu":"umol/L","stresc":"47.49","stresn":"47.49","stresu":"umol/L","stnrlo":"44","stnrhi":"80","nrind":"NORMAL","fast":null,"dtc":"2024-03-27","dy":"50","visit":"WEEK 7","visitnum":"8.0","epoch":"TREATMENT","spec":null,"method":null},{"seq":"53","testcd":"GLUC","test":"Glucose","cat":"CHEMISTRY","orres":"4.95","orresu":"mmol/L","stresc":"4.95","stresn":"4.95","stresu":"mmol/L","stnrlo":"3.9","stnrhi":"5.6","nrind":"NORMAL","fast":null,"dtc":"2024-03-27","dy":"50","visit":"WEEK 7","visitnum":"8.0","epoch":"TREATMENT","spec":null,"method":null},{"seq":"54","testcd":"HGB","test":"Hemoglobin","cat":"HEMATOLOGY","orres":null,"orresu":null,"stresc":null,"stresn":null,"stresu":null,"stnrlo":null,"stnrhi":null,"nrind":null,"fast":null,"dtc":"2024-03-27","dy":"50","visit":"WEEK 7","visitnum":"8.0","epoch":"TREATMENT","spec":null,"method":null},{"seq":"55","testcd":"PLAT","test":"Platelets","cat":"HEMATOLOGY","orres":"228.17","orresu":"10^9/L","stresc":"228.17","stresn":"228.17","stresu":"10^9/L","stnrlo":"150","stnrhi":"400","nrind":"NORMAL","fast":null,"dtc":"2024-03-27","dy":"50","visit":"WEEK 7","visitnum":"8.0","epoch":"TREATMENT","spec":null,"method":null},{"seq":"56","testcd":"WBC","test":"Leukocytes","cat":"HEMATOLOGY","orres":"7.12","orresu":"10^9/L","stresc":"7.12","stresn":"7.12","stresu":"10^9/L","stnrlo":"4.0","stnrhi":"11.0","nrind":"NORMAL","fast":null,"dtc":"2024-03-27","dy":"50","visit":"WEEK 7","visitnum":"8.0","epoch":"TREATMENT","spec":null,"method":null},{"seq":"57","testcd":"ALT","test":"Alanine Aminotransferase","cat":"CHEMISTRY","orres":"23.77","orresu":"U/L","stresc":"23.77","stresn":"23.77","stresu":"U/L","stnrlo":"7","stnrhi":"56","nrind":"NORMAL","fast":null,"dtc":"2024-04-02","dy":"56","visit":"WEEK 8 EOT","visitnum":"9.0","epoch":"TREATMENT","spec":null,"method":null},{"seq":"58","testcd":"AST","test":"Aspartate Aminotransferase","cat":"CHEMISTRY","orres":"14.52","orresu":"U/L","stresc":"14.52","stresn":"14.52","stresu":"U/L","stnrlo":"10","stnrhi":"40","nrind":"NORMAL","fast":null,"dtc":"2024-04-02","dy":"56","visit":"WEEK 8 EOT","visitnum":"9.0","epoch":"TREATMENT","spec":null,"method":null},{"seq":"59","testcd":"CREAT","test":"Creatinine","cat":"CHEMISTRY","orres":"47.86","orresu":"umol/L","stresc":"47.86","stresn":"47.86","stresu":"umol/L","stnrlo":"44","stnrhi":"80","nrind":"NORMAL","fast":null,"dtc":"2024-04-02","dy":"56","visit":"WEEK 8 EOT","visitnum":"9.0","epoch":"TREATMENT","spec":null,"method":null},{"seq":"60","testcd":"GLUC","test":"Glucose","cat":"CHEMISTRY","orres":"4.93","orresu":"mmol/L","stresc":"4.93","stresn":"4.93","stresu":"mmol/L","stnrlo":"3.9","stnrhi":"5.6","nrind":"NORMAL","fast":null,"dtc":"2024-04-02","dy":"56","visit":"WEEK 8 EOT","visitnum":"9.0","epoch":"TREATMENT","spec":null,"method":null},{"seq":"61","testcd":"HGB","test":"Hemoglobin","cat":"HEMATOLOGY","orres":"121.09","orresu":"g/L","stresc":"121.09","stresn":"121.09","stresu":"g/L","stnrlo":"120","stnrhi":"155","nrind":"NORMAL","fast":null,"dtc":"2024-04-02","dy":"56","visit":"WEEK 8 EOT","visitnum":"9.0","epoch":"TREATMENT","spec":null,"method":null},{"seq":"62","testcd":"PLAT","test":"Platelets","cat":"HEMATOLOGY","orres":"243.58","orresu":"10^9/L","stresc":"243.58","stresn":"243.58","stresu":"10^9/L","stnrlo":"150","stnrhi":"400","nrind":"NORMAL","fast":null,"dtc":"2024-04-02","dy":"56","visit":"WEEK 8 EOT","visitnum":"9.0","epoch":"TREATMENT","spec":null,"method":null},{"seq":"63","testcd":"WBC","test":"Leukocytes","cat":"HEMATOLOGY","orres":"7.01","orresu":"10^9/L","stresc":"7.01","stresn":"7.01","stresu":"10^9/L","stnrlo":"4.0","stnrhi":"11.0","nrind":"NORMAL","fast":null,"dtc":"2024-04-02","dy":"56","visit":"WEEK 8 EOT","visitnum":"9.0","epoch":"TREATMENT","spec":null,"method":null},{"seq":"64","testcd":"ALT","test":"Alanine Aminotransferase","cat":"CHEMISTRY","orres":"23.5","orresu":"U/L","stresc":"23.5","stresn":"23.5","stresu":"U/L","stnrlo":"7","stnrhi":"56","nrind":"NORMAL","fast":null,"dtc":"2024-06-05","dy":"120","visit":"SAFETY FU WEEK 8","visitnum":"11.0","epoch":"FOLLOW-UP","spec":null,"method":null},{"seq":"65","testcd":"AST","test":"Aspartate Aminotransferase","cat":"CHEMISTRY","orres":"13.47","orresu":"U/L","stresc":"13.47","stresn":"13.47","stresu":"U/L","stnrlo":"10","stnrhi":"40","nrind":"NORMAL","fast":null,"dtc":"2024-06-05","dy":"120","visit":"SAFETY FU WEEK 8","visitnum":"11.0","epoch":"FOLLOW-UP","spec":null,"method":null},{"seq":"66","testcd":"CREAT","test":"Creatinine","cat":"CHEMISTRY","orres":"46.26","orresu":"umol/L","stresc":"46.26","stresn":"46.26","stresu":"umol/L","stnrlo":"44","stnrhi":"80","nrind":"NORMAL","fast":null,"dtc":"2024-06-05","dy":"120","visit":"SAFETY FU WEEK 8","visitnum":"11.0","epoch":"FOLLOW-UP","spec":null,"method":null},{"seq":"67","testcd":"GLUC","test":"Glucose","cat":"CHEMISTRY","orres":null,"orresu":null,"stresc":null,"stresn":null,"stresu":null,"stnrlo":null,"stnrhi":null,"nrind":null,"fast":null,"dtc":"2024-06-05","dy":"120","visit":"SAFETY FU WEEK 8","visitnum":"11.0","epoch":"FOLLOW-UP","spec":null,"method":null},{"seq":"68","testcd":"HGB","test":"Hemoglobin","cat":"HEMATOLOGY","orres":"121.23","orresu":"g/L","stresc":"121.23","stresn":"121.23","stresu":"g/L","stnrlo":"120","stnrhi":"155","nrind":"NORMAL","fast":null,"dtc":"2024-06-05","dy":"120","visit":"SAFETY FU WEEK 8","visitnum":"11.0","epoch":"FOLLOW-UP","spec":null,"method":null},{"seq":"69","testcd":"PLAT","test":"Platelets","cat":"HEMATOLOGY","orres":"243.11","orresu":"10^9/L","stresc":"243.11","stresn":"243.11","stresu":"10^9/L","stnrlo":"150","stnrhi":"400","nrind":"NORMAL","fast":null,"dtc":"2024-06-05","dy":"120","visit":"SAFETY FU WEEK 8","visitnum":"11.0","epoch":"FOLLOW-UP","spec":null,"method":null},{"seq":"70","testcd":"WBC","test":"Leukocytes","cat":"HEMATOLOGY","orres":"7.44","orresu":"10^9/L","stresc":"7.44","stresn":"7.44","stresu":"10^9/L","stnrlo":"4.0","stnrhi":"11.0","nrind":"NORMAL","fast":null,"dtc":"2024-06-05","dy":"120","visit":"SAFETY FU WEEK 8","visitnum":"11.0","epoch":"FOLLOW-UP","spec":null,"method":null}]},"section_9_vital_signs":{"summary":{"total_records":63},"trends":{"BMI":[{"visit":"SCREENING","visitnum":"1.0","dtc":"2023-12-18","value":"39.3","unit":"kg/m2"},{"visit":"DAY 1 LOADING","visitnum":"2.0","dtc":"2024-02-07","value":"39.2","unit":"kg/m2"},{"visit":"WEEK 2","visitnum":"3.0","dtc":"2024-02-23","value":"40.4","unit":"kg/m2"},{"visit":"WEEK 6","visitnum":"7.0","dtc":"2024-03-19","value":"39.1","unit":"kg/m2"},{"visit":"WEEK 7","visitnum":"8.0","dtc":"2024-03-27","value":"39.2","unit":"kg/m2"},{"visit":"WEEK 8 EOT","visitnum":"9.0","dtc":"2024-04-02","value":"40.0","unit":"kg/m2"},{"visit":"SAFETY FU WEEK 8","visitnum":"11.0","dtc":"2024-06-05","value":"36.7","unit":"kg/m2"}],"DIABP":[{"visit":"SCREENING","visitnum":"1.0","dtc":"2023-12-18","value":"62.8","unit":"mmHg"},{"visit":"DAY 1 LOADING","visitnum":"2.0","dtc":"2024-02-07","value":"63.9","unit":"mmHg"},{"visit":"WEEK 2","visitnum":"3.0","dtc":"2024-02-23","value":"62.8","unit":"mmHg"},{"visit":"WEEK 6","visitnum":"7.0","dtc":"2024-03-19","value":"64.7","unit":"mmHg"},{"visit":"WEEK 7","visitnum":"8.0","dtc":"2024-03-27","value":"63.7","unit":"mmHg"},{"visit":"WEEK 8 EOT","visitnum":"9.0","dtc":"2024-04-02","value":"63.2","unit":"mmHg"},{"visit":"SAFETY FU WEEK 4","visitnum":"10.0","dtc":"2024-04-24","value":"63.2","unit":"mmHg"},{"visit":"SAFETY FU WEEK 8","visitnum":"11.0","dtc":"2024-06-05","value":"61.1","unit":"mmHg"}],"HEIGHT":[{"visit":"SCREENING","visitnum":"1.0","dtc":"2023-12-18","value":"141.8","unit":"cm"},{"visit":"DAY 1 LOADING","visitnum":"2.0","dtc":"2024-02-07","value":"142.3","unit":"cm"},{"visit":"WEEK 2","visitnum":"3.0","dtc":"2024-02-23","value":"141.5","unit":"cm"},{"visit":"WEEK 6","visitnum":"7.0","dtc":"2024-03-19","value":"141.0","unit":"cm"},{"visit":"WEEK 7","visitnum":"8.0","dtc":"2024-03-27","value":"140.8","unit":"cm"},{"visit":"WEEK 8 EOT","visitnum":"9.0","dtc":"2024-04-02","value":"141.1","unit":"cm"},{"visit":"SAFETY FU WEEK 8","visitnum":"11.0","dtc":"2024-06-05","value":"142.0","unit":"cm"}],"PULSE":[{"visit":"SCREENING","visitnum":"1.0","dtc":"2023-12-18","value":"83.5","unit":"beats/min"},{"visit":"DAY 1 LOADING","visitnum":"2.0","dtc":"2024-02-07","value":"79.8","unit":"beats/min"},{"visit":"WEEK 2","visitnum":"3.0","dtc":"2024-02-23","value":"83.2","unit":"beats/min"},{"visit":"WEEK 6","visitnum":"7.0","dtc":"2024-03-19","value":"82.2","unit":"beats/min"},{"visit":"WEEK 7","visitnum":"8.0","dtc":"2024-03-27","value":"77.1","unit":"beats/min"},{"visit":"WEEK 8 EOT","visitnum":"9.0","dtc":"2024-04-02","value":"83.4","unit":"beats/min"},{"visit":"SAFETY FU WEEK 4","visitnum":"10.0","dtc":"2024-04-24","value":"78.7","unit":"beats/min"},{"visit":"SAFETY FU WEEK 8","visitnum":"11.0","dtc":"2024-06-05","value":"77.8","unit":"beats/min"}],"RESP":[{"visit":"SCREENING","visitnum":"1.0","dtc":"2023-12-18","value":"17.4","unit":"breaths/min"},{"visit":"DAY 1 LOADING","visitnum":"2.0","dtc":"2024-02-07","value":"19.5","unit":"breaths/min"},{"visit":"WEEK 2","visitnum":"3.0","dtc":"2024-02-23","value":"18.1","unit":"breaths/min"},{"visit":"WEEK 6","visitnum":"7.0","dtc":"2024-03-19","value":"17.0","unit":"breaths/min"},{"visit":"WEEK 7","visitnum":"8.0","dtc":"2024-03-27","value":"16.3","unit":"breaths/min"},{"visit":"WEEK 8 EOT","visitnum":"9.0","dtc":"2024-04-02","value":"17.9","unit":"breaths/min"},{"visit":"SAFETY FU WEEK 4","visitnum":"10.0","dtc":"2024-04-24","value":"17.9","unit":"breaths/min"},{"visit":"SAFETY FU WEEK 8","visitnum":"11.0","dtc":"2024-06-05","value":"19.5","unit":"breaths/min"}],"SYSBP":[{"visit":"SCREENING","visitnum":"1.0","dtc":"2023-12-18","value":"124.2","unit":"mmHg"},{"visit":"DAY 1 LOADING","visitnum":"2.0","dtc":"2024-02-07","value":"123.8","unit":"mmHg"},{"visit":"WEEK 2","visitnum":"3.0","dtc":"2024-02-23","value":"123.4","unit":"mmHg"},{"visit":"WEEK 6","visitnum":"7.0","dtc":"2024-03-19","value":"125.5","unit":"mmHg"},{"visit":"WEEK 7","visitnum":"8.0","dtc":"2024-03-27","value":"124.6","unit":"mmHg"},{"visit":"WEEK 8 EOT","visitnum":"9.0","dtc":"2024-04-02","value":"123.4","unit":"mmHg"},{"visit":"SAFETY FU WEEK 4","visitnum":"10.0","dtc":"2024-04-24","value":"123.0","unit":"mmHg"},{"visit":"SAFETY FU WEEK 8","visitnum":"11.0","dtc":"2024-06-05","value":"120.3","unit":"mmHg"}],"TEMP":[{"visit":"SCREENING","visitnum":"1.0","dtc":"2023-12-18","value":"36.6","unit":"C"},{"visit":"DAY 1 LOADING","visitnum":"2.0","dtc":"2024-02-07","value":"36.6","unit":"C"},{"visit":"WEEK 2","visitnum":"3.0","dtc":"2024-02-23","value":"36.5","unit":"C"},{"visit":"WEEK 6","visitnum":"7.0","dtc":"2024-03-19","value":"36.5","unit":"C"},{"visit":"WEEK 7","visitnum":"8.0","dtc":"2024-03-27","value":"36.8","unit":"C"},{"visit":"WEEK 8 EOT","visitnum":"9.0","dtc":"2024-04-02","value":"36.6","unit":"C"},{"visit":"SAFETY FU WEEK 4","visitnum":"10.0","dtc":"2024-04-24","value":"36.7","unit":"C"},{"visit":"SAFETY FU WEEK 8","visitnum":"11.0","dtc":"2024-06-05","value":"36.6","unit":"C"}],"WEIGHT":[{"visit":"SCREENING","visitnum":"1.0","dtc":"2023-12-18","value":"79.1","unit":"kg"},{"visit":"DAY 1 LOADING","visitnum":"2.0","dtc":"2024-02-07","value":"79.3","unit":"kg"},{"visit":"WEEK 2","visitnum":"3.0","dtc":"2024-02-23","value":"80.8","unit":"kg"},{"visit":"WEEK 6","visitnum":"7.0","dtc":"2024-03-19","value":"77.8","unit":"kg"},{"visit":"WEEK 7","visitnum":"8.0","dtc":"2024-03-27","value":"77.8","unit":"kg"},{"visit":"WEEK 8 EOT","visitnum":"9.0","dtc":"2024-04-02","value":"79.6","unit":"kg"},{"visit":"SAFETY FU WEEK 4","visitnum":"10.0","dtc":"2024-04-24","value":"76.5","unit":"kg"},{"visit":"SAFETY FU WEEK 8","visitnum":"11.0","dtc":"2024-06-05","value":"74.1","unit":"kg"}]},"results":[{"seq":"1","testcd":"BMI","test":"BMI","cat":null,"orres":null,"orresu":null,"stresc":"39.3","stresn":"39.3","stresu":"kg/m2","stnrlo":null,"stnrhi":null,"nrind":null,"pos":null,"loc":null,"dtc":"2023-12-18","dy":"-51","visit":"SCREENING","visitnum":"1.0","epoch":"SCREENING"},{"seq":"2","testcd":"DIABP","test":"Diastolic Blood Pressure","cat":null,"orres":"62.8","orresu":"mmHg","stresc":"62.8","stresn":"62.8","stresu":"mmHg","stnrlo":null,"stnrhi":null,"nrind":null,"pos":null,"loc":null,"dtc":"2023-12-18","dy":"-51","visit":"SCREENING","visitnum":"1.0","epoch":"SCREENING"},{"seq":"3","testcd":"HEIGHT","test":"Height","cat":null,"orres":"141.8","orresu":"cm","stresc":"141.8","stresn":"141.8","stresu":"cm","stnrlo":null,"stnrhi":null,"nrind":null,"pos":null,"loc":null,"dtc":"2023-12-18","dy":"-51","visit":"SCREENING","visitnum":"1.0","epoch":"SCREENING"},{"seq":"4","testcd":"PULSE","test":"Pulse Rate","cat":null,"orres":"83.5","orresu":"beats/min","stresc":"83.5","stresn":"83.5","stresu":"beats/min","stnrlo":null,"stnrhi":null,"nrind":null,"pos":null,"loc":null,"dtc":"2023-12-18","dy":"-51","visit":"SCREENING","visitnum":"1.0","epoch":"SCREENING"},{"seq":"5","testcd":"RESP","test":"Respiratory Rate","cat":null,"orres":"17.4","orresu":"breaths/min","stresc":"17.4","stresn":"17.4","stresu":"breaths/min","stnrlo":null,"stnrhi":null,"nrind":null,"pos":null,"loc":null,"dtc":"2023-12-18","dy":"-51","visit":"SCREENING","visitnum":"1.0","epoch":"SCREENING"},{"seq":"6","testcd":"SYSBP","test":"Systolic Blood Pressure","cat":null,"orres":"124.2","orresu":"mmHg","stresc":"124.2","stresn":"124.2","stresu":"mmHg","stnrlo":null,"stnrhi":null,"nrind":null,"pos":null,"loc":null,"dtc":"2023-12-18","dy":"-51","visit":"SCREENING","visitnum":"1.0","epoch":"SCREENING"},{"seq":"7","testcd":"TEMP","test":"Temperature","cat":null,"orres":"36.6","orresu":"C","stresc":"36.6","stresn":"36.6","stresu":"C","stnrlo":null,"stnrhi":null,"nrind":null,"pos":null,"loc":null,"dtc":"2023-12-18","dy":"-51","visit":"SCREENING","visitnum":"1.0","epoch":"SCREENING"},{"seq":"8","testcd":"WEIGHT","test":"Weight","cat":null,"orres":"79.1","orresu":"kg","stresc":"79.1","stresn":"79.1","stresu":"kg","stnrlo":null,"stnrhi":null,"nrind":null,"pos":null,"loc":null,"dtc":"2023-12-18","dy":"-51","visit":"SCREENING","visitnum":"1.0","epoch":"SCREENING"},{"seq":"9","testcd":"BMI","test":"BMI","cat":null,"orres":null,"orresu":null,"stresc":"39.2","stresn":"39.2","stresu":"kg/m2","stnrlo":null,"stnrhi":null,"nrind":null,"pos":null,"loc":null,"dtc":"2024-02-07","dy":"1","visit":"DAY 1 LOADING","visitnum":"2.0","epoch":"TREATMENT"},{"seq":"10","testcd":"DIABP","test":"Diastolic Blood Pressure","cat":null,"orres":"63.9","orresu":"mmHg","stresc":"63.9","stresn":"63.9","stresu":"mmHg","stnrlo":null,"stnrhi":null,"nrind":null,"pos":null,"loc":null,"dtc":"2024-02-07","dy":"1","visit":"DAY 1 LOADING","visitnum":"2.0","epoch":"TREATMENT"},{"seq":"11","testcd":"HEIGHT","test":"Height","cat":null,"orres":"142.3","orresu":"cm","stresc":"142.3","stresn":"142.3","stresu":"cm","stnrlo":null,"stnrhi":null,"nrind":null,"pos":null,"loc":null,"dtc":"2024-02-07","dy":"1","visit":"DAY 1 LOADING","visitnum":"2.0","epoch":"TREATMENT"},{"seq":"12","testcd":"PULSE","test":"Pulse Rate","cat":null,"orres":"79.8","orresu":"beats/min","stresc":"79.8","stresn":"79.8","stresu":"beats/min","stnrlo":null,"stnrhi":null,"nrind":null,"pos":null,"loc":null,"dtc":"2024-02-07","dy":"1","visit":"DAY 1 LOADING","visitnum":"2.0","epoch":"TREATMENT"},{"seq":"13","testcd":"RESP","test":"Respiratory Rate","cat":null,"orres":"19.5","orresu":"breaths/min","stresc":"19.5","stresn":"19.5","stresu":"breaths/min","stnrlo":null,"stnrhi":null,"nrind":null,"pos":null,"loc":null,"dtc":"2024-02-07","dy":"1","visit":"DAY 1 LOADING","visitnum":"2.0","epoch":"TREATMENT"},{"seq":"14","testcd":"SYSBP","test":"Systolic Blood Pressure","cat":null,"orres":"123.8","orresu":"mmHg","stresc":"123.8","stresn":"123.8","stresu":"mmHg","stnrlo":null,"stnrhi":null,"nrind":null,"pos":null,"loc":null,"dtc":"2024-02-07","dy":"1","visit":"DAY 1 LOADING","visitnum":"2.0","epoch":"TREATMENT"},{"seq":"15","testcd":"TEMP","test":"Temperature","cat":null,"orres":"36.6","orresu":"C","stresc":"36.6","stresn":"36.6","stresu":"C","stnrlo":null,"stnrhi":null,"nrind":null,"pos":null,"loc":null,"dtc":"2024-02-07","dy":"1","visit":"DAY 1 LOADING","visitnum":"2.0","epoch":"TREATMENT"},{"seq":"16","testcd":"WEIGHT","test":"Weight","cat":null,"orres":"79.3","orresu":"kg","stresc":"79.3","stresn":"79.3","stresu":"kg","stnrlo":null,"stnrhi":null,"nrind":null,"pos":null,"loc":null,"dtc":"2024-02-07","dy":"1","visit":"DAY 1 LOADING","visitnum":"2.0","epoch":"TREATMENT"},{"seq":"17","testcd":"BMI","test":"BMI","cat":null,"orres":null,"orresu":null,"stresc":"40.4","stresn":"40.4","stresu":"kg/m2","stnrlo":null,"stnrhi":null,"nrind":null,"pos":null,"loc":null,"dtc":"2024-02-23","dy":"17","visit":"WEEK 2","visitnum":"3.0","epoch":"TREATMENT"},{"seq":"18","testcd":"DIABP","test":"Diastolic Blood Pressure","cat":null,"orres":"62.8","orresu":"mmHg","stresc":"62.8","stresn":"62.8","stresu":"mmHg","stnrlo":null,"stnrhi":null,"nrind":null,"pos":null,"loc":null,"dtc":"2024-02-23","dy":"17","visit":"WEEK 2","visitnum":"3.0","epoch":"TREATMENT"},{"seq":"19","testcd":"HEIGHT","test":"Height","cat":null,"orres":"141.5","orresu":"cm","stresc":"141.5","stresn":"141.5","stresu":"cm","stnrlo":null,"stnrhi":null,"nrind":null,"pos":null,"loc":null,"dtc":"2024-02-23","dy":"17","visit":"WEEK 2","visitnum":"3.0","epoch":"TREATMENT"},{"seq":"20","testcd":"PULSE","test":"Pulse Rate","cat":null,"orres":"83.2","orresu":"beats/min","stresc":"83.2","stresn":"83.2","stresu":"beats/min","stnrlo":null,"stnrhi":null,"nrind":null,"pos":null,"loc":null,"dtc":"2024-02-23","dy":"17","visit":"WEEK 2","visitnum":"3.0","epoch":"TREATMENT"},{"seq":"21","testcd":"RESP","test":"Respiratory Rate","cat":null,"orres":"18.1","orresu":"breaths/min","stresc":"18.1","stresn":"18.1","stresu":"breaths/min","stnrlo":null,"stnrhi":null,"nrind":null,"pos":null,"loc":null,"dtc":"2024-02-23","dy":"17","visit":"WEEK 2","visitnum":"3.0","epoch":"TREATMENT"},{"seq":"22","testcd":"SYSBP","test":"Systolic Blood Pressure","cat":null,"orres":"123.4","orresu":"mmHg","stresc":"123.4","stresn":"123.4","stresu":"mmHg","stnrlo":null,"stnrhi":null,"nrind":null,"pos":null,"loc":null,"dtc":"2024-02-23","dy":"17","visit":"WEEK 2","visitnum":"3.0","epoch":"TREATMENT"},{"seq":"23","testcd":"TEMP","test":"Temperature","cat":null,"orres":"36.5","orresu":"C","stresc":"36.5","stresn":"36.5","stresu":"C","stnrlo":null,"stnrhi":null,"nrind":null,"pos":null,"loc":null,"dtc":"2024-02-23","dy":"17","visit":"WEEK 2","visitnum":"3.0","epoch":"TREATMENT"},{"seq":"24","testcd":"WEIGHT","test":"Weight","cat":null,"orres":"80.8","orresu":"kg","stresc":"80.8","stresn":"80.8","stresu":"kg","stnrlo":null,"stnrhi":null,"nrind":null,"pos":null,"loc":null,"dtc":"2024-02-23","dy":"17","visit":"WEEK 2","visitnum":"3.0","epoch":"TREATMENT"},{"seq":"25","testcd":"BMI","test":"BMI","cat":null,"orres":null,"orresu":null,"stresc":"39.1","stresn":"39.1","stresu":"kg/m2","stnrlo":null,"stnrhi":null,"nrind":null,"pos":null,"loc":null,"dtc":"2024-03-19","dy":"42","visit":"WEEK 6","visitnum":"7.0","epoch":"TREATMENT"},{"seq":"26","testcd":"DIABP","test":"Diastolic Blood Pressure","cat":null,"orres":"64.7","orresu":"mmHg","stresc":"64.7","stresn":"64.7","stresu":"mmHg","stnrlo":null,"stnrhi":null,"nrind":null,"pos":null,"loc":null,"dtc":"2024-03-19","dy":"42","visit":"WEEK 6","visitnum":"7.0","epoch":"TREATMENT"},{"seq":"27","testcd":"HEIGHT","test":"Height","cat":null,"orres":"141.0","orresu":"cm","stresc":"141.0","stresn":"141.0","stresu":"cm","stnrlo":null,"stnrhi":null,"nrind":null,"pos":null,"loc":null,"dtc":"2024-03-19","dy":"42","visit":"WEEK 6","visitnum":"7.0","epoch":"TREATMENT"},{"seq":"28","testcd":"PULSE","test":"Pulse Rate","cat":null,"orres":"82.2","orresu":"beats/min","stresc":"82.2","stresn":"82.2","stresu":"beats/min","stnrlo":null,"stnrhi":null,"nrind":null,"pos":null,"loc":null,"dtc":"2024-03-19","dy":"42","visit":"WEEK 6","visitnum":"7.0","epoch":"TREATMENT"},{"seq":"29","testcd":"RESP","test":"Respiratory Rate","cat":null,"orres":"17.0","orresu":"breaths/min","stresc":"17.0","stresn":"17.0","stresu":"breaths/min","stnrlo":null,"stnrhi":null,"nrind":null,"pos":null,"loc":null,"dtc":"2024-03-19","dy":"42","visit":"WEEK 6","visitnum":"7.0","epoch":"TREATMENT"},{"seq":"30","testcd":"SYSBP","test":"Systolic Blood Pressure","cat":null,"orres":"125.5","orresu":"mmHg","stresc":"125.5","stresn":"125.5","stresu":"mmHg","stnrlo":null,"stnrhi":null,"nrind":null,"pos":null,"loc":null,"dtc":"2024-03-19","dy":"42","visit":"WEEK 6","visitnum":"7.0","epoch":"TREATMENT"},{"seq":"31","testcd":"TEMP","test":"Temperature","cat":null,"orres":"36.5","orresu":"C","stresc":"36.5","stresn":"36.5","stresu":"C","stnrlo":null,"stnrhi":null,"nrind":null,"pos":null,"loc":null,"dtc":"2024-03-19","dy":"42","visit":"WEEK 6","visitnum":"7.0","epoch":"TREATMENT"},{"seq":"32","testcd":"WEIGHT","test":"Weight","cat":null,"orres":"77.8","orresu":"kg","stresc":"77.8","stresn":"77.8","stresu":"kg","stnrlo":null,"stnrhi":null,"nrind":null,"pos":null,"loc":null,"dtc":"2024-03-19","dy":"42","visit":"WEEK 6","visitnum":"7.0","epoch":"TREATMENT"},{"seq":"33","testcd":"BMI","test":"BMI","cat":null,"orres":null,"orresu":null,"stresc":"39.2","stresn":"39.2","stresu":"kg/m2","stnrlo":null,"stnrhi":null,"nrind":null,"pos":null,"loc":null,"dtc":"2024-03-27","dy":"50","visit":"WEEK 7","visitnum":"8.0","epoch":"TREATMENT"},{"seq":"34","testcd":"DIABP","test":"Diastolic Blood Pressure","cat":null,"orres":"63.7","orresu":"mmHg","stresc":"63.7","stresn":"63.7","stresu":"mmHg","stnrlo":null,"stnrhi":null,"nrind":null,"pos":null,"loc":null,"dtc":"2024-03-27","dy":"50","visit":"WEEK 7","visitnum":"8.0","epoch":"TREATMENT"},{"seq":"35","testcd":"HEIGHT","test":"Height","cat":null,"orres":"140.8","orresu":"cm","stresc":"140.8","stresn":"140.8","stresu":"cm","stnrlo":null,"stnrhi":null,"nrind":null,"pos":null,"loc":null,"dtc":"2024-03-27","dy":"50","visit":"WEEK 7","visitnum":"8.0","epoch":"TREATMENT"},{"seq":"36","testcd":"PULSE","test":"Pulse Rate","cat":null,"orres":"77.1","orresu":"beats/min","stresc":"77.1","stresn":"77.1","stresu":"beats/min","stnrlo":null,"stnrhi":null,"nrind":null,"pos":null,"loc":null,"dtc":"2024-03-27","dy":"50","visit":"WEEK 7","visitnum":"8.0","epoch":"TREATMENT"},{"seq":"37","testcd":"RESP","test":"Respiratory Rate","cat":null,"orres":"16.3","orresu":"breaths/min","stresc":"16.3","stresn":"16.3","stresu":"breaths/min","stnrlo":null,"stnrhi":null,"nrind":null,"pos":null,"loc":null,"dtc":"2024-03-27","dy":"50","visit":"WEEK 7","visitnum":"8.0","epoch":"TREATMENT"},{"seq":"38","testcd":"SYSBP","test":"Systolic Blood Pressure","cat":null,"orres":"124.6","orresu":"mmHg","stresc":"124.6","stresn":"124.6","stresu":"mmHg","stnrlo":null,"stnrhi":null,"nrind":null,"pos":null,"loc":null,"dtc":"2024-03-27","dy":"50","visit":"WEEK 7","visitnum":"8.0","epoch":"TREATMENT"},{"seq":"39","testcd":"TEMP","test":"Temperature","cat":null,"orres":"36.8","orresu":"C","stresc":"36.8","stresn":"36.8","stresu":"C","stnrlo":null,"stnrhi":null,"nrind":null,"pos":null,"loc":null,"dtc":"2024-03-27","dy":"50","visit":"WEEK 7","visitnum":"8.0","epoch":"TREATMENT"},{"seq":"40","testcd":"WEIGHT","test":"Weight","cat":null,"orres":"77.8","orresu":"kg","stresc":"77.8","stresn":"77.8","stresu":"kg","stnrlo":null,"stnrhi":null,"nrind":null,"pos":null,"loc":null,"dtc":"2024-03-27","dy":"50","visit":"WEEK 7","visitnum":"8.0","epoch":"TREATMENT"},{"seq":"41","testcd":"BMI","test":"BMI","cat":null,"orres":null,"orresu":null,"stresc":"40.0","stresn":"40.0","stresu":"kg/m2","stnrlo":null,"stnrhi":null,"nrind":null,"pos":null,"loc":null,"dtc":"2024-04-02","dy":"56","visit":"WEEK 8 EOT","visitnum":"9.0","epoch":"TREATMENT"},{"seq":"42","testcd":"DIABP","test":"Diastolic Blood Pressure","cat":null,"orres":"63.2","orresu":"mmHg","stresc":"63.2","stresn":"63.2","stresu":"mmHg","stnrlo":null,"stnrhi":null,"nrind":null,"pos":null,"loc":null,"dtc":"2024-04-02","dy":"56","visit":"WEEK 8 EOT","visitnum":"9.0","epoch":"TREATMENT"},{"seq":"43","testcd":"HEIGHT","test":"Height","cat":null,"orres":"141.1","orresu":"cm","stresc":"141.1","stresn":"141.1","stresu":"cm","stnrlo":null,"stnrhi":null,"nrind":null,"pos":null,"loc":null,"dtc":"2024-04-02","dy":"56","visit":"WEEK 8 EOT","visitnum":"9.0","epoch":"TREATMENT"},{"seq":"44","testcd":"PULSE","test":"Pulse Rate","cat":null,"orres":"83.4","orresu":"beats/min","stresc":"83.4","stresn":"83.4","stresu":"beats/min","stnrlo":null,"stnrhi":null,"nrind":null,"pos":null,"loc":null,"dtc":"2024-04-02","dy":"56","visit":"WEEK 8 EOT","visitnum":"9.0","epoch":"TREATMENT"},{"seq":"45","testcd":"RESP","test":"Respiratory Rate","cat":null,"orres":"17.9","orresu":"breaths/min","stresc":"17.9","stresn":"17.9","stresu":"breaths/min","stnrlo":null,"stnrhi":null,"nrind":null,"pos":null,"loc":null,"dtc":"2024-04-02","dy":"56","visit":"WEEK 8 EOT","visitnum":"9.0","epoch":"TREATMENT"},{"seq":"46","testcd":"SYSBP","test":"Systolic Blood Pressure","cat":null,"orres":"123.4","orresu":"mmHg","stresc":"123.4","stresn":"123.4","stresu":"mmHg","stnrlo":null,"stnrhi":null,"nrind":null,"pos":null,"loc":null,"dtc":"2024-04-02","dy":"56","visit":"WEEK 8 EOT","visitnum":"9.0","epoch":"TREATMENT"},{"seq":"47","testcd":"TEMP","test":"Temperature","cat":null,"orres":"36.6","orresu":"C","stresc":"36.6","stresn":"36.6","stresu":"C","stnrlo":null,"stnrhi":null,"nrind":null,"pos":null,"loc":null,"dtc":"2024-04-02","dy":"56","visit":"WEEK 8 EOT","visitnum":"9.0","epoch":"TREATMENT"},{"seq":"48","testcd":"WEIGHT","test":"Weight","cat":null,"orres":"79.6","orresu":"kg","stresc":"79.6","stresn":"79.6","stresu":"kg","stnrlo":null,"stnrhi":null,"nrind":null,"pos":null,"loc":null,"dtc":"2024-04-02","dy":"56","visit":"WEEK 8 EOT","visitnum":"9.0","epoch":"TREATMENT"},{"seq":"49","testcd":"DIABP","test":"Diastolic Blood Pressure","cat":null,"orres":"63.2","orresu":"mmHg","stresc":"63.2","stresn":"63.2","stresu":"mmHg","stnrlo":null,"stnrhi":null,"nrind":null,"pos":null,"loc":null,"dtc":"2024-04-24","dy":"78","visit":"SAFETY FU WEEK 4","visitnum":"10.0","epoch":"FOLLOW-UP"},{"seq":"50","testcd":"HEIGHT","test":"Height","cat":null,"orres":null,"orresu":null,"stresc":null,"stresn":null,"stresu":null,"stnrlo":null,"stnrhi":null,"nrind":null,"pos":null,"loc":null,"dtc":"2024-04-24","dy":"78","visit":"SAFETY FU WEEK 4","visitnum":"10.0","epoch":"FOLLOW-UP"},{"seq":"51","testcd":"PULSE","test":"Pulse Rate","cat":null,"orres":"78.7","orresu":"beats/min","stresc":"78.7","stresn":"78.7","stresu":"beats/min","stnrlo":null,"stnrhi":null,"nrind":null,"pos":null,"loc":null,"dtc":"2024-04-24","dy":"78","visit":"SAFETY FU WEEK 4","visitnum":"10.0","epoch":"FOLLOW-UP"},{"seq":"52","testcd":"RESP","test":"Respiratory Rate","cat":null,"orres":"17.9","orresu":"breaths/min","stresc":"17.9","stresn":"17.9","stresu":"breaths/min","stnrlo":null,"stnrhi":null,"nrind":null,"pos":null,"loc":null,"dtc":"2024-04-24","dy":"78","visit":"SAFETY FU WEEK 4","visitnum":"10.0","epoch":"FOLLOW-UP"},{"seq":"53","testcd":"SYSBP","test":"Systolic Blood Pressure","cat":null,"orres":"123.0","orresu":"mmHg","stresc":"123.0","stresn":"123.0","stresu":"mmHg","stnrlo":null,"stnrhi":null,"nrind":null,"pos":null,"loc":null,"dtc":"2024-04-24","dy":"78","visit":"SAFETY FU WEEK 4","visitnum":"10.0","epoch":"FOLLOW-UP"},{"seq":"54","testcd":"TEMP","test":"Temperature","cat":null,"orres":"36.7","orresu":"C","stresc":"36.7","stresn":"36.7","stresu":"C","stnrlo":null,"stnrhi":null,"nrind":null,"pos":null,"loc":null,"dtc":"2024-04-24","dy":"78","visit":"SAFETY FU WEEK 4","visitnum":"10.0","epoch":"FOLLOW-UP"},{"seq":"55","testcd":"WEIGHT","test":"Weight","cat":null,"orres":"76.5","orresu":"kg","stresc":"76.5","stresn":"76.5","stresu":"kg","stnrlo":null,"stnrhi":null,"nrind":null,"pos":null,"loc":null,"dtc":"2024-04-24","dy":"78","visit":"SAFETY FU WEEK 4","visitnum":"10.0","epoch":"FOLLOW-UP"},{"seq":"56","testcd":"BMI","test":"BMI","cat":null,"orres":null,"orresu":null,"stresc":"36.7","stresn":"36.7","stresu":"kg/m2","stnrlo":null,"stnrhi":null,"nrind":null,"pos":null,"loc":null,"dtc":"2024-06-05","dy":"120","visit":"SAFETY FU WEEK 8","visitnum":"11.0","epoch":"FOLLOW-UP"},{"seq":"57","testcd":"DIABP","test":"Diastolic Blood Pressure","cat":null,"orres":"61.1","orresu":"mmHg","stresc":"61.1","stresn":"61.1","stresu":"mmHg","stnrlo":null,"stnrhi":null,"nrind":null,"pos":null,"loc":null,"dtc":"2024-06-05","dy":"120","visit":"SAFETY FU WEEK 8","visitnum":"11.0","epoch":"FOLLOW-UP"},{"seq":"58","testcd":"HEIGHT","test":"Height","cat":null,"orres":"142.0","orresu":"cm","stresc":"142.0","stresn":"142.0","stresu":"cm","stnrlo":null,"stnrhi":null,"nrind":null,"pos":null,"loc":null,"dtc":"2024-06-05","dy":"120","visit":"SAFETY FU WEEK 8","visitnum":"11.0","epoch":"FOLLOW-UP"},{"seq":"59","testcd":"PULSE","test":"Pulse Rate","cat":null,"orres":"77.8","orresu":"beats/min","stresc":"77.8","stresn":"77.8","stresu":"beats/min","stnrlo":null,"stnrhi":null,"nrind":null,"pos":null,"loc":null,"dtc":"2024-06-05","dy":"120","visit":"SAFETY FU WEEK 8","visitnum":"11.0","epoch":"FOLLOW-UP"},{"seq":"60","testcd":"RESP","test":"Respiratory Rate","cat":null,"orres":"19.5","orresu":"breaths/min","stresc":"19.5","stresn":"19.5","stresu":"breaths/min","stnrlo":null,"stnrhi":null,"nrind":null,"pos":null,"loc":null,"dtc":"2024-06-05","dy":"120","visit":"SAFETY FU WEEK 8","visitnum":"11.0","epoch":"FOLLOW-UP"},{"seq":"61","testcd":"SYSBP","test":"Systolic Blood Pressure","cat":null,"orres":"120.3","orresu":"mmHg","stresc":"120.3","stresn":"120.3","stresu":"mmHg","stnrlo":null,"stnrhi":null,"nrind":null,"pos":null,"loc":null,"dtc":"2024-06-05","dy":"120","visit":"SAFETY FU WEEK 8","visitnum":"11.0","epoch":"FOLLOW-UP"},{"seq":"62","testcd":"TEMP","test":"Temperature","cat":null,"orres":"36.6","orresu":"C","stresc":"36.6","stresn":"36.6","stresu":"C","stnrlo":null,"stnrhi":null,"nrind":null,"pos":null,"loc":null,"dtc":"2024-06-05","dy":"120","visit":"SAFETY FU WEEK 8","visitnum":"11.0","epoch":"FOLLOW-UP"},{"seq":"63","testcd":"WEIGHT","test":"Weight","cat":null,"orres":"74.1","orresu":"kg","stresc":"74.1","stresn":"74.1","stresu":"kg","stnrlo":null,"stnrhi":null,"nrind":null,"pos":null,"loc":null,"dtc":"2024-06-05","dy":"120","visit":"SAFETY FU WEEK 8","visitnum":"11.0","epoch":"FOLLOW-UP"}]},"section_10_questionnaires_and_scores":{"questionnaires":[{"seq":"1","testcd":"MADRS01","test":"Apparent Sadness","cat":"MADRS","scat":null,"orres":"4","stresc":"4","stresn":"4.0","dtc":"2024-01-21","dy":"-17","visit":"SCREENING","visitnum":"1.0"},{"seq":"2","testcd":"MADRS02","test":"Reported Sadness","cat":"MADRS","scat":null,"orres":"3","stresc":"3","stresn":"3.0","dtc":"2024-01-21","dy":"-17","visit":"SCREENING","visitnum":"1.0"},{"seq":"3","testcd":"MADRS03","test":"Inner Tension","cat":"MADRS","scat":null,"orres":"5","stresc":"5","stresn":"5.0","dtc":"2024-01-21","dy":"-17","visit":"SCREENING","visitnum":"1.0"},{"seq":"4","testcd":"MADRS04","test":"Reduced Sleep","cat":"MADRS","scat":null,"orres":"4","stresc":"4","stresn":"4.0","dtc":"2024-01-21","dy":"-17","visit":"SCREENING","visitnum":"1.0"},{"seq":"5","testcd":"MADRS05","test":"Reduced Appetite","cat":"MADRS","scat":null,"orres":"4","stresc":"4","stresn":"4.0","dtc":"2024-01-21","dy":"-17","visit":"SCREENING","visitnum":"1.0"},{"seq":"6","testcd":"MADRS06","test":"Concentration Difficulties","cat":"MADRS","scat":null,"orres":"2","stresc":"2","stresn":"2.0","dtc":"2024-01-21","dy":"-17","visit":"SCREENING","visitnum":"1.0"},{"seq":"7","testcd":"MADRS07","test":"Lassitude","cat":"MADRS","scat":null,"orres":"3","stresc":"3","stresn":"3.0","dtc":"2024-01-21","dy":"-17","visit":"SCREENING","visitnum":"1.0"},{"seq":"8","testcd":"MADRS08","test":"Inability to Feel","cat":"MADRS","scat":null,"orres":"3","stresc":"3","stresn":"3.0","dtc":"2024-01-21","dy":"-17","visit":"SCREENING","visitnum":"1.0"},{"seq":"9","testcd":"MADRS09","test":"Pessimistic Thoughts","cat":"MADRS","scat":null,"orres":"4","stresc":"4","stresn":"4.0","dtc":"2024-01-21","dy":"-17","visit":"SCREENING","visitnum":"1.0"},{"seq":"10","testcd":"MADRS10","test":"Suicidal Thoughts","cat":"MADRS","scat":null,"orres":"3","stresc":"3","stresn":"3.0","dtc":"2024-01-21","dy":"-17","visit":"SCREENING","visitnum":"1.0"},{"seq":"11","testcd":"MADRSTOT","test":"MADRS Total Score","cat":"MADRS","scat":"TOTAL","orres":"35.0","stresc":"35.0","stresn":"35.0","dtc":"2024-01-21","dy":"-17","visit":"SCREENING","visitnum":"1.0"},{"seq":"12","testcd":"MADRS01","test":"Apparent Sadness","cat":"MADRS","scat":null,"orres":"2","stresc":"2","stresn":"2.0","dtc":"2024-02-07","dy":"1","visit":"DAY 1 LOADING","visitnum":"2.0"},{"seq":"13","testcd":"MADRS02","test":"Reported Sadness","cat":"MADRS","scat":null,"orres":"3","stresc":"3","stresn":"3.0","dtc":"2024-02-07","dy":"1","visit":"DAY 1 LOADING","visitnum":"2.0"},{"seq":"14","testcd":"MADRS03","test":"Inner Tension","cat":"MADRS","scat":null,"orres":"5","stresc":"5","stresn":"5.0","dtc":"2024-02-07","dy":"1","visit":"DAY 1 LOADING","visitnum":"2.0"},{"seq":"15","testcd":"MADRS04","test":"Reduced Sleep","cat":"MADRS","scat":null,"orres":"3","stresc":"3","stresn":"3.0","dtc":"2024-02-07","dy":"1","visit":"DAY 1 LOADING","visitnum":"2.0"},{"seq":"16","testcd":"MADRS05","test":"Reduced Appetite","cat":"MADRS","scat":null,"orres":"3","stresc":"3","stresn":"3.0","dtc":"2024-02-07","dy":"1","visit":"DAY 1 LOADING","visitnum":"2.0"},{"seq":"17","testcd":"MADRS06","test":"Concentration Difficulties","cat":"MADRS","scat":null,"orres":"4","stresc":"4","stresn":"4.0","dtc":"2024-02-07","dy":"1","visit":"DAY 1 LOADING","visitnum":"2.0"},{"seq":"18","testcd":"MADRS07","test":"Lassitude","cat":"MADRS","scat":null,"orres":"4","stresc":"4","stresn":"4.0","dtc":"2024-02-07","dy":"1","visit":"DAY 1 LOADING","visitnum":"2.0"},{"seq":"19","testcd":"MADRS08","test":"Inability to Feel","cat":"MADRS","scat":null,"orres":"3","stresc":"3","stresn":"3.0","dtc":"2024-02-07","dy":"1","visit":"DAY 1 LOADING","visitnum":"2.0"},{"seq":"20","testcd":"MADRS09","test":"Pessimistic Thoughts","cat":"MADRS","scat":null,"orres":"3","stresc":"3","stresn":"3.0","dtc":"2024-02-07","dy":"1","visit":"DAY 1 LOADING","visitnum":"2.0"},{"seq":"21","testcd":"MADRS10","test":"Suicidal Thoughts","cat":"MADRS","scat":null,"orres":"4","stresc":"4","stresn":"4.0","dtc":"2024-02-07","dy":"1","visit":"DAY 1 LOADING","visitnum":"2.0"},{"seq":"22","testcd":"MADRSTOT","test":"MADRS Total Score","cat":"MADRS","scat":"TOTAL","orres":"34.0","stresc":"34.0","stresn":"34.0","dtc":"2024-02-07","dy":"1","visit":"DAY 1 LOADING","visitnum":"2.0"},{"seq":"23","testcd":"MADRS01","test":"Apparent Sadness","cat":"MADRS","scat":null,"orres":"5","stresc":"5","stresn":"5.0","dtc":"2024-02-21","dy":"15","visit":"WEEK 2","visitnum":"3.0"},{"seq":"24","testcd":"MADRS02","test":"Reported Sadness","cat":"MADRS","scat":null,"orres":"5","stresc":"5","stresn":"5.0","dtc":"2024-02-21","dy":"15","visit":"WEEK 2","visitnum":"3.0"},{"seq":"25","testcd":"MADRS03","test":"Inner Tension","cat":"MADRS","scat":null,"orres":"4","stresc":"4","stresn":"4.0","dtc":"2024-02-21","dy":"15","visit":"WEEK 2","visitnum":"3.0"},{"seq":"26","testcd":"MADRS04","test":"Reduced Sleep","cat":"MADRS","scat":null,"orres":"0","stresc":"0","stresn":"0.0","dtc":"2024-02-21","dy":"15","visit":"WEEK 2","visitnum":"3.0"},{"seq":"27","testcd":"MADRS05","test":"Reduced Appetite","cat":"MADRS","scat":null,"orres":"3","stresc":"3","stresn":"3.0","dtc":"2024-02-21","dy":"15","visit":"WEEK 2","visitnum":"3.0"},{"seq":"28","testcd":"MADRS06","test":"Concentration Difficulties","cat":"MADRS","scat":null,"orres":"3","stresc":"3","stresn":"3.0","dtc":"2024-02-21","dy":"15","visit":"WEEK 2","visitnum":"3.0"},{"seq":"29","testcd":"MADRS07","test":"Lassitude","cat":"MADRS","scat":null,"orres":"4","stresc":"4","stresn":"4.0","dtc":"2024-02-21","dy":"15","visit":"WEEK 2","visitnum":"3.0"},{"seq":"30","testcd":"MADRS08","test":"Inability to Feel","cat":"MADRS","scat":null,"orres":"2","stresc":"2","stresn":"2.0","dtc":"2024-02-21","dy":"15","visit":"WEEK 2","visitnum":"3.0"},{"seq":"31","testcd":"MADRS09","test":"Pessimistic Thoughts","cat":"MADRS","scat":null,"orres":"3","stresc":"3","stresn":"3.0","dtc":"2024-02-21","dy":"15","visit":"WEEK 2","visitnum":"3.0"},{"seq":"32","testcd":"MADRS10","test":"Suicidal Thoughts","cat":"MADRS","scat":null,"orres":"4","stresc":"4","stresn":"4.0","dtc":"2024-02-21","dy":"15","visit":"WEEK 2","visitnum":"3.0"},{"seq":"33","testcd":"MADRSTOT","test":"MADRS Total Score","cat":"MADRS","scat":"TOTAL","orres":"33.0","stresc":"33.0","stresn":"33.0","dtc":"2024-02-21","dy":"15","visit":"WEEK 2","visitnum":"3.0"},{"seq":"34","testcd":"MADRS01","test":"Apparent Sadness","cat":"MADRS","scat":null,"orres":"3","stresc":"3","stresn":"3.0","dtc":"2024-02-28","dy":"22","visit":"WEEK 3","visitnum":"4.0"},{"seq":"35","testcd":"MADRS02","test":"Reported Sadness","cat":"MADRS","scat":null,"orres":"3","stresc":"3","stresn":"3.0","dtc":"2024-02-28","dy":"22","visit":"WEEK 3","visitnum":"4.0"},{"seq":"36","testcd":"MADRS03","test":"Inner Tension","cat":"MADRS","scat":null,"orres":"2","stresc":"2","stresn":"2.0","dtc":"2024-02-28","dy":"22","visit":"WEEK 3","visitnum":"4.0"},{"seq":"37","testcd":"MADRS04","test":"Reduced Sleep","cat":"MADRS","scat":null,"orres":"2","stresc":"2","stresn":"2.0","dtc":"2024-02-28","dy":"22","visit":"WEEK 3","visitnum":"4.0"},{"seq":"38","testcd":"MADRS05","test":"Reduced Appetite","cat":"MADRS","scat":null,"orres":"1","stresc":"1","stresn":"1.0","dtc":"2024-02-28","dy":"22","visit":"WEEK 3","visitnum":"4.0"},{"seq":"39","testcd":"MADRS06","test":"Concentration Difficulties","cat":"MADRS","scat":null,"orres":"4","stresc":"4","stresn":"4.0","dtc":"2024-02-28","dy":"22","visit":"WEEK 3","visitnum":"4.0"},{"seq":"40","testcd":"MADRS07","test":"Lassitude","cat":"MADRS","scat":null,"orres":"2","stresc":"2","stresn":"2.0","dtc":"2024-02-28","dy":"22","visit":"WEEK 3","visitnum":"4.0"},{"seq":"41","testcd":"MADRS08","test":"Inability to Feel","cat":"MADRS","scat":null,"orres":"4","stresc":"4","stresn":"4.0","dtc":"2024-02-28","dy":"22","visit":"WEEK 3","visitnum":"4.0"},{"seq":"42","testcd":"MADRS09","test":"Pessimistic Thoughts","cat":"MADRS","scat":null,"orres":"1","stresc":"1","stresn":"1.0","dtc":"2024-02-28","dy":"22","visit":"WEEK 3","visitnum":"4.0"},{"seq":"43","testcd":"MADRS10","test":"Suicidal Thoughts","cat":"MADRS","scat":null,"orres":"2","stresc":"2","stresn":"2.0","dtc":"2024-02-28","dy":"22","visit":"WEEK 3","visitnum":"4.0"},{"seq":"44","testcd":"MADRSTOT","test":"MADRS Total Score","cat":"MADRS","scat":"TOTAL","orres":"24.0","stresc":"24.0","stresn":"24.0","dtc":"2024-02-28","dy":"22","visit":"WEEK 3","visitnum":"4.0"},{"seq":"45","testcd":"MADRS01","test":"Apparent Sadness","cat":"MADRS","scat":null,"orres":"3","stresc":"3","stresn":"3.0","dtc":"2024-03-06","dy":"29","visit":"WEEK 4","visitnum":"5.0"},{"seq":"46","testcd":"MADRS02","test":"Reported Sadness","cat":"MADRS","scat":null,"orres":"2","stresc":"2","stresn":"2.0","dtc":"2024-03-06","dy":"29","visit":"WEEK 4","visitnum":"5.0"},{"seq":"47","testcd":"MADRS03","test":"Inner Tension","cat":"MADRS","scat":null,"orres":"2","stresc":"2","stresn":"2.0","dtc":"2024-03-06","dy":"29","visit":"WEEK 4","visitnum":"5.0"},{"seq":"48","testcd":"MADRS04","test":"Reduced Sleep","cat":"MADRS","scat":null,"orres":"3","stresc":"3","stresn":"3.0","dtc":"2024-03-06","dy":"29","visit":"WEEK 4","visitnum":"5.0"},{"seq":"49","testcd":"MADRS05","test":"Reduced Appetite","cat":"MADRS","scat":null,"orres":"4","stresc":"4","stresn":"4.0","dtc":"2024-03-06","dy":"29","visit":"WEEK 4","visitnum":"5.0"},{"seq":"50","testcd":"MADRS06","test":"Concentration Difficulties","cat":"MADRS","scat":null,"orres":"3","stresc":"3","stresn":"3.0","dtc":"2024-03-06","dy":"29","visit":"WEEK 4","visitnum":"5.0"},{"seq":"51","testcd":"MADRS07","test":"Lassitude","cat":"MADRS","scat":null,"orres":"3","stresc":"3","stresn":"3.0","dtc":"2024-03-06","dy":"29","visit":"WEEK 4","visitnum":"5.0"},{"seq":"52","testcd":"MADRS08","test":"Inability to Feel","cat":"MADRS","scat":null,"orres":"3","stresc":"3","stresn":"3.0","dtc":"2024-03-06","dy":"29","visit":"WEEK 4","visitnum":"5.0"},{"seq":"53","testcd":"MADRS09","test":"Pessimistic Thoughts","cat":"MADRS","scat":null,"orres":"1","stresc":"1","stresn":"1.0","dtc":"2024-03-06","dy":"29","visit":"WEEK 4","visitnum":"5.0"},{"seq":"54","testcd":"MADRS10","test":"Suicidal Thoughts","cat":"MADRS","scat":null,"orres":"5","stresc":"5","stresn":"5.0","dtc":"2024-03-06","dy":"29","visit":"WEEK 4","visitnum":"5.0"},{"seq":"55","testcd":"MADRSTOT","test":"MADRS Total Score","cat":"MADRS","scat":"TOTAL","orres":"29.0","stresc":"29.0","stresn":"29.0","dtc":"2024-03-06","dy":"29","visit":"WEEK 4","visitnum":"5.0"},{"seq":"56","testcd":"MADRS01","test":"Apparent Sadness","cat":"MADRS","scat":null,"orres":"4","stresc":"4","stresn":"4.0","dtc":"2024-03-13","dy":"36","visit":"WEEK 5","visitnum":"6.0"},{"seq":"57","testcd":"MADRS02","test":"Reported Sadness","cat":"MADRS","scat":null,"orres":"2","stresc":"2","stresn":"2.0","dtc":"2024-03-13","dy":"36","visit":"WEEK 5","visitnum":"6.0"},{"seq":"58","testcd":"MADRS03","test":"Inner Tension","cat":"MADRS","scat":null,"orres":"4","stresc":"4","stresn":"4.0","dtc":"2024-03-13","dy":"36","visit":"WEEK 5","visitnum":"6.0"},{"seq":"59","testcd":"MADRS04","test":"Reduced Sleep","cat":"MADRS","scat":null,"orres":"3","stresc":"3","stresn":"3.0","dtc":"2024-03-13","dy":"36","visit":"WEEK 5","visitnum":"6.0"},{"seq":"60","testcd":"MADRS05","test":"Reduced Appetite","cat":"MADRS","scat":null,"orres":"3","stresc":"3","stresn":"3.0","dtc":"2024-03-13","dy":"36","visit":"WEEK 5","visitnum":"6.0"},{"seq":"61","testcd":"MADRS06","test":"Concentration Difficulties","cat":"MADRS","scat":null,"orres":"2","stresc":"2","stresn":"2.0","dtc":"2024-03-13","dy":"36","visit":"WEEK 5","visitnum":"6.0"},{"seq":"62","testcd":"MADRS07","test":"Lassitude","cat":"MADRS","scat":null,"orres":"4","stresc":"4","stresn":"4.0","dtc":"2024-03-13","dy":"36","visit":"WEEK 5","visitnum":"6.0"},{"seq":"63","testcd":"MADRS08","test":"Inability to Feel","cat":"MADRS","scat":null,"orres":"3","stresc":"3","stresn":"3.0","dtc":"2024-03-13","dy":"36","visit":"WEEK 5","visitnum":"6.0"},{"seq":"64","testcd":"MADRS09","test":"Pessimistic Thoughts","cat":"MADRS","scat":null,"orres":"3","stresc":"3","stresn":"3.0","dtc":"2024-03-13","dy":"36","visit":"WEEK 5","visitnum":"6.0"},{"seq":"65","testcd":"MADRS10","test":"Suicidal Thoughts","cat":"MADRS","scat":null,"orres":"3","stresc":"3","stresn":"3.0","dtc":"2024-03-13","dy":"36","visit":"WEEK 5","visitnum":"6.0"},{"seq":"66","testcd":"MADRSTOT","test":"MADRS Total Score","cat":"MADRS","scat":"TOTAL","orres":"31.0","stresc":"31.0","stresn":"31.0","dtc":"2024-03-13","dy":"36","visit":"WEEK 5","visitnum":"6.0"},{"seq":"67","testcd":"MADRS01","test":"Apparent Sadness","cat":"MADRS","scat":null,"orres":"1","stresc":"1","stresn":"1.0","dtc":"2024-03-20","dy":"43","visit":"WEEK 6","visitnum":"7.0"},{"seq":"68","testcd":"MADRS02","test":"Reported Sadness","cat":"MADRS","scat":null,"orres":"2","stresc":"2","stresn":"2.0","dtc":"2024-03-20","dy":"43","visit":"WEEK 6","visitnum":"7.0"},{"seq":"69","testcd":"MADRS03","test":"Inner Tension","cat":"MADRS","scat":null,"orres":"3","stresc":"3","stresn":"3.0","dtc":"2024-03-20","dy":"43","visit":"WEEK 6","visitnum":"7.0"},{"seq":"70","testcd":"MADRS04","test":"Reduced Sleep","cat":"MADRS","scat":null,"orres":"4","stresc":"4","stresn":"4.0","dtc":"2024-03-20","dy":"43","visit":"WEEK 6","visitnum":"7.0"},{"seq":"71","testcd":"MADRS05","test":"Reduced Appetite","cat":"MADRS","scat":null,"orres":"4","stresc":"4","stresn":"4.0","dtc":"2024-03-20","dy":"43","visit":"WEEK 6","visitnum":"7.0"},{"seq":"72","testcd":"MADRS06","test":"Concentration Difficulties","cat":"MADRS","scat":null,"orres":"5","stresc":"5","stresn":"5.0","dtc":"2024-03-20","dy":"43","visit":"WEEK 6","visitnum":"7.0"},{"seq":"73","testcd":"MADRS07","test":"Lassitude","cat":"MADRS","scat":null,"orres":"3","stresc":"3","stresn":"3.0","dtc":"2024-03-20","dy":"43","visit":"WEEK 6","visitnum":"7.0"},{"seq":"74","testcd":"MADRS08","test":"Inability to Feel","cat":"MADRS","scat":null,"orres":"3","stresc":"3","stresn":"3.0","dtc":"2024-03-20","dy":"43","visit":"WEEK 6","visitnum":"7.0"},{"seq":"75","testcd":"MADRS09","test":"Pessimistic Thoughts","cat":"MADRS","scat":null,"orres":"3","stresc":"3","stresn":"3.0","dtc":"2024-03-20","dy":"43","visit":"WEEK 6","visitnum":"7.0"},{"seq":"76","testcd":"MADRS10","test":"Suicidal Thoughts","cat":"MADRS","scat":null,"orres":"2","stresc":"2","stresn":"2.0","dtc":"2024-03-20","dy":"43","visit":"WEEK 6","visitnum":"7.0"},{"seq":"77","testcd":"MADRSTOT","test":"MADRS Total Score","cat":"MADRS","scat":"TOTAL","orres":"30.0","stresc":"30.0","stresn":"30.0","dtc":"2024-03-20","dy":"43","visit":"WEEK 6","visitnum":"7.0"},{"seq":"78","testcd":"MADRS01","test":"Apparent Sadness","cat":"MADRS","scat":null,"orres":"3","stresc":"3","stresn":"3.0","dtc":"2024-03-27","dy":"50","visit":"WEEK 7","visitnum":"8.0"},{"seq":"79","testcd":"MADRS02","test":"Reported Sadness","cat":"MADRS","scat":null,"orres":"1","stresc":"1","stresn":"1.0","dtc":"2024-03-27","dy":"50","visit":"WEEK 7","visitnum":"8.0"},{"seq":"80","testcd":"MADRS03","test":"Inner Tension","cat":"MADRS","scat":null,"orres":"3","stresc":"3","stresn":"3.0","dtc":"2024-03-27","dy":"50","visit":"WEEK 7","visitnum":"8.0"},{"seq":"81","testcd":"MADRS04","test":"Reduced Sleep","cat":"MADRS","scat":null,"orres":"2","stresc":"2","stresn":"2.0","dtc":"2024-03-27","dy":"50","visit":"WEEK 7","visitnum":"8.0"},{"seq":"82","testcd":"MADRS05","test":"Reduced Appetite","cat":"MADRS","scat":null,"orres":"3","stresc":"3","stresn":"3.0","dtc":"2024-03-27","dy":"50","visit":"WEEK 7","visitnum":"8.0"},{"seq":"83","testcd":"MADRS06","test":"Concentration Difficulties","cat":"MADRS","scat":null,"orres":"3","stresc":"3","stresn":"3.0","dtc":"2024-03-27","dy":"50","visit":"WEEK 7","visitnum":"8.0"},{"seq":"84","testcd":"MADRS07","test":"Lassitude","cat":"MADRS","scat":null,"orres":"2","stresc":"2","stresn":"2.0","dtc":"2024-03-27","dy":"50","visit":"WEEK 7","visitnum":"8.0"},{"seq":"85","testcd":"MADRS08","test":"Inability to Feel","cat":"MADRS","scat":null,"orres":"1","stresc":"1","stresn":"1.0","dtc":"2024-03-27","dy":"50","visit":"WEEK 7","visitnum":"8.0"},{"seq":"86","testcd":"MADRS09","test":"Pessimistic Thoughts","cat":"MADRS","scat":null,"orres":"0","stresc":"0","stresn":"0.0","dtc":"2024-03-27","dy":"50","visit":"WEEK 7","visitnum":"8.0"},{"seq":"87","testcd":"MADRS10","test":"Suicidal Thoughts","cat":"MADRS","scat":null,"orres":"3","stresc":"3","stresn":"3.0","dtc":"2024-03-27","dy":"50","visit":"WEEK 7","visitnum":"8.0"},{"seq":"88","testcd":"MADRSTOT","test":"MADRS Total Score","cat":"MADRS","scat":"TOTAL","orres":"21.0","stresc":"21.0","stresn":"21.0","dtc":"2024-03-27","dy":"50","visit":"WEEK 7","visitnum":"8.0"},{"seq":"89","testcd":"MADRS01","test":"Apparent Sadness","cat":"MADRS","scat":null,"orres":"1","stresc":"1","stresn":"1.0","dtc":"2024-04-03","dy":"57","visit":"WEEK 8 EOT","visitnum":"9.0"},{"seq":"90","testcd":"MADRS02","test":"Reported Sadness","cat":"MADRS","scat":null,"orres":"3","stresc":"3","stresn":"3.0","dtc":"2024-04-03","dy":"57","visit":"WEEK 8 EOT","visitnum":"9.0"},{"seq":"91","testcd":"MADRS03","test":"Inner Tension","cat":"MADRS","scat":null,"orres":"3","stresc":"3","stresn":"3.0","dtc":"2024-04-03","dy":"57","visit":"WEEK 8 EOT","visitnum":"9.0"},{"seq":"92","testcd":"MADRS04","test":"Reduced Sleep","cat":"MADRS","scat":null,"orres":"1","stresc":"1","stresn":"1.0","dtc":"2024-04-03","dy":"57","visit":"WEEK 8 EOT","visitnum":"9.0"},{"seq":"93","testcd":"MADRS05","test":"Reduced Appetite","cat":"MADRS","scat":null,"orres":"2","stresc":"2","stresn":"2.0","dtc":"2024-04-03","dy":"57","visit":"WEEK 8 EOT","visitnum":"9.0"},{"seq":"94","testcd":"MADRS06","test":"Concentration Difficulties","cat":"MADRS","scat":null,"orres":"3","stresc":"3","stresn":"3.0","dtc":"2024-04-03","dy":"57","visit":"WEEK 8 EOT","visitnum":"9.0"},{"seq":"95","testcd":"MADRS07","test":"Lassitude","cat":"MADRS","scat":null,"orres":"3","stresc":"3","stresn":"3.0","dtc":"2024-04-03","dy":"57","visit":"WEEK 8 EOT","visitnum":"9.0"},{"seq":"96","testcd":"MADRS08","test":"Inability to Feel","cat":"MADRS","scat":null,"orres":"3","stresc":"3","stresn":"3.0","dtc":"2024-04-03","dy":"57","visit":"WEEK 8 EOT","visitnum":"9.0"},{"seq":"97","testcd":"MADRS09","test":"Pessimistic Thoughts","cat":"MADRS","scat":null,"orres":"4","stresc":"4","stresn":"4.0","dtc":"2024-04-03","dy":"57","visit":"WEEK 8 EOT","visitnum":"9.0"},{"seq":"98","testcd":"MADRS10","test":"Suicidal Thoughts","cat":"MADRS","scat":null,"orres":"2","stresc":"2","stresn":"2.0","dtc":"2024-04-03","dy":"57","visit":"WEEK 8 EOT","visitnum":"9.0"},{"seq":"99","testcd":"MADRSTOT","test":"MADRS Total Score","cat":"MADRS","scat":"TOTAL","orres":"25.0","stresc":"25.0","stresn":"25.0","dtc":"2024-04-03","dy":"57","visit":"WEEK 8 EOT","visitnum":"9.0"}],"findings_about":[]},"section_11_protocol_deviations":{"deviations":[{"seq":"1","term":"Vital signs assessment not performed at SAFETY FU WEEK 4","decod":"MISSED ASSESSMENT","cat":"MINOR","scat":"ASSESSMENT","start_dtc":"2024-04-24","end_dtc":null,"visit":null}],"total":1},"section_12_disposition":{"completion_status":"COMPLETED","disposition_records":[{"seq":"1","term":"INFORMED CONSENT OBTAINED","decod":"INFORMED CONSENT OBTAINED","cat":"PROTOCOL MILESTONE","scat":null,"dtc":"2024-01-21","dy":null,"visit":null,"epoch":"SCREENING"},{"seq":"2","term":"RANDOMIZED","decod":"RANDOMIZED","cat":"PROTOCOL MILESTONE","scat":null,"dtc":"2024-02-07","dy":null,"visit":null,"epoch":"TREATMENT"},{"seq":"3","term":"COMPLETED","decod":"COMPLETED","cat":"DISPOSITION EVENT","scat":null,"dtc":"2024-06-25","dy":null,"visit":null,"epoch":"FOLLOW-UP"}],"death":null},"section_13_hospitalizations":{"items":[],"total":0},"section_14_substance_use":{"items":[{"seq":"1","substance":"BEER/WINE/SPIRITS","decod":"ETHANOL","cat":"ALCOHOL","scat":null,"usage":"Y","dose":null,"dosu":null,"freq":null,"start_dtc":"2019-01-22","end_dtc":"2022-01-21"},{"seq":"2","substance":"COFFEE","decod":"COFFEE","cat":"CAFFEINE","scat":null,"usage":"Y","dose":"5.0","dosu":"CUPS/DAY","freq":"QD","start_dtc":"2002-01-26","end_dtc":null},{"seq":"3","substance":"CIGARETTES","decod":"CIGARETTES","cat":"TOBACCO","scat":null,"usage":"N","dose":null,"dosu":null,"freq":null,"start_dtc":null,"end_dtc":null}],"total":3},"section_15_subject_status":{"items":[{"seq":"1","testcd":"SURVSTAT","test":"Survival Status","orres":"ALIVE","stresc":"ALIVE","dtc":"2024-06-25","visit":null,"epoch":"FOLLOW-UP"}],"total":1}}