{"subject_id":"NBI-1065846-MDD2020-TERPSIS-USA_SITE07-0019","study_id":"NBI-1065846-MDD2020-TERPSIS","generated_at":"2026-07-07T05:41:08.976846+00:00","sdtmig_version":"3.4","flags":{"has_serious_ae":false,"has_fatal_ae":false,"has_protocol_deviation":true,"n_protocol_deviations":3,"n_adverse_events":4,"n_concomitant_meds":1,"max_ae_severity":"MILD","screen_failure":false,"discontinued_early":false,"discontinuation_reason":null,"death":false,"exposure_days":49},"timeline":[{"dtc":"2024-03-07","dy":"-55","event":"VISIT: SCREENING","domain":"SV","category":"visit"},{"dtc":"2024-04-07","dy":"-24","event":"INFORMED CONSENT OBTAINED","domain":"DS","category":"milestone"},{"dtc":"2024-05-01","dy":"1","event":"RANDOMIZED","domain":"DS","category":"milestone"},{"dtc":"2024-05-01","dy":"1","event":"FIRST DOSE: PLACEBO","domain":"EX","category":"exposure"},{"dtc":"2024-05-01","dy":"1","event":"VISIT: DAY 1 LOADING","domain":"SV","category":"visit"},{"dtc":"2024-05-17","dy":"17","event":"VISIT: WEEK 2","domain":"SV","category":"visit"},{"dtc":"2024-05-18","dy":"18","event":"AE: Nausea (MILD)","domain":"AE","category":"adverse_event"},{"dtc":"2024-05-20","dy":"20","event":"DEVIATION: VISIT OCCURRED OUTSIDE VISIT WINDOW","domain":"DV","category":"deviation"},{"dtc":"2024-05-20","dy":"20","event":"VISIT: WEEK 3","domain":"SV","category":"visit"},{"dtc":"2024-05-21","dy":"21","event":"AE: Diarrhoea (MILD)","domain":"AE","category":"adverse_event"},{"dtc":"2024-05-30","dy":"30","event":"VISIT: WEEK 4","domain":"SV","category":"visit"},{"dtc":"2024-06-07","dy":"38","event":"AE: Fatigue (MILD)","domain":"AE","category":"adverse_event"},{"dtc":"2024-06-07","dy":"38","event":"VISIT: WEEK 5","domain":"SV","category":"visit"},{"dtc":"2024-06-11","dy":"42","event":"DEVIATION: VISIT OCCURRED OUTSIDE VISIT WINDOW","domain":"DV","category":"deviation"},{"dtc":"2024-06-11","dy":"42","event":"VISIT: WEEK 6","domain":"SV","category":"visit"},{"dtc":"2024-06-12","dy":"43","event":"AE: Suicidal ideation (MILD)","domain":"AE","category":"adverse_event"},{"dtc":"2024-06-19","dy":"50","event":"LAST DOSE: PLACEBO","domain":"EX","category":"exposure"},{"dtc":"2024-06-19","dy":"50","event":"DEVIATION: VISIT OCCURRED OUTSIDE VISIT WINDOW","domain":"DV","category":"deviation"},{"dtc":"2024-06-19","dy":"50","event":"VISIT: WEEK 7","domain":"SV","category":"visit"},{"dtc":"2024-06-27","dy":"58","event":"VISIT: WEEK 8 EOT","domain":"SV","category":"visit"},{"dtc":"2024-07-18","dy":"79","event":"VISIT: SAFETY FU WEEK 4","domain":"SV","category":"visit"},{"dtc":"2024-07-29","dy":"90","event":"CM START: PARACETAMOL","domain":"CM","category":"concomitant_med"},{"dtc":"2024-08-28","dy":"120","event":"VISIT: SAFETY FU WEEK 8","domain":"SV","category":"visit"},{"dtc":"2024-09-17","dy":"140","event":"COMPLETED","domain":"DS","category":"milestone"}],"section_1_demographics":{"usubjid":"NBI-1065846-MDD2020-TERPSIS-USA_SITE07-0019","subjid":"0019","siteid":"USA_SITE07","age":"27","ageu":"YEARS","sex":"F","race":"WHITE","ethnicity":"NOT HISPANIC OR LATINO","country":"USA","arm":"Matching placebo (4 tablets Day 1 loading, 2 tablets QW thereafter)","armcd":"PLACEBO","actarm":"Matching placebo (4 tablets Day 1 loading, 2 tablets QW thereafter)","actarmcd":"PLACEBO","randomization_date":null,"informed_consent_date":"2024-04-07","reference_start_date":"2024-05-01","reference_end_date":"2024-09-17","screen_failure":false,"death_flag":null,"death_date":null,"subject_characteristics":[{"testcd":"ALCUSE","test":"Alcohol Use","orres":"NON-DRINKER","stresc":"NON-DRINKER","visit":null,"dtc":"2024-04-07"},{"testcd":"BMI","test":"Body Mass Index","orres":"25.4","stresc":"25.4","visit":null,"dtc":"2024-04-07"},{"testcd":"DURDIS","test":"Duration of Disease","orres":"194 months","stresc":"194","visit":null,"dtc":"2024-04-07"},{"testcd":"TOBPKYR","test":"Tobacco Pack-Years","orres":"9","stresc":"9","visit":null,"dtc":"2024-04-07"},{"testcd":"TOBUSE","test":"Tobacco Use","orres":"CURRENT SMOKER","stresc":"CURRENT SMOKER","visit":null,"dtc":"2024-04-07"}]},"section_2_medical_history":{"items":[{"seq":"1","term":"ANXIETY","decod":"ANXIETY","cat":"PSYCHIATRIC","scat":null,"presp":null,"occur":null,"status":null,"onset_dtc":"2016-04-09","end_dtc":"2022-05-25","visit":null},{"seq":"2","term":"INSOMNIA","decod":"INSOMNIA","cat":"PSYCHIATRIC","scat":null,"presp":null,"occur":null,"status":null,"onset_dtc":"2019-04-09","end_dtc":"2023-01-31","visit":null},{"seq":"3","term":"MAJOR DEPRESSIVE DISORDER","decod":"MAJOR DEPRESSIVE DISORDER","cat":"PSYCHIATRIC","scat":null,"presp":null,"occur":null,"status":null,"onset_dtc":"2008-04-11","end_dtc":"2023-03-20","visit":null}]},"section_3_inclusion_exclusion":{"criteria":[]},"section_4_trial_participation":{"visits":[{"visitnum":"1.0","visit":"SCREENING","start_dtc":"2024-03-07","end_dtc":"2024-03-07","updes":null},{"visitnum":"2.0","visit":"DAY 1 LOADING","start_dtc":"2024-05-01","end_dtc":"2024-05-01","updes":null},{"visitnum":"3.0","visit":"WEEK 2","start_dtc":"2024-05-17","end_dtc":"2024-05-17","updes":null},{"visitnum":"4.0","visit":"WEEK 3","start_dtc":"2024-05-20","end_dtc":"2024-05-20","updes":null},{"visitnum":"5.0","visit":"WEEK 4","start_dtc":"2024-05-30","end_dtc":"2024-05-30","updes":null},{"visitnum":"6.0","visit":"WEEK 5","start_dtc":"2024-06-07","end_dtc":"2024-06-07","updes":null},{"visitnum":"7.0","visit":"WEEK 6","start_dtc":"2024-06-11","end_dtc":"2024-06-11","updes":null},{"visitnum":"8.0","visit":"WEEK 7","start_dtc":"2024-06-19","end_dtc":"2024-06-19","updes":null},{"visitnum":"9.0","visit":"WEEK 8 EOT","start_dtc":"2024-06-27","end_dtc":"2024-06-27","updes":null},{"visitnum":"10.0","visit":"SAFETY FU WEEK 4","start_dtc":"2024-07-18","end_dtc":"2024-07-18","updes":null},{"visitnum":"11.0","visit":"SAFETY FU WEEK 8","start_dtc":"2024-08-28","end_dtc":"2024-08-28","updes":null}],"epochs":[{"seq":"1","etcd":"SCRN","element":"Screening","start_dtc":"2024-04-03","end_dtc":"2024-05-01","updes":null},{"seq":"2","etcd":"TRT","element":"Treatment","start_dtc":"2024-05-01","end_dtc":"2024-06-26","updes":null},{"seq":"3","etcd":"FU","element":"Safety follow-up","start_dtc":"2024-06-26","end_dtc":"2024-08-20","updes":null}],"visit_count":11},"section_5_concomitant_medications":{"medications":[{"seq":"1","trt":"PARACETAMOL","decod":"PARACETAMOL","cat":"CONCOMITANT","dose":null,"doseu":null,"dosef":"PRN","route":"ORAL","indication":null,"start_dtc":"2024-07-29","end_dtc":"2024-09-17","ongoing":null,"visit":null}]},"section_6_exposure":{"exposure_as_administered":[{"seq":"1","trt":"PLACEBO","dose":"0.0","doseu":null,"dosef":"ONCE","route":"ORAL","lot":null,"start_dtc":"2024-05-01","end_dtc":"2024-05-01","start_dy":"1","end_dy":"1","epoch":"TREATMENT","visit":null},{"seq":"2","trt":"PLACEBO","dose":"0.0","doseu":null,"dosef":"QW","route":"ORAL","lot":null,"start_dtc":"2024-05-08","end_dtc":"2024-05-08","start_dy":"8","end_dy":"8","epoch":"TREATMENT","visit":null},{"seq":"3","trt":"PLACEBO","dose":"0.0","doseu":null,"dosef":"QW","route":"ORAL","lot":null,"start_dtc":"2024-05-15","end_dtc":"2024-05-15","start_dy":"15","end_dy":"15","epoch":"TREATMENT","visit":null},{"seq":"4","trt":"PLACEBO","dose":"0.0","doseu":null,"dosef":"QW","route":"ORAL","lot":null,"start_dtc":"2024-05-22","end_dtc":"2024-05-22","start_dy":"22","end_dy":"22","epoch":"TREATMENT","visit":null},{"seq":"5","trt":"PLACEBO","dose":"0.0","doseu":null,"dosef":"QW","route":"ORAL","lot":null,"start_dtc":"2024-05-29","end_dtc":"2024-05-29","start_dy":"29","end_dy":"29","epoch":"TREATMENT","visit":null},{"seq":"6","trt":"PLACEBO","dose":"0.0","doseu":null,"dosef":"QW","route":"ORAL","lot":null,"start_dtc":"2024-06-05","end_dtc":"2024-06-05","start_dy":"36","end_dy":"36","epoch":"TREATMENT","visit":null},{"seq":"7","trt":"PLACEBO","dose":"0.0","doseu":null,"dosef":"QW","route":"ORAL","lot":null,"start_dtc":"2024-06-12","end_dtc":"2024-06-12","start_dy":"43","end_dy":"43","epoch":"TREATMENT","visit":null},{"seq":"8","trt":"PLACEBO","dose":"0.0","doseu":null,"dosef":"QW","route":"ORAL","lot":null,"start_dtc":"2024-06-19","end_dtc":"2024-06-19","start_dy":"50","end_dy":"50","epoch":"TREATMENT","visit":null}],"exposure_as_collected":[{"seq":"1","trt":"PLACEBO","dose":null,"doseu":null,"dosef":"ONCE","route":"ORAL","start_dtc":"2024-05-01","end_dtc":"2024-05-01","visit":"DAY 1 LOADING"},{"seq":"2","trt":"PLACEBO","dose":null,"doseu":null,"dosef":"QW","route":"ORAL","start_dtc":"2024-05-08","end_dtc":"2024-05-08","visit":null},{"seq":"3","trt":"PLACEBO","dose":null,"doseu":null,"dosef":"QW","route":"ORAL","start_dtc":"2024-05-15","end_dtc":"2024-05-15","visit":"WEEK 2"},{"seq":"4","trt":"PLACEBO","dose":null,"doseu":null,"dosef":"QW","route":"ORAL","start_dtc":"2024-05-22","end_dtc":"2024-05-22","visit":"WEEK 3"},{"seq":"5","trt":"PLACEBO","dose":null,"doseu":null,"dosef":"QW","route":"ORAL","start_dtc":"2024-05-29","end_dtc":"2024-05-29","visit":"WEEK 4"},{"seq":"6","trt":"PLACEBO","dose":null,"doseu":null,"dosef":"QW","route":"ORAL","start_dtc":"2024-06-05","end_dtc":"2024-06-05","visit":"WEEK 5"},{"seq":"7","trt":"PLACEBO","dose":null,"doseu":null,"dosef":"QW","route":"ORAL","start_dtc":"2024-06-12","end_dtc":"2024-06-12","visit":"WEEK 6"},{"seq":"8","trt":"PLACEBO","dose":null,"doseu":null,"dosef":"QW","route":"ORAL","start_dtc":"2024-06-19","end_dtc":"2024-06-19","visit":"WEEK 7"}]},"section_7_adverse_events":{"summary":{"total_aes":4,"serious_aes":0,"fatal_aes":0,"by_severity":{"MILD":4},"by_soc":{"Gastrointestinal disorders":2,"General disorders and administration site conditions":1,"Psychiatric disorders":1}},"events":[{"seq":"1","term":"NAUSEA","decod":"Nausea","llt":"Nausea","hlt":"Nausea and vomiting symptoms","hlgt":"Gastrointestinal signs and symptoms","soc":"Gastrointestinal disorders","bodsys":"Gastrointestinal disorders","severity":"MILD","serious":"N","causality":"NOT RELATED","action_taken":"DOSE NOT CHANGED","outcome":"RECOVERING/RESOLVING","fatal":"N","hospitalization":"N","life_threatening":"N","onset_dtc":"2024-05-18","end_dtc":"2024-05-21","onset_dy":"18","end_dy":"21","duration":null,"epoch":"TREATMENT","visit":null,"supplemental":{"AETRTEM":"Y"}},{"seq":"2","term":"DIARRHOEA","decod":"Diarrhoea","llt":"Diarrhoea","hlt":"Diarrhoea (excl infective)","hlgt":"Gastrointestinal motility and defaecation conditions","soc":"Gastrointestinal disorders","bodsys":"Gastrointestinal disorders","severity":"MILD","serious":"N","causality":"NOT RELATED","action_taken":"DOSE NOT CHANGED","outcome":"RECOVERED/RESOLVED","fatal":"N","hospitalization":"N","life_threatening":"N","onset_dtc":"2024-05-21","end_dtc":"2024-05-24","onset_dy":"21","end_dy":"24","duration":null,"epoch":"TREATMENT","visit":null,"supplemental":{"AETRTEM":"Y"}},{"seq":"3","term":"FATIGUE","decod":"Fatigue","llt":"Fatigue","hlt":"Asthenic conditions","hlgt":"General system disorders NEC","soc":"General disorders and administration site conditions","bodsys":"General disorders and administration site conditions","severity":"MILD","serious":"N","causality":"NOT RELATED","action_taken":"DOSE NOT CHANGED","outcome":"RECOVERED/RESOLVED","fatal":"N","hospitalization":"N","life_threatening":"N","onset_dtc":"2024-06-07","end_dtc":"2024-06-14","onset_dy":"38","end_dy":"45","duration":null,"epoch":"TREATMENT","visit":null,"supplemental":{"AETRTEM":"Y"}},{"seq":"4","term":"SUICIDAL IDEATION","decod":"Suicidal ideation","llt":"Suicidal ideation","hlt":"Suicidal and self-injurious behaviour NEC","hlgt":"Self-injurious behaviours","soc":"Psychiatric disorders","bodsys":"Psychiatric disorders","severity":"MILD","serious":"N","causality":"NOT RELATED","action_taken":"DOSE NOT CHANGED","outcome":"RECOVERING/RESOLVING","fatal":"N","hospitalization":"N","life_threatening":"N","onset_dtc":"2024-06-12","end_dtc":"2024-06-20","onset_dy":"43","end_dy":"51","duration":null,"epoch":"TREATMENT","visit":null,"supplemental":{"AETRTEM":"Y"}}]},"section_8_laboratory_results":{"summary":{"total_records":77,"abnormal_count":9,"abnormal_pct":11.7},"shift_summary":[{"testcd":"ALT","baseline_value":5.0,"baseline_nrind":"LOW","worst_post_baseline_value":8.31,"worst_post_baseline_nrind":"NORMAL","worst_visit":"WEEK 3"},{"testcd":"AST","baseline_value":16.58,"baseline_nrind":"NORMAL","worst_post_baseline_value":16.58,"worst_post_baseline_nrind":"NORMAL","worst_visit":"DAY 1 LOADING"},{"testcd":"CREAT","baseline_value":43.11,"baseline_nrind":"LOW","worst_post_baseline_value":49.07,"worst_post_baseline_nrind":"NORMAL","worst_visit":"WEEK 3"},{"testcd":"GLUC","baseline_value":5.26,"baseline_nrind":"NORMAL","worst_post_baseline_value":5.44,"worst_post_baseline_nrind":"NORMAL","worst_visit":"WEEK 4"},{"testcd":"HGB","baseline_value":125.0,"baseline_nrind":"NORMAL","worst_post_baseline_value":123.29,"worst_post_baseline_nrind":"NORMAL","worst_visit":"WEEK 6"},{"testcd":"PLAT","baseline_value":168.81,"baseline_nrind":"NORMAL","worst_post_baseline_value":186.71,"worst_post_baseline_nrind":"NORMAL","worst_visit":"SAFETY FU WEEK 8"},{"testcd":"WBC","baseline_value":7.24,"baseline_nrind":"NORMAL","worst_post_baseline_value":7.65,"worst_post_baseline_nrind":"NORMAL","worst_visit":"SAFETY FU WEEK 4"}],"results":[{"seq":"1","testcd":"ALT","test":"Alanine Aminotransferase","cat":"CHEMISTRY","orres":"5.0","orresu":"U/L","stresc":"5.0","stresn":"5.0","stresu":"U/L","stnrlo":"7","stnrhi":"56","nrind":"LOW","fast":null,"dtc":"2024-03-07","dy":"-55","visit":"SCREENING","visitnum":"1.0","epoch":"SCREENING","spec":null,"method":null},{"seq":"2","testcd":"AST","test":"Aspartate Aminotransferase","cat":"CHEMISTRY","orres":null,"orresu":null,"stresc":null,"stresn":null,"stresu":null,"stnrlo":null,"stnrhi":null,"nrind":null,"fast":null,"dtc":"2024-03-07","dy":"-55","visit":"SCREENING","visitnum":"1.0","epoch":"SCREENING","spec":null,"method":null},{"seq":"3","testcd":"CREAT","test":"Creatinine","cat":"CHEMISTRY","orres":"43.11","orresu":"umol/L","stresc":"43.11","stresn":"43.11","stresu":"umol/L","stnrlo":"44","stnrhi":"80","nrind":"LOW","fast":null,"dtc":"2024-03-07","dy":"-55","visit":"SCREENING","visitnum":"1.0","epoch":"SCREENING","spec":null,"method":null},{"seq":"4","testcd":"GLUC","test":"Glucose","cat":"CHEMISTRY","orres":"5.26","orresu":"mmol/L","stresc":"5.26","stresn":"5.26","stresu":"mmol/L","stnrlo":"3.9","stnrhi":"5.6","nrind":"NORMAL","fast":null,"dtc":"2024-03-07","dy":"-55","visit":"SCREENING","visitnum":"1.0","epoch":"SCREENING","spec":null,"method":null},{"seq":"5","testcd":"HGB","test":"Hemoglobin","cat":"HEMATOLOGY","orres":"125.0","orresu":"g/L","stresc":"125.0","stresn":"125.0","stresu":"g/L","stnrlo":"120","stnrhi":"155","nrind":"NORMAL","fast":null,"dtc":"2024-03-07","dy":"-55","visit":"SCREENING","visitnum":"1.0","epoch":"SCREENING","spec":null,"method":null},{"seq":"6","testcd":"PLAT","test":"Platelets","cat":"HEMATOLOGY","orres":"168.81","orresu":"10^9/L","stresc":"168.81","stresn":"168.81","stresu":"10^9/L","stnrlo":"150","stnrhi":"400","nrind":"NORMAL","fast":null,"dtc":"2024-03-07","dy":"-55","visit":"SCREENING","visitnum":"1.0","epoch":"SCREENING","spec":null,"method":null},{"seq":"7","testcd":"WBC","test":"Leukocytes","cat":"HEMATOLOGY","orres":"7.24","orresu":"10^9/L","stresc":"7.24","stresn":"7.24","stresu":"10^9/L","stnrlo":"4.0","stnrhi":"11.0","nrind":"NORMAL","fast":null,"dtc":"2024-03-07","dy":"-55","visit":"SCREENING","visitnum":"1.0","epoch":"SCREENING","spec":null,"method":null},{"seq":"8","testcd":"ALT","test":"Alanine Aminotransferase","cat":"CHEMISTRY","orres":"7.03","orresu":"U/L","stresc":"7.03","stresn":"7.03","stresu":"U/L","stnrlo":"7","stnrhi":"56","nrind":"NORMAL","fast":null,"dtc":"2024-05-01","dy":"1","visit":"DAY 1 LOADING","visitnum":"2.0","epoch":"TREATMENT","spec":null,"method":null},{"seq":"9","testcd":"AST","test":"Aspartate Aminotransferase","cat":"CHEMISTRY","orres":"16.58","orresu":"U/L","stresc":"16.58","stresn":"16.58","stresu":"U/L","stnrlo":"10","stnrhi":"40","nrind":"NORMAL","fast":null,"dtc":"2024-05-01","dy":"1","visit":"DAY 1 LOADING","visitnum":"2.0","epoch":"TREATMENT","spec":null,"method":null},{"seq":"10","testcd":"CREAT","test":"Creatinine","cat":"CHEMISTRY","orres":"45.53","orresu":"umol/L","stresc":"45.53","stresn":"45.53","stresu":"umol/L","stnrlo":"44","stnrhi":"80","nrind":"NORMAL","fast":null,"dtc":"2024-05-01","dy":"1","visit":"DAY 1 LOADING","visitnum":"2.0","epoch":"TREATMENT","spec":null,"method":null},{"seq":"11","testcd":"GLUC","test":"Glucose","cat":"CHEMISTRY","orres":"5.09","orresu":"mmol/L","stresc":"5.09","stresn":"5.09","stresu":"mmol/L","stnrlo":"3.9","stnrhi":"5.6","nrind":"NORMAL","fast":null,"dtc":"2024-05-01","dy":"1","visit":"DAY 1 LOADING","visitnum":"2.0","epoch":"TREATMENT","spec":null,"method":null},{"seq":"12","testcd":"HGB","test":"Hemoglobin","cat":"HEMATOLOGY","orres":"126.26","orresu":"g/L","stresc":"126.26","stresn":"126.26","stresu":"g/L","stnrlo":"120","stnrhi":"155","nrind":"NORMAL","fast":null,"dtc":"2024-05-01","dy":"1","visit":"DAY 1 LOADING","visitnum":"2.0","epoch":"TREATMENT","spec":null,"method":null},{"seq":"13","testcd":"PLAT","test":"Platelets","cat":"HEMATOLOGY","orres":"162.44","orresu":"10^9/L","stresc":"162.44","stresn":"162.44","stresu":"10^9/L","stnrlo":"150","stnrhi":"400","nrind":"NORMAL","fast":null,"dtc":"2024-05-01","dy":"1","visit":"DAY 1 LOADING","visitnum":"2.0","epoch":"TREATMENT","spec":null,"method":null},{"seq":"14","testcd":"WBC","test":"Leukocytes","cat":"HEMATOLOGY","orres":"7.4","orresu":"10^9/L","stresc":"7.4","stresn":"7.4","stresu":"10^9/L","stnrlo":"4.0","stnrhi":"11.0","nrind":"NORMAL","fast":null,"dtc":"2024-05-01","dy":"1","visit":"DAY 1 LOADING","visitnum":"2.0","epoch":"TREATMENT","spec":null,"method":null},{"seq":"15","testcd":"ALT","test":"Alanine Aminotransferase","cat":"CHEMISTRY","orres":"7.36","orresu":"U/L","stresc":"7.36","stresn":"7.36","stresu":"U/L","stnrlo":"7","stnrhi":"56","nrind":"NORMAL","fast":null,"dtc":"2024-05-17","dy":"17","visit":"WEEK 2","visitnum":"3.0","epoch":"TREATMENT","spec":null,"method":null},{"seq":"16","testcd":"AST","test":"Aspartate Aminotransferase","cat":"CHEMISTRY","orres":"13.39","orresu":"U/L","stresc":"13.39","stresn":"13.39","stresu":"U/L","stnrlo":"10","stnrhi":"40","nrind":"NORMAL","fast":null,"dtc":"2024-05-17","dy":"17","visit":"WEEK 2","visitnum":"3.0","epoch":"TREATMENT","spec":null,"method":null},{"seq":"17","testcd":"CREAT","test":"Creatinine","cat":"CHEMISTRY","orres":"47.02","orresu":"umol/L","stresc":"47.02","stresn":"47.02","stresu":"umol/L","stnrlo":"44","stnrhi":"80","nrind":"NORMAL","fast":null,"dtc":"2024-05-17","dy":"17","visit":"WEEK 2","visitnum":"3.0","epoch":"TREATMENT","spec":null,"method":null},{"seq":"18","testcd":"GLUC","test":"Glucose","cat":"CHEMISTRY","orres":"5.25","orresu":"mmol/L","stresc":"5.25","stresn":"5.25","stresu":"mmol/L","stnrlo":"3.9","stnrhi":"5.6","nrind":"NORMAL","fast":null,"dtc":"2024-05-17","dy":"17","visit":"WEEK 2","visitnum":"3.0","epoch":"TREATMENT","spec":null,"method":null},{"seq":"19","testcd":"HGB","test":"Hemoglobin","cat":"HEMATOLOGY","orres":"125.57","orresu":"g/L","stresc":"125.57","stresn":"125.57","stresu":"g/L","stnrlo":"120","stnrhi":"155","nrind":"NORMAL","fast":null,"dtc":"2024-05-17","dy":"17","visit":"WEEK 2","visitnum":"3.0","epoch":"TREATMENT","spec":null,"method":null},{"seq":"20","testcd":"PLAT","test":"Platelets","cat":"HEMATOLOGY","orres":null,"orresu":null,"stresc":null,"stresn":null,"stresu":null,"stnrlo":null,"stnrhi":null,"nrind":null,"fast":null,"dtc":"2024-05-17","dy":"17","visit":"WEEK 2","visitnum":"3.0","epoch":"TREATMENT","spec":null,"method":null},{"seq":"21","testcd":"WBC","test":"Leukocytes","cat":"HEMATOLOGY","orres":"6.7","orresu":"10^9/L","stresc":"6.7","stresn":"6.7","stresu":"10^9/L","stnrlo":"4.0","stnrhi":"11.0","nrind":"NORMAL","fast":null,"dtc":"2024-05-17","dy":"17","visit":"WEEK 2","visitnum":"3.0","epoch":"TREATMENT","spec":null,"method":null},{"seq":"22","testcd":"ALT","test":"Alanine Aminotransferase","cat":"CHEMISTRY","orres":"8.31","orresu":"U/L","stresc":"8.31","stresn":"8.31","stresu":"U/L","stnrlo":"7","stnrhi":"56","nrind":"NORMAL","fast":null,"dtc":"2024-05-20","dy":"20","visit":"WEEK 3","visitnum":"4.0","epoch":"TREATMENT","spec":null,"method":null},{"seq":"23","testcd":"AST","test":"Aspartate Aminotransferase","cat":"CHEMISTRY","orres":"14.16","orresu":"U/L","stresc":"14.16","stresn":"14.16","stresu":"U/L","stnrlo":"10","stnrhi":"40","nrind":"NORMAL","fast":null,"dtc":"2024-05-20","dy":"20","visit":"WEEK 3","visitnum":"4.0","epoch":"TREATMENT","spec":null,"method":null},{"seq":"24","testcd":"CREAT","test":"Creatinine","cat":"CHEMISTRY","orres":"49.07","orresu":"umol/L","stresc":"49.07","stresn":"49.07","stresu":"umol/L","stnrlo":"44","stnrhi":"80","nrind":"NORMAL","fast":null,"dtc":"2024-05-20","dy":"20","visit":"WEEK 3","visitnum":"4.0","epoch":"TREATMENT","spec":null,"method":null},{"seq":"25","testcd":"GLUC","test":"Glucose","cat":"CHEMISTRY","orres":"5.28","orresu":"mmol/L","stresc":"5.28","stresn":"5.28","stresu":"mmol/L","stnrlo":"3.9","stnrhi":"5.6","nrind":"NORMAL","fast":null,"dtc":"2024-05-20","dy":"20","visit":"WEEK 3","visitnum":"4.0","epoch":"TREATMENT","spec":null,"method":null},{"seq":"26","testcd":"HGB","test":"Hemoglobin","cat":"HEMATOLOGY","orres":"125.25","orresu":"g/L","stresc":"125.25","stresn":"125.25","stresu":"g/L","stnrlo":"120","stnrhi":"155","nrind":"NORMAL","fast":null,"dtc":"2024-05-20","dy":"20","visit":"WEEK 3","visitnum":"4.0","epoch":"TREATMENT","spec":null,"method":null},{"seq":"27","testcd":"PLAT","test":"Platelets","cat":"HEMATOLOGY","orres":"172.56","orresu":"10^9/L","stresc":"172.56","stresn":"172.56","stresu":"10^9/L","stnrlo":"150","stnrhi":"400","nrind":"NORMAL","fast":null,"dtc":"2024-05-20","dy":"20","visit":"WEEK 3","visitnum":"4.0","epoch":"TREATMENT","spec":null,"method":null},{"seq":"28","testcd":"WBC","test":"Leukocytes","cat":"HEMATOLOGY","orres":"6.96","orresu":"10^9/L","stresc":"6.96","stresn":"6.96","stresu":"10^9/L","stnrlo":"4.0","stnrhi":"11.0","nrind":"NORMAL","fast":null,"dtc":"2024-05-20","dy":"20","visit":"WEEK 3","visitnum":"4.0","epoch":"TREATMENT","spec":null,"method":null},{"seq":"29","testcd":"ALT","test":"Alanine Aminotransferase","cat":"CHEMISTRY","orres":"6.87","orresu":"U/L","stresc":"6.87","stresn":"6.87","stresu":"U/L","stnrlo":"7","stnrhi":"56","nrind":"LOW","fast":null,"dtc":"2024-05-30","dy":"30","visit":"WEEK 4","visitnum":"5.0","epoch":"TREATMENT","spec":null,"method":null},{"seq":"30","testcd":"AST","test":"Aspartate Aminotransferase","cat":"CHEMISTRY","orres":"14.72","orresu":"U/L","stresc":"14.72","stresn":"14.72","stresu":"U/L","stnrlo":"10","stnrhi":"40","nrind":"NORMAL","fast":null,"dtc":"2024-05-30","dy":"30","visit":"WEEK 4","visitnum":"5.0","epoch":"TREATMENT","spec":null,"method":null},{"seq":"31","testcd":"CREAT","test":"Creatinine","cat":"CHEMISTRY","orres":"45.19","orresu":"umol/L","stresc":"45.19","stresn":"45.19","stresu":"umol/L","stnrlo":"44","stnrhi":"80","nrind":"NORMAL","fast":null,"dtc":"2024-05-30","dy":"30","visit":"WEEK 4","visitnum":"5.0","epoch":"TREATMENT","spec":null,"method":null},{"seq":"32","testcd":"GLUC","test":"Glucose","cat":"CHEMISTRY","orres":"5.44","orresu":"mmol/L","stresc":"5.44","stresn":"5.44","stresu":"mmol/L","stnrlo":"3.9","stnrhi":"5.6","nrind":"NORMAL","fast":null,"dtc":"2024-05-30","dy":"30","visit":"WEEK 4","visitnum":"5.0","epoch":"TREATMENT","spec":null,"method":null},{"seq":"33","testcd":"HGB","test":"Hemoglobin","cat":"HEMATOLOGY","orres":"124.04","orresu":"g/L","stresc":"124.04","stresn":"124.04","stresu":"g/L","stnrlo":"120","stnrhi":"155","nrind":"NORMAL","fast":null,"dtc":"2024-05-30","dy":"30","visit":"WEEK 4","visitnum":"5.0","epoch":"TREATMENT","spec":null,"method":null},{"seq":"34","testcd":"PLAT","test":"Platelets","cat":"HEMATOLOGY","orres":"176.6","orresu":"10^9/L","stresc":"176.6","stresn":"176.6","stresu":"10^9/L","stnrlo":"150","stnrhi":"400","nrind":"NORMAL","fast":null,"dtc":"2024-05-30","dy":"30","visit":"WEEK 4","visitnum":"5.0","epoch":"TREATMENT","spec":null,"method":null},{"seq":"35","testcd":"WBC","test":"Leukocytes","cat":"HEMATOLOGY","orres":"6.84","orresu":"10^9/L","stresc":"6.84","stresn":"6.84","stresu":"10^9/L","stnrlo":"4.0","stnrhi":"11.0","nrind":"NORMAL","fast":null,"dtc":"2024-05-30","dy":"30","visit":"WEEK 4","visitnum":"5.0","epoch":"TREATMENT","spec":null,"method":null},{"seq":"36","testcd":"ALT","test":"Alanine Aminotransferase","cat":"CHEMISTRY","orres":"7.17","orresu":"U/L","stresc":"7.17","stresn":"7.17","stresu":"U/L","stnrlo":"7","stnrhi":"56","nrind":"NORMAL","fast":null,"dtc":"2024-06-07","dy":"38","visit":"WEEK 5","visitnum":"6.0","epoch":"TREATMENT","spec":null,"method":null},{"seq":"37","testcd":"AST","test":"Aspartate Aminotransferase","cat":"CHEMISTRY","orres":"14.56","orresu":"U/L","stresc":"14.56","stresn":"14.56","stresu":"U/L","stnrlo":"10","stnrhi":"40","nrind":"NORMAL","fast":null,"dtc":"2024-06-07","dy":"38","visit":"WEEK 5","visitnum":"6.0","epoch":"TREATMENT","spec":null,"method":null},{"seq":"38","testcd":"CREAT","test":"Creatinine","cat":"CHEMISTRY","orres":"45.59","orresu":"umol/L","stresc":"45.59","stresn":"45.59","stresu":"umol/L","stnrlo":"44","stnrhi":"80","nrind":"NORMAL","fast":null,"dtc":"2024-06-07","dy":"38","visit":"WEEK 5","visitnum":"6.0","epoch":"TREATMENT","spec":null,"method":null},{"seq":"39","testcd":"GLUC","test":"Glucose","cat":"CHEMISTRY","orres":"5.23","orresu":"mmol/L","stresc":"5.23","stresn":"5.23","stresu":"mmol/L","stnrlo":"3.9","stnrhi":"5.6","nrind":"NORMAL","fast":null,"dtc":"2024-06-07","dy":"38","visit":"WEEK 5","visitnum":"6.0","epoch":"TREATMENT","spec":null,"method":null},{"seq":"40","testcd":"HGB","test":"Hemoglobin","cat":"HEMATOLOGY","orres":"123.76","orresu":"g/L","stresc":"123.76","stresn":"123.76","stresu":"g/L","stnrlo":"120","stnrhi":"155","nrind":"NORMAL","fast":null,"dtc":"2024-06-07","dy":"38","visit":"WEEK 5","visitnum":"6.0","epoch":"TREATMENT","spec":null,"method":null},{"seq":"41","testcd":"PLAT","test":"Platelets","cat":"HEMATOLOGY","orres":"183.68","orresu":"10^9/L","stresc":"183.68","stresn":"183.68","stresu":"10^9/L","stnrlo":"150","stnrhi":"400","nrind":"NORMAL","fast":null,"dtc":"2024-06-07","dy":"38","visit":"WEEK 5","visitnum":"6.0","epoch":"TREATMENT","spec":null,"method":null},{"seq":"42","testcd":"WBC","test":"Leukocytes","cat":"HEMATOLOGY","orres":null,"orresu":null,"stresc":null,"stresn":null,"stresu":null,"stnrlo":null,"stnrhi":null,"nrind":null,"fast":null,"dtc":"2024-06-07","dy":"38","visit":"WEEK 5","visitnum":"6.0","epoch":"TREATMENT","spec":null,"method":null},{"seq":"43","testcd":"ALT","test":"Alanine Aminotransferase","cat":"CHEMISTRY","orres":"5.0","orresu":"U/L","stresc":"5.0","stresn":"5.0","stresu":"U/L","stnrlo":"7","stnrhi":"56","nrind":"LOW","fast":null,"dtc":"2024-06-11","dy":"42","visit":"WEEK 6","visitnum":"7.0","epoch":"TREATMENT","spec":null,"method":null},{"seq":"44","testcd":"AST","test":"Aspartate Aminotransferase","cat":"CHEMISTRY","orres":"15.99","orresu":"U/L","stresc":"15.99","stresn":"15.99","stresu":"U/L","stnrlo":"10","stnrhi":"40","nrind":"NORMAL","fast":null,"dtc":"2024-06-11","dy":"42","visit":"WEEK 6","visitnum":"7.0","epoch":"TREATMENT","spec":null,"method":null},{"seq":"45","testcd":"CREAT","test":"Creatinine","cat":"CHEMISTRY","orres":"47.76","orresu":"umol/L","stresc":"47.76","stresn":"47.76","stresu":"umol/L","stnrlo":"44","stnrhi":"80","nrind":"NORMAL","fast":null,"dtc":"2024-06-11","dy":"42","visit":"WEEK 6","visitnum":"7.0","epoch":"TREATMENT","spec":null,"method":null},{"seq":"46","testcd":"GLUC","test":"Glucose","cat":"CHEMISTRY","orres":"5.15","orresu":"mmol/L","stresc":"5.15","stresn":"5.15","stresu":"mmol/L","stnrlo":"3.9","stnrhi":"5.6","nrind":"NORMAL","fast":null,"dtc":"2024-06-11","dy":"42","visit":"WEEK 6","visitnum":"7.0","epoch":"TREATMENT","spec":null,"method":null},{"seq":"47","testcd":"HGB","test":"Hemoglobin","cat":"HEMATOLOGY","orres":"123.29","orresu":"g/L","stresc":"123.29","stresn":"123.29","stresu":"g/L","stnrlo":"120","stnrhi":"155","nrind":"NORMAL","fast":null,"dtc":"2024-06-11","dy":"42","visit":"WEEK 6","visitnum":"7.0","epoch":"TREATMENT","spec":null,"method":null},{"seq":"48","testcd":"PLAT","test":"Platelets","cat":"HEMATOLOGY","orres":"175.18","orresu":"10^9/L","stresc":"175.18","stresn":"175.18","stresu":"10^9/L","stnrlo":"150","stnrhi":"400","nrind":"NORMAL","fast":null,"dtc":"2024-06-11","dy":"42","visit":"WEEK 6","visitnum":"7.0","epoch":"TREATMENT","spec":null,"method":null},{"seq":"49","testcd":"WBC","test":"Leukocytes","cat":"HEMATOLOGY","orres":"7.43","orresu":"10^9/L","stresc":"7.43","stresn":"7.43","stresu":"10^9/L","stnrlo":"4.0","stnrhi":"11.0","nrind":"NORMAL","fast":null,"dtc":"2024-06-11","dy":"42","visit":"WEEK 6","visitnum":"7.0","epoch":"TREATMENT","spec":null,"method":null},{"seq":"50","testcd":"ALT","test":"Alanine Aminotransferase","cat":"CHEMISTRY","orres":"5.0","orresu":"U/L","stresc":"5.0","stresn":"5.0","stresu":"U/L","stnrlo":"7","stnrhi":"56","nrind":"LOW","fast":null,"dtc":"2024-06-19","dy":"50","visit":"WEEK 7","visitnum":"8.0","epoch":"TREATMENT","spec":null,"method":null},{"seq":"51","testcd":"AST","test":"Aspartate Aminotransferase","cat":"CHEMISTRY","orres":"14.17","orresu":"U/L","stresc":"14.17","stresn":"14.17","stresu":"U/L","stnrlo":"10","stnrhi":"40","nrind":"NORMAL","fast":null,"dtc":"2024-06-19","dy":"50","visit":"WEEK 7","visitnum":"8.0","epoch":"TREATMENT","spec":null,"method":null},{"seq":"52","testcd":"CREAT","test":"Creatinine","cat":"CHEMISTRY","orres":"46.26","orresu":"umol/L","stresc":"46.26","stresn":"46.26","stresu":"umol/L","stnrlo":"44","stnrhi":"80","nrind":"NORMAL","fast":null,"dtc":"2024-06-19","dy":"50","visit":"WEEK 7","visitnum":"8.0","epoch":"TREATMENT","spec":null,"method":null},{"seq":"53","testcd":"GLUC","test":"Glucose","cat":"CHEMISTRY","orres":"5.24","orresu":"mmol/L","stresc":"5.24","stresn":"5.24","stresu":"mmol/L","stnrlo":"3.9","stnrhi":"5.6","nrind":"NORMAL","fast":null,"dtc":"2024-06-19","dy":"50","visit":"WEEK 7","visitnum":"8.0","epoch":"TREATMENT","spec":null,"method":null},{"seq":"54","testcd":"HGB","test":"Hemoglobin","cat":"HEMATOLOGY","orres":"124.75","orresu":"g/L","stresc":"124.75","stresn":"124.75","stresu":"g/L","stnrlo":"120","stnrhi":"155","nrind":"NORMAL","fast":null,"dtc":"2024-06-19","dy":"50","visit":"WEEK 7","visitnum":"8.0","epoch":"TREATMENT","spec":null,"method":null},{"seq":"55","testcd":"PLAT","test":"Platelets","cat":"HEMATOLOGY","orres":"172.22","orresu":"10^9/L","stresc":"172.22","stresn":"172.22","stresu":"10^9/L","stnrlo":"150","stnrhi":"400","nrind":"NORMAL","fast":null,"dtc":"2024-06-19","dy":"50","visit":"WEEK 7","visitnum":"8.0","epoch":"TREATMENT","spec":null,"method":null},{"seq":"56","testcd":"WBC","test":"Leukocytes","cat":"HEMATOLOGY","orres":"6.98","orresu":"10^9/L","stresc":"6.98","stresn":"6.98","stresu":"10^9/L","stnrlo":"4.0","stnrhi":"11.0","nrind":"NORMAL","fast":null,"dtc":"2024-06-19","dy":"50","visit":"WEEK 7","visitnum":"8.0","epoch":"TREATMENT","spec":null,"method":null},{"seq":"57","testcd":"ALT","test":"Alanine Aminotransferase","cat":"CHEMISTRY","orres":"5.0","orresu":"U/L","stresc":"5.0","stresn":"5.0","stresu":"U/L","stnrlo":"7","stnrhi":"56","nrind":"LOW","fast":null,"dtc":"2024-06-27","dy":"58","visit":"WEEK 8 EOT","visitnum":"9.0","epoch":"TREATMENT","spec":null,"method":null},{"seq":"58","testcd":"AST","test":"Aspartate Aminotransferase","cat":"CHEMISTRY","orres":"13.82","orresu":"U/L","stresc":"13.82","stresn":"13.82","stresu":"U/L","stnrlo":"10","stnrhi":"40","nrind":"NORMAL","fast":null,"dtc":"2024-06-27","dy":"58","visit":"WEEK 8 EOT","visitnum":"9.0","epoch":"TREATMENT","spec":null,"method":null},{"seq":"59","testcd":"CREAT","test":"Creatinine","cat":"CHEMISTRY","orres":"44.3","orresu":"umol/L","stresc":"44.3","stresn":"44.3","stresu":"umol/L","stnrlo":"44","stnrhi":"80","nrind":"NORMAL","fast":null,"dtc":"2024-06-27","dy":"58","visit":"WEEK 8 EOT","visitnum":"9.0","epoch":"TREATMENT","spec":null,"method":null},{"seq":"60","testcd":"GLUC","test":"Glucose","cat":"CHEMISTRY","orres":"5.28","orresu":"mmol/L","stresc":"5.28","stresn":"5.28","stresu":"mmol/L","stnrlo":"3.9","stnrhi":"5.6","nrind":"NORMAL","fast":null,"dtc":"2024-06-27","dy":"58","visit":"WEEK 8 EOT","visitnum":"9.0","epoch":"TREATMENT","spec":null,"method":null},{"seq":"61","testcd":"HGB","test":"Hemoglobin","cat":"HEMATOLOGY","orres":"124.02","orresu":"g/L","stresc":"124.02","stresn":"124.02","stresu":"g/L","stnrlo":"120","stnrhi":"155","nrind":"NORMAL","fast":null,"dtc":"2024-06-27","dy":"58","visit":"WEEK 8 EOT","visitnum":"9.0","epoch":"TREATMENT","spec":null,"method":null},{"seq":"62","testcd":"PLAT","test":"Platelets","cat":"HEMATOLOGY","orres":"185.22","orresu":"10^9/L","stresc":"185.22","stresn":"185.22","stresu":"10^9/L","stnrlo":"150","stnrhi":"400","nrind":"NORMAL","fast":null,"dtc":"2024-06-27","dy":"58","visit":"WEEK 8 EOT","visitnum":"9.0","epoch":"TREATMENT","spec":null,"method":null},{"seq":"63","testcd":"WBC","test":"Leukocytes","cat":"HEMATOLOGY","orres":"7.24","orresu":"10^9/L","stresc":"7.24","stresn":"7.24","stresu":"10^9/L","stnrlo":"4.0","stnrhi":"11.0","nrind":"NORMAL","fast":null,"dtc":"2024-06-27","dy":"58","visit":"WEEK 8 EOT","visitnum":"9.0","epoch":"TREATMENT","spec":null,"method":null},{"seq":"64","testcd":"ALT","test":"Alanine Aminotransferase","cat":"CHEMISTRY","orres":null,"orresu":null,"stresc":null,"stresn":null,"stresu":null,"stnrlo":null,"stnrhi":null,"nrind":null,"fast":null,"dtc":"2024-07-18","dy":"79","visit":"SAFETY FU WEEK 4","visitnum":"10.0","epoch":"FOLLOW-UP","spec":null,"method":null},{"seq":"65","testcd":"AST","test":"Aspartate Aminotransferase","cat":"CHEMISTRY","orres":"14.49","orresu":"U/L","stresc":"14.49","stresn":"14.49","stresu":"U/L","stnrlo":"10","stnrhi":"40","nrind":"NORMAL","fast":null,"dtc":"2024-07-18","dy":"79","visit":"SAFETY FU WEEK 4","visitnum":"10.0","epoch":"FOLLOW-UP","spec":null,"method":null},{"seq":"66","testcd":"CREAT","test":"Creatinine","cat":"CHEMISTRY","orres":"43.57","orresu":"umol/L","stresc":"43.57","stresn":"43.57","stresu":"umol/L","stnrlo":"44","stnrhi":"80","nrind":"LOW","fast":null,"dtc":"2024-07-18","dy":"79","visit":"SAFETY FU WEEK 4","visitnum":"10.0","epoch":"FOLLOW-UP","spec":null,"method":null},{"seq":"67","testcd":"GLUC","test":"Glucose","cat":"CHEMISTRY","orres":"5.23","orresu":"mmol/L","stresc":"5.23","stresn":"5.23","stresu":"mmol/L","stnrlo":"3.9","stnrhi":"5.6","nrind":"NORMAL","fast":null,"dtc":"2024-07-18","dy":"79","visit":"SAFETY FU WEEK 4","visitnum":"10.0","epoch":"FOLLOW-UP","spec":null,"method":null},{"seq":"68","testcd":"HGB","test":"Hemoglobin","cat":"HEMATOLOGY","orres":"124.17","orresu":"g/L","stresc":"124.17","stresn":"124.17","stresu":"g/L","stnrlo":"120","stnrhi":"155","nrind":"NORMAL","fast":null,"dtc":"2024-07-18","dy":"79","visit":"SAFETY FU WEEK 4","visitnum":"10.0","epoch":"FOLLOW-UP","spec":null,"method":null},{"seq":"69","testcd":"PLAT","test":"Platelets","cat":"HEMATOLOGY","orres":"179.95","orresu":"10^9/L","stresc":"179.95","stresn":"179.95","stresu":"10^9/L","stnrlo":"150","stnrhi":"400","nrind":"NORMAL","fast":null,"dtc":"2024-07-18","dy":"79","visit":"SAFETY FU WEEK 4","visitnum":"10.0","epoch":"FOLLOW-UP","spec":null,"method":null},{"seq":"70","testcd":"WBC","test":"Leukocytes","cat":"HEMATOLOGY","orres":"7.65","orresu":"10^9/L","stresc":"7.65","stresn":"7.65","stresu":"10^9/L","stnrlo":"4.0","stnrhi":"11.0","nrind":"NORMAL","fast":null,"dtc":"2024-07-18","dy":"79","visit":"SAFETY FU WEEK 4","visitnum":"10.0","epoch":"FOLLOW-UP","spec":null,"method":null},{"seq":"71","testcd":"ALT","test":"Alanine Aminotransferase","cat":"CHEMISTRY","orres":"5.0","orresu":"U/L","stresc":"5.0","stresn":"5.0","stresu":"U/L","stnrlo":"7","stnrhi":"56","nrind":"LOW","fast":null,"dtc":"2024-08-28","dy":"120","visit":"SAFETY FU WEEK 8","visitnum":"11.0","epoch":"FOLLOW-UP","spec":null,"method":null},{"seq":"72","testcd":"AST","test":"Aspartate Aminotransferase","cat":"CHEMISTRY","orres":null,"orresu":null,"stresc":null,"stresn":null,"stresu":null,"stnrlo":null,"stnrhi":null,"nrind":null,"fast":null,"dtc":"2024-08-28","dy":"120","visit":"SAFETY FU WEEK 8","visitnum":"11.0","epoch":"FOLLOW-UP","spec":null,"method":null},{"seq":"73","testcd":"CREAT","test":"Creatinine","cat":"CHEMISTRY","orres":"42.34","orresu":"umol/L","stresc":"42.34","stresn":"42.34","stresu":"umol/L","stnrlo":"44","stnrhi":"80","nrind":"LOW","fast":null,"dtc":"2024-08-28","dy":"120","visit":"SAFETY FU WEEK 8","visitnum":"11.0","epoch":"FOLLOW-UP","spec":null,"method":null},{"seq":"74","testcd":"GLUC","test":"Glucose","cat":"CHEMISTRY","orres":"5.14","orresu":"mmol/L","stresc":"5.14","stresn":"5.14","stresu":"mmol/L","stnrlo":"3.9","stnrhi":"5.6","nrind":"NORMAL","fast":null,"dtc":"2024-08-28","dy":"120","visit":"SAFETY FU WEEK 8","visitnum":"11.0","epoch":"FOLLOW-UP","spec":null,"method":null},{"seq":"75","testcd":"HGB","test":"Hemoglobin","cat":"HEMATOLOGY","orres":"125.69","orresu":"g/L","stresc":"125.69","stresn":"125.69","stresu":"g/L","stnrlo":"120","stnrhi":"155","nrind":"NORMAL","fast":null,"dtc":"2024-08-28","dy":"120","visit":"SAFETY FU WEEK 8","visitnum":"11.0","epoch":"FOLLOW-UP","spec":null,"method":null},{"seq":"76","testcd":"PLAT","test":"Platelets","cat":"HEMATOLOGY","orres":"186.71","orresu":"10^9/L","stresc":"186.71","stresn":"186.71","stresu":"10^9/L","stnrlo":"150","stnrhi":"400","nrind":"NORMAL","fast":null,"dtc":"2024-08-28","dy":"120","visit":"SAFETY FU WEEK 8","visitnum":"11.0","epoch":"FOLLOW-UP","spec":null,"method":null},{"seq":"77","testcd":"WBC","test":"Leukocytes","cat":"HEMATOLOGY","orres":"7.04","orresu":"10^9/L","stresc":"7.04","stresn":"7.04","stresu":"10^9/L","stnrlo":"4.0","stnrhi":"11.0","nrind":"NORMAL","fast":null,"dtc":"2024-08-28","dy":"120","visit":"SAFETY FU WEEK 8","visitnum":"11.0","epoch":"FOLLOW-UP","spec":null,"method":null}]},"section_9_vital_signs":{"summary":{"total_records":88},"trends":{"BMI":[{"visit":"SCREENING","visitnum":"1.0","dtc":"2024-03-07","value":"25.4","unit":"kg/m2"},{"visit":"DAY 1 LOADING","visitnum":"2.0","dtc":"2024-05-01","value":"26.4","unit":"kg/m2"},{"visit":"WEEK 2","visitnum":"3.0","dtc":"2024-05-17","value":"26.2","unit":"kg/m2"},{"visit":"WEEK 3","visitnum":"4.0","dtc":"2024-05-20","value":"25.0","unit":"kg/m2"},{"visit":"WEEK 4","visitnum":"5.0","dtc":"2024-05-30","value":"24.3","unit":"kg/m2"},{"visit":"WEEK 5","visitnum":"6.0","dtc":"2024-06-07","value":"25.2","unit":"kg/m2"},{"visit":"WEEK 6","visitnum":"7.0","dtc":"2024-06-11","value":"25.6","unit":"kg/m2"},{"visit":"WEEK 7","visitnum":"8.0","dtc":"2024-06-19","value":"24.2","unit":"kg/m2"},{"visit":"WEEK 8 EOT","visitnum":"9.0","dtc":"2024-06-27","value":"24.6","unit":"kg/m2"},{"visit":"SAFETY FU WEEK 4","visitnum":"10.0","dtc":"2024-07-18","value":"23.4","unit":"kg/m2"},{"visit":"SAFETY FU WEEK 8","visitnum":"11.0","dtc":"2024-08-28","value":"24.7","unit":"kg/m2"}],"DIABP":[{"visit":"SCREENING","visitnum":"1.0","dtc":"2024-03-07","value":"43.1","unit":"mmHg"},{"visit":"DAY 1 LOADING","visitnum":"2.0","dtc":"2024-05-01","value":"42.6","unit":"mmHg"},{"visit":"WEEK 2","visitnum":"3.0","dtc":"2024-05-17","value":"43.5","unit":"mmHg"},{"visit":"WEEK 3","visitnum":"4.0","dtc":"2024-05-20","value":"45.5","unit":"mmHg"},{"visit":"WEEK 4","visitnum":"5.0","dtc":"2024-05-30","value":"44.9","unit":"mmHg"},{"visit":"WEEK 5","visitnum":"6.0","dtc":"2024-06-07","value":"47.0","unit":"mmHg"},{"visit":"WEEK 6","visitnum":"7.0","dtc":"2024-06-11","value":"48.0","unit":"mmHg"},{"visit":"WEEK 7","visitnum":"8.0","dtc":"2024-06-19","value":"47.1","unit":"mmHg"},{"visit":"WEEK 8 EOT","visitnum":"9.0","dtc":"2024-06-27","value":"42.7","unit":"mmHg"},{"visit":"SAFETY FU WEEK 4","visitnum":"10.0","dtc":"2024-07-18","value":"42.4","unit":"mmHg"},{"visit":"SAFETY FU WEEK 8","visitnum":"11.0","dtc":"2024-08-28","value":"42.4","unit":"mmHg"}],"HEIGHT":[{"visit":"SCREENING","visitnum":"1.0","dtc":"2024-03-07","value":"147.5","unit":"cm"},{"visit":"DAY 1 LOADING","visitnum":"2.0","dtc":"2024-05-01","value":"147.9","unit":"cm"},{"visit":"WEEK 2","visitnum":"3.0","dtc":"2024-05-17","value":"147.8","unit":"cm"},{"visit":"WEEK 3","visitnum":"4.0","dtc":"2024-05-20","value":"147.3","unit":"cm"},{"visit":"WEEK 4","visitnum":"5.0","dtc":"2024-05-30","value":"147.0","unit":"cm"},{"visit":"WEEK 5","visitnum":"6.0","dtc":"2024-06-07","value":"146.8","unit":"cm"},{"visit":"WEEK 6","visitnum":"7.0","dtc":"2024-06-11","value":"147.6","unit":"cm"},{"visit":"WEEK 7","visitnum":"8.0","dtc":"2024-06-19","value":"147.2","unit":"cm"},{"visit":"WEEK 8 EOT","visitnum":"9.0","dtc":"2024-06-27","value":"147.6","unit":"cm"},{"visit":"SAFETY FU WEEK 4","visitnum":"10.0","dtc":"2024-07-18","value":"147.5","unit":"cm"},{"visit":"SAFETY FU WEEK 8","visitnum":"11.0","dtc":"2024-08-28","value":"147.1","unit":"cm"}],"PULSE":[{"visit":"SCREENING","visitnum":"1.0","dtc":"2024-03-07","value":"69.9","unit":"beats/min"},{"visit":"DAY 1 LOADING","visitnum":"2.0","dtc":"2024-05-01","value":"70.5","unit":"beats/min"},{"visit":"WEEK 2","visitnum":"3.0","dtc":"2024-05-17","value":"71.5","unit":"beats/min"},{"visit":"WEEK 3","visitnum":"4.0","dtc":"2024-05-20","value":"77.5","unit":"beats/min"},{"visit":"WEEK 4","visitnum":"5.0","dtc":"2024-05-30","value":"72.1","unit":"beats/min"},{"visit":"WEEK 5","visitnum":"6.0","dtc":"2024-06-07","value":"76.0","unit":"beats/min"},{"visit":"WEEK 6","visitnum":"7.0","dtc":"2024-06-11","value":"72.6","unit":"beats/min"},{"visit":"WEEK 7","visitnum":"8.0","dtc":"2024-06-19","value":"69.5","unit":"beats/min"},{"visit":"WEEK 8 EOT","visitnum":"9.0","dtc":"2024-06-27","value":"72.5","unit":"beats/min"},{"visit":"SAFETY FU WEEK 4","visitnum":"10.0","dtc":"2024-07-18","value":"76.8","unit":"beats/min"},{"visit":"SAFETY FU WEEK 8","visitnum":"11.0","dtc":"2024-08-28","value":"79.9","unit":"beats/min"}],"RESP":[{"visit":"SCREENING","visitnum":"1.0","dtc":"2024-03-07","value":"13.7","unit":"breaths/min"},{"visit":"DAY 1 LOADING","visitnum":"2.0","dtc":"2024-05-01","value":"14.2","unit":"breaths/min"},{"visit":"WEEK 2","visitnum":"3.0","dtc":"2024-05-17","value":"13.7","unit":"breaths/min"},{"visit":"WEEK 3","visitnum":"4.0","dtc":"2024-05-20","value":"13.3","unit":"breaths/min"},{"visit":"WEEK 4","visitnum":"5.0","dtc":"2024-05-30","value":"13.0","unit":"breaths/min"},{"visit":"WEEK 5","visitnum":"6.0","dtc":"2024-06-07","value":"13.8","unit":"breaths/min"},{"visit":"WEEK 6","visitnum":"7.0","dtc":"2024-06-11","value":"13.7","unit":"breaths/min"},{"visit":"WEEK 7","visitnum":"8.0","dtc":"2024-06-19","value":"13.2","unit":"breaths/min"},{"visit":"WEEK 8 EOT","visitnum":"9.0","dtc":"2024-06-27","value":"12.7","unit":"breaths/min"},{"visit":"SAFETY FU WEEK 4","visitnum":"10.0","dtc":"2024-07-18","value":"12.7","unit":"breaths/min"},{"visit":"SAFETY FU WEEK 8","visitnum":"11.0","dtc":"2024-08-28","value":"13.0","unit":"breaths/min"}],"SYSBP":[{"visit":"SCREENING","visitnum":"1.0","dtc":"2024-03-07","value":"107.3","unit":"mmHg"},{"visit":"DAY 1 LOADING","visitnum":"2.0","dtc":"2024-05-01","value":"107.1","unit":"mmHg"},{"visit":"WEEK 2","visitnum":"3.0","dtc":"2024-05-17","value":"107.3","unit":"mmHg"},{"visit":"WEEK 3","visitnum":"4.0","dtc":"2024-05-20","value":"108.2","unit":"mmHg"},{"visit":"WEEK 4","visitnum":"5.0","dtc":"2024-05-30","value":"107.3","unit":"mmHg"},{"visit":"WEEK 5","visitnum":"6.0","dtc":"2024-06-07","value":"109.7","unit":"mmHg"},{"visit":"WEEK 6","visitnum":"7.0","dtc":"2024-06-11","value":"110.2","unit":"mmHg"},{"visit":"WEEK 8 EOT","visitnum":"9.0","dtc":"2024-06-27","value":"107.7","unit":"mmHg"},{"visit":"SAFETY FU WEEK 4","visitnum":"10.0","dtc":"2024-07-18","value":"106.2","unit":"mmHg"},{"visit":"SAFETY FU WEEK 8","visitnum":"11.0","dtc":"2024-08-28","value":"107.2","unit":"mmHg"}],"TEMP":[{"visit":"SCREENING","visitnum":"1.0","dtc":"2024-03-07","value":"36.2","unit":"C"},{"visit":"DAY 1 LOADING","visitnum":"2.0","dtc":"2024-05-01","value":"36.2","unit":"C"},{"visit":"WEEK 2","visitnum":"3.0","dtc":"2024-05-17","value":"36.3","unit":"C"},{"visit":"WEEK 3","visitnum":"4.0","dtc":"2024-05-20","value":"36.4","unit":"C"},{"visit":"WEEK 4","visitnum":"5.0","dtc":"2024-05-30","value":"36.4","unit":"C"},{"visit":"WEEK 5","visitnum":"6.0","dtc":"2024-06-07","value":"36.3","unit":"C"},{"visit":"WEEK 6","visitnum":"7.0","dtc":"2024-06-11","value":"36.2","unit":"C"},{"visit":"WEEK 7","visitnum":"8.0","dtc":"2024-06-19","value":"36.0","unit":"C"},{"visit":"WEEK 8 EOT","visitnum":"9.0","dtc":"2024-06-27","value":"35.9","unit":"C"},{"visit":"SAFETY FU WEEK 4","visitnum":"10.0","dtc":"2024-07-18","value":"36.1","unit":"C"},{"visit":"SAFETY FU WEEK 8","visitnum":"11.0","dtc":"2024-08-28","value":"36.2","unit":"C"}],"WEIGHT":[{"visit":"SCREENING","visitnum":"1.0","dtc":"2024-03-07","value":"55.2","unit":"kg"},{"visit":"DAY 1 LOADING","visitnum":"2.0","dtc":"2024-05-01","value":"57.8","unit":"kg"},{"visit":"WEEK 2","visitnum":"3.0","dtc":"2024-05-17","value":"57.3","unit":"kg"},{"visit":"WEEK 3","visitnum":"4.0","dtc":"2024-05-20","value":"54.3","unit":"kg"},{"visit":"WEEK 4","visitnum":"5.0","dtc":"2024-05-30","value":"52.5","unit":"kg"},{"visit":"WEEK 5","visitnum":"6.0","dtc":"2024-06-07","value":"54.4","unit":"kg"},{"visit":"WEEK 6","visitnum":"7.0","dtc":"2024-06-11","value":"55.8","unit":"kg"},{"visit":"WEEK 7","visitnum":"8.0","dtc":"2024-06-19","value":"52.5","unit":"kg"},{"visit":"WEEK 8 EOT","visitnum":"9.0","dtc":"2024-06-27","value":"53.5","unit":"kg"},{"visit":"SAFETY FU WEEK 4","visitnum":"10.0","dtc":"2024-07-18","value":"51.0","unit":"kg"},{"visit":"SAFETY FU WEEK 8","visitnum":"11.0","dtc":"2024-08-28","value":"53.5","unit":"kg"}]},"results":[{"seq":"1","testcd":"BMI","test":"BMI","cat":null,"orres":null,"orresu":null,"stresc":"25.4","stresn":"25.4","stresu":"kg/m2","stnrlo":null,"stnrhi":null,"nrind":null,"pos":null,"loc":null,"dtc":"2024-03-07","dy":"-55","visit":"SCREENING","visitnum":"1.0","epoch":"SCREENING"},{"seq":"2","testcd":"DIABP","test":"Diastolic Blood Pressure","cat":null,"orres":"43.1","orresu":"mmHg","stresc":"43.1","stresn":"43.1","stresu":"mmHg","stnrlo":null,"stnrhi":null,"nrind":null,"pos":null,"loc":null,"dtc":"2024-03-07","dy":"-55","visit":"SCREENING","visitnum":"1.0","epoch":"SCREENING"},{"seq":"3","testcd":"HEIGHT","test":"Height","cat":null,"orres":"147.5","orresu":"cm","stresc":"147.5","stresn":"147.5","stresu":"cm","stnrlo":null,"stnrhi":null,"nrind":null,"pos":null,"loc":null,"dtc":"2024-03-07","dy":"-55","visit":"SCREENING","visitnum":"1.0","epoch":"SCREENING"},{"seq":"4","testcd":"PULSE","test":"Pulse Rate","cat":null,"orres":"69.9","orresu":"beats/min","stresc":"69.9","stresn":"69.9","stresu":"beats/min","stnrlo":null,"stnrhi":null,"nrind":null,"pos":null,"loc":null,"dtc":"2024-03-07","dy":"-55","visit":"SCREENING","visitnum":"1.0","epoch":"SCREENING"},{"seq":"5","testcd":"RESP","test":"Respiratory Rate","cat":null,"orres":"13.7","orresu":"breaths/min","stresc":"13.7","stresn":"13.7","stresu":"breaths/min","stnrlo":null,"stnrhi":null,"nrind":null,"pos":null,"loc":null,"dtc":"2024-03-07","dy":"-55","visit":"SCREENING","visitnum":"1.0","epoch":"SCREENING"},{"seq":"6","testcd":"SYSBP","test":"Systolic Blood Pressure","cat":null,"orres":"107.3","orresu":"mmHg","stresc":"107.3","stresn":"107.3","stresu":"mmHg","stnrlo":null,"stnrhi":null,"nrind":null,"pos":null,"loc":null,"dtc":"2024-03-07","dy":"-55","visit":"SCREENING","visitnum":"1.0","epoch":"SCREENING"},{"seq":"7","testcd":"TEMP","test":"Temperature","cat":null,"orres":"36.2","orresu":"C","stresc":"36.2","stresn":"36.2","stresu":"C","stnrlo":null,"stnrhi":null,"nrind":null,"pos":null,"loc":null,"dtc":"2024-03-07","dy":"-55","visit":"SCREENING","visitnum":"1.0","epoch":"SCREENING"},{"seq":"8","testcd":"WEIGHT","test":"Weight","cat":null,"orres":"55.2","orresu":"kg","stresc":"55.2","stresn":"55.2","stresu":"kg","stnrlo":null,"stnrhi":null,"nrind":null,"pos":null,"loc":null,"dtc":"2024-03-07","dy":"-55","visit":"SCREENING","visitnum":"1.0","epoch":"SCREENING"},{"seq":"9","testcd":"BMI","test":"BMI","cat":null,"orres":null,"orresu":null,"stresc":"26.4","stresn":"26.4","stresu":"kg/m2","stnrlo":null,"stnrhi":null,"nrind":null,"pos":null,"loc":null,"dtc":"2024-05-01","dy":"1","visit":"DAY 1 LOADING","visitnum":"2.0","epoch":"TREATMENT"},{"seq":"10","testcd":"DIABP","test":"Diastolic Blood Pressure","cat":null,"orres":"42.6","orresu":"mmHg","stresc":"42.6","stresn":"42.6","stresu":"mmHg","stnrlo":null,"stnrhi":null,"nrind":null,"pos":null,"loc":null,"dtc":"2024-05-01","dy":"1","visit":"DAY 1 LOADING","visitnum":"2.0","epoch":"TREATMENT"},{"seq":"11","testcd":"HEIGHT","test":"Height","cat":null,"orres":"147.9","orresu":"cm","stresc":"147.9","stresn":"147.9","stresu":"cm","stnrlo":null,"stnrhi":null,"nrind":null,"pos":null,"loc":null,"dtc":"2024-05-01","dy":"1","visit":"DAY 1 LOADING","visitnum":"2.0","epoch":"TREATMENT"},{"seq":"12","testcd":"PULSE","test":"Pulse Rate","cat":null,"orres":"70.5","orresu":"beats/min","stresc":"70.5","stresn":"70.5","stresu":"beats/min","stnrlo":null,"stnrhi":null,"nrind":null,"pos":null,"loc":null,"dtc":"2024-05-01","dy":"1","visit":"DAY 1 LOADING","visitnum":"2.0","epoch":"TREATMENT"},{"seq":"13","testcd":"RESP","test":"Respiratory Rate","cat":null,"orres":"14.2","orresu":"breaths/min","stresc":"14.2","stresn":"14.2","stresu":"breaths/min","stnrlo":null,"stnrhi":null,"nrind":null,"pos":null,"loc":null,"dtc":"2024-05-01","dy":"1","visit":"DAY 1 LOADING","visitnum":"2.0","epoch":"TREATMENT"},{"seq":"14","testcd":"SYSBP","test":"Systolic Blood Pressure","cat":null,"orres":"107.1","orresu":"mmHg","stresc":"107.1","stresn":"107.1","stresu":"mmHg","stnrlo":null,"stnrhi":null,"nrind":null,"pos":null,"loc":null,"dtc":"2024-05-01","dy":"1","visit":"DAY 1 LOADING","visitnum":"2.0","epoch":"TREATMENT"},{"seq":"15","testcd":"TEMP","test":"Temperature","cat":null,"orres":"36.2","orresu":"C","stresc":"36.2","stresn":"36.2","stresu":"C","stnrlo":null,"stnrhi":null,"nrind":null,"pos":null,"loc":null,"dtc":"2024-05-01","dy":"1","visit":"DAY 1 LOADING","visitnum":"2.0","epoch":"TREATMENT"},{"seq":"16","testcd":"WEIGHT","test":"Weight","cat":null,"orres":"57.8","orresu":"kg","stresc":"57.8","stresn":"57.8","stresu":"kg","stnrlo":null,"stnrhi":null,"nrind":null,"pos":null,"loc":null,"dtc":"2024-05-01","dy":"1","visit":"DAY 1 LOADING","visitnum":"2.0","epoch":"TREATMENT"},{"seq":"17","testcd":"BMI","test":"BMI","cat":null,"orres":null,"orresu":null,"stresc":"26.2","stresn":"26.2","stresu":"kg/m2","stnrlo":null,"stnrhi":null,"nrind":null,"pos":null,"loc":null,"dtc":"2024-05-17","dy":"17","visit":"WEEK 2","visitnum":"3.0","epoch":"TREATMENT"},{"seq":"18","testcd":"DIABP","test":"Diastolic Blood Pressure","cat":null,"orres":"43.5","orresu":"mmHg","stresc":"43.5","stresn":"43.5","stresu":"mmHg","stnrlo":null,"stnrhi":null,"nrind":null,"pos":null,"loc":null,"dtc":"2024-05-17","dy":"17","visit":"WEEK 2","visitnum":"3.0","epoch":"TREATMENT"},{"seq":"19","testcd":"HEIGHT","test":"Height","cat":null,"orres":"147.8","orresu":"cm","stresc":"147.8","stresn":"147.8","stresu":"cm","stnrlo":null,"stnrhi":null,"nrind":null,"pos":null,"loc":null,"dtc":"2024-05-17","dy":"17","visit":"WEEK 2","visitnum":"3.0","epoch":"TREATMENT"},{"seq":"20","testcd":"PULSE","test":"Pulse Rate","cat":null,"orres":"71.5","orresu":"beats/min","stresc":"71.5","stresn":"71.5","stresu":"beats/min","stnrlo":null,"stnrhi":null,"nrind":null,"pos":null,"loc":null,"dtc":"2024-05-17","dy":"17","visit":"WEEK 2","visitnum":"3.0","epoch":"TREATMENT"},{"seq":"21","testcd":"RESP","test":"Respiratory Rate","cat":null,"orres":"13.7","orresu":"breaths/min","stresc":"13.7","stresn":"13.7","stresu":"breaths/min","stnrlo":null,"stnrhi":null,"nrind":null,"pos":null,"loc":null,"dtc":"2024-05-17","dy":"17","visit":"WEEK 2","visitnum":"3.0","epoch":"TREATMENT"},{"seq":"22","testcd":"SYSBP","test":"Systolic Blood Pressure","cat":null,"orres":"107.3","orresu":"mmHg","stresc":"107.3","stresn":"107.3","stresu":"mmHg","stnrlo":null,"stnrhi":null,"nrind":null,"pos":null,"loc":null,"dtc":"2024-05-17","dy":"17","visit":"WEEK 2","visitnum":"3.0","epoch":"TREATMENT"},{"seq":"23","testcd":"TEMP","test":"Temperature","cat":null,"orres":"36.3","orresu":"C","stresc":"36.3","stresn":"36.3","stresu":"C","stnrlo":null,"stnrhi":null,"nrind":null,"pos":null,"loc":null,"dtc":"2024-05-17","dy":"17","visit":"WEEK 2","visitnum":"3.0","epoch":"TREATMENT"},{"seq":"24","testcd":"WEIGHT","test":"Weight","cat":null,"orres":"57.3","orresu":"kg","stresc":"57.3","stresn":"57.3","stresu":"kg","stnrlo":null,"stnrhi":null,"nrind":null,"pos":null,"loc":null,"dtc":"2024-05-17","dy":"17","visit":"WEEK 2","visitnum":"3.0","epoch":"TREATMENT"},{"seq":"25","testcd":"BMI","test":"BMI","cat":null,"orres":null,"orresu":null,"stresc":"25.0","stresn":"25.0","stresu":"kg/m2","stnrlo":null,"stnrhi":null,"nrind":null,"pos":null,"loc":null,"dtc":"2024-05-20","dy":"20","visit":"WEEK 3","visitnum":"4.0","epoch":"TREATMENT"},{"seq":"26","testcd":"DIABP","test":"Diastolic Blood Pressure","cat":null,"orres":"45.5","orresu":"mmHg","stresc":"45.5","stresn":"45.5","stresu":"mmHg","stnrlo":null,"stnrhi":null,"nrind":null,"pos":null,"loc":null,"dtc":"2024-05-20","dy":"20","visit":"WEEK 3","visitnum":"4.0","epoch":"TREATMENT"},{"seq":"27","testcd":"HEIGHT","test":"Height","cat":null,"orres":"147.3","orresu":"cm","stresc":"147.3","stresn":"147.3","stresu":"cm","stnrlo":null,"stnrhi":null,"nrind":null,"pos":null,"loc":null,"dtc":"2024-05-20","dy":"20","visit":"WEEK 3","visitnum":"4.0","epoch":"TREATMENT"},{"seq":"28","testcd":"PULSE","test":"Pulse Rate","cat":null,"orres":"77.5","orresu":"beats/min","stresc":"77.5","stresn":"77.5","stresu":"beats/min","stnrlo":null,"stnrhi":null,"nrind":null,"pos":null,"loc":null,"dtc":"2024-05-20","dy":"20","visit":"WEEK 3","visitnum":"4.0","epoch":"TREATMENT"},{"seq":"29","testcd":"RESP","test":"Respiratory Rate","cat":null,"orres":"13.3","orresu":"breaths/min","stresc":"13.3","stresn":"13.3","stresu":"breaths/min","stnrlo":null,"stnrhi":null,"nrind":null,"pos":null,"loc":null,"dtc":"2024-05-20","dy":"20","visit":"WEEK 3","visitnum":"4.0","epoch":"TREATMENT"},{"seq":"30","testcd":"SYSBP","test":"Systolic Blood Pressure","cat":null,"orres":"108.2","orresu":"mmHg","stresc":"108.2","stresn":"108.2","stresu":"mmHg","stnrlo":null,"stnrhi":null,"nrind":null,"pos":null,"loc":null,"dtc":"2024-05-20","dy":"20","visit":"WEEK 3","visitnum":"4.0","epoch":"TREATMENT"},{"seq":"31","testcd":"TEMP","test":"Temperature","cat":null,"orres":"36.4","orresu":"C","stresc":"36.4","stresn":"36.4","stresu":"C","stnrlo":null,"stnrhi":null,"nrind":null,"pos":null,"loc":null,"dtc":"2024-05-20","dy":"20","visit":"WEEK 3","visitnum":"4.0","epoch":"TREATMENT"},{"seq":"32","testcd":"WEIGHT","test":"Weight","cat":null,"orres":"54.3","orresu":"kg","stresc":"54.3","stresn":"54.3","stresu":"kg","stnrlo":null,"stnrhi":null,"nrind":null,"pos":null,"loc":null,"dtc":"2024-05-20","dy":"20","visit":"WEEK 3","visitnum":"4.0","epoch":"TREATMENT"},{"seq":"33","testcd":"BMI","test":"BMI","cat":null,"orres":null,"orresu":null,"stresc":"24.3","stresn":"24.3","stresu":"kg/m2","stnrlo":null,"stnrhi":null,"nrind":null,"pos":null,"loc":null,"dtc":"2024-05-30","dy":"30","visit":"WEEK 4","visitnum":"5.0","epoch":"TREATMENT"},{"seq":"34","testcd":"DIABP","test":"Diastolic Blood Pressure","cat":null,"orres":"44.9","orresu":"mmHg","stresc":"44.9","stresn":"44.9","stresu":"mmHg","stnrlo":null,"stnrhi":null,"nrind":null,"pos":null,"loc":null,"dtc":"2024-05-30","dy":"30","visit":"WEEK 4","visitnum":"5.0","epoch":"TREATMENT"},{"seq":"35","testcd":"HEIGHT","test":"Height","cat":null,"orres":"147.0","orresu":"cm","stresc":"147.0","stresn":"147.0","stresu":"cm","stnrlo":null,"stnrhi":null,"nrind":null,"pos":null,"loc":null,"dtc":"2024-05-30","dy":"30","visit":"WEEK 4","visitnum":"5.0","epoch":"TREATMENT"},{"seq":"36","testcd":"PULSE","test":"Pulse Rate","cat":null,"orres":"72.1","orresu":"beats/min","stresc":"72.1","stresn":"72.1","stresu":"beats/min","stnrlo":null,"stnrhi":null,"nrind":null,"pos":null,"loc":null,"dtc":"2024-05-30","dy":"30","visit":"WEEK 4","visitnum":"5.0","epoch":"TREATMENT"},{"seq":"37","testcd":"RESP","test":"Respiratory Rate","cat":null,"orres":"13.0","orresu":"breaths/min","stresc":"13.0","stresn":"13.0","stresu":"breaths/min","stnrlo":null,"stnrhi":null,"nrind":null,"pos":null,"loc":null,"dtc":"2024-05-30","dy":"30","visit":"WEEK 4","visitnum":"5.0","epoch":"TREATMENT"},{"seq":"38","testcd":"SYSBP","test":"Systolic Blood Pressure","cat":null,"orres":"107.3","orresu":"mmHg","stresc":"107.3","stresn":"107.3","stresu":"mmHg","stnrlo":null,"stnrhi":null,"nrind":null,"pos":null,"loc":null,"dtc":"2024-05-30","dy":"30","visit":"WEEK 4","visitnum":"5.0","epoch":"TREATMENT"},{"seq":"39","testcd":"TEMP","test":"Temperature","cat":null,"orres":"36.4","orresu":"C","stresc":"36.4","stresn":"36.4","stresu":"C","stnrlo":null,"stnrhi":null,"nrind":null,"pos":null,"loc":null,"dtc":"2024-05-30","dy":"30","visit":"WEEK 4","visitnum":"5.0","epoch":"TREATMENT"},{"seq":"40","testcd":"WEIGHT","test":"Weight","cat":null,"orres":"52.5","orresu":"kg","stresc":"52.5","stresn":"52.5","stresu":"kg","stnrlo":null,"stnrhi":null,"nrind":null,"pos":null,"loc":null,"dtc":"2024-05-30","dy":"30","visit":"WEEK 4","visitnum":"5.0","epoch":"TREATMENT"},{"seq":"41","testcd":"BMI","test":"BMI","cat":null,"orres":null,"orresu":null,"stresc":"25.2","stresn":"25.2","stresu":"kg/m2","stnrlo":null,"stnrhi":null,"nrind":null,"pos":null,"loc":null,"dtc":"2024-06-07","dy":"38","visit":"WEEK 5","visitnum":"6.0","epoch":"TREATMENT"},{"seq":"42","testcd":"DIABP","test":"Diastolic Blood Pressure","cat":null,"orres":"47.0","orresu":"mmHg","stresc":"47.0","stresn":"47.0","stresu":"mmHg","stnrlo":null,"stnrhi":null,"nrind":null,"pos":null,"loc":null,"dtc":"2024-06-07","dy":"38","visit":"WEEK 5","visitnum":"6.0","epoch":"TREATMENT"},{"seq":"43","testcd":"HEIGHT","test":"Height","cat":null,"orres":"146.8","orresu":"cm","stresc":"146.8","stresn":"146.8","stresu":"cm","stnrlo":null,"stnrhi":null,"nrind":null,"pos":null,"loc":null,"dtc":"2024-06-07","dy":"38","visit":"WEEK 5","visitnum":"6.0","epoch":"TREATMENT"},{"seq":"44","testcd":"PULSE","test":"Pulse Rate","cat":null,"orres":"76.0","orresu":"beats/min","stresc":"76.0","stresn":"76.0","stresu":"beats/min","stnrlo":null,"stnrhi":null,"nrind":null,"pos":null,"loc":null,"dtc":"2024-06-07","dy":"38","visit":"WEEK 5","visitnum":"6.0","epoch":"TREATMENT"},{"seq":"45","testcd":"RESP","test":"Respiratory Rate","cat":null,"orres":"13.8","orresu":"breaths/min","stresc":"13.8","stresn":"13.8","stresu":"breaths/min","stnrlo":null,"stnrhi":null,"nrind":null,"pos":null,"loc":null,"dtc":"2024-06-07","dy":"38","visit":"WEEK 5","visitnum":"6.0","epoch":"TREATMENT"},{"seq":"46","testcd":"SYSBP","test":"Systolic Blood Pressure","cat":null,"orres":"109.7","orresu":"mmHg","stresc":"109.7","stresn":"109.7","stresu":"mmHg","stnrlo":null,"stnrhi":null,"nrind":null,"pos":null,"loc":null,"dtc":"2024-06-07","dy":"38","visit":"WEEK 5","visitnum":"6.0","epoch":"TREATMENT"},{"seq":"47","testcd":"TEMP","test":"Temperature","cat":null,"orres":"36.3","orresu":"C","stresc":"36.3","stresn":"36.3","stresu":"C","stnrlo":null,"stnrhi":null,"nrind":null,"pos":null,"loc":null,"dtc":"2024-06-07","dy":"38","visit":"WEEK 5","visitnum":"6.0","epoch":"TREATMENT"},{"seq":"48","testcd":"WEIGHT","test":"Weight","cat":null,"orres":"54.4","orresu":"kg","stresc":"54.4","stresn":"54.4","stresu":"kg","stnrlo":null,"stnrhi":null,"nrind":null,"pos":null,"loc":null,"dtc":"2024-06-07","dy":"38","visit":"WEEK 5","visitnum":"6.0","epoch":"TREATMENT"},{"seq":"49","testcd":"BMI","test":"BMI","cat":null,"orres":null,"orresu":null,"stresc":"25.6","stresn":"25.6","stresu":"kg/m2","stnrlo":null,"stnrhi":null,"nrind":null,"pos":null,"loc":null,"dtc":"2024-06-11","dy":"42","visit":"WEEK 6","visitnum":"7.0","epoch":"TREATMENT"},{"seq":"50","testcd":"DIABP","test":"Diastolic Blood Pressure","cat":null,"orres":"48.0","orresu":"mmHg","stresc":"48.0","stresn":"48.0","stresu":"mmHg","stnrlo":null,"stnrhi":null,"nrind":null,"pos":null,"loc":null,"dtc":"2024-06-11","dy":"42","visit":"WEEK 6","visitnum":"7.0","epoch":"TREATMENT"},{"seq":"51","testcd":"HEIGHT","test":"Height","cat":null,"orres":"147.6","orresu":"cm","stresc":"147.6","stresn":"147.6","stresu":"cm","stnrlo":null,"stnrhi":null,"nrind":null,"pos":null,"loc":null,"dtc":"2024-06-11","dy":"42","visit":"WEEK 6","visitnum":"7.0","epoch":"TREATMENT"},{"seq":"52","testcd":"PULSE","test":"Pulse Rate","cat":null,"orres":"72.6","orresu":"beats/min","stresc":"72.6","stresn":"72.6","stresu":"beats/min","stnrlo":null,"stnrhi":null,"nrind":null,"pos":null,"loc":null,"dtc":"2024-06-11","dy":"42","visit":"WEEK 6","visitnum":"7.0","epoch":"TREATMENT"},{"seq":"53","testcd":"RESP","test":"Respiratory Rate","cat":null,"orres":"13.7","orresu":"breaths/min","stresc":"13.7","stresn":"13.7","stresu":"breaths/min","stnrlo":null,"stnrhi":null,"nrind":null,"pos":null,"loc":null,"dtc":"2024-06-11","dy":"42","visit":"WEEK 6","visitnum":"7.0","epoch":"TREATMENT"},{"seq":"54","testcd":"SYSBP","test":"Systolic Blood Pressure","cat":null,"orres":"110.2","orresu":"mmHg","stresc":"110.2","stresn":"110.2","stresu":"mmHg","stnrlo":null,"stnrhi":null,"nrind":null,"pos":null,"loc":null,"dtc":"2024-06-11","dy":"42","visit":"WEEK 6","visitnum":"7.0","epoch":"TREATMENT"},{"seq":"55","testcd":"TEMP","test":"Temperature","cat":null,"orres":"36.2","orresu":"C","stresc":"36.2","stresn":"36.2","stresu":"C","stnrlo":null,"stnrhi":null,"nrind":null,"pos":null,"loc":null,"dtc":"2024-06-11","dy":"42","visit":"WEEK 6","visitnum":"7.0","epoch":"TREATMENT"},{"seq":"56","testcd":"WEIGHT","test":"Weight","cat":null,"orres":"55.8","orresu":"kg","stresc":"55.8","stresn":"55.8","stresu":"kg","stnrlo":null,"stnrhi":null,"nrind":null,"pos":null,"loc":null,"dtc":"2024-06-11","dy":"42","visit":"WEEK 6","visitnum":"7.0","epoch":"TREATMENT"},{"seq":"57","testcd":"BMI","test":"BMI","cat":null,"orres":null,"orresu":null,"stresc":"24.2","stresn":"24.2","stresu":"kg/m2","stnrlo":null,"stnrhi":null,"nrind":null,"pos":null,"loc":null,"dtc":"2024-06-19","dy":"50","visit":"WEEK 7","visitnum":"8.0","epoch":"TREATMENT"},{"seq":"58","testcd":"DIABP","test":"Diastolic Blood Pressure","cat":null,"orres":"47.1","orresu":"mmHg","stresc":"47.1","stresn":"47.1","stresu":"mmHg","stnrlo":null,"stnrhi":null,"nrind":null,"pos":null,"loc":null,"dtc":"2024-06-19","dy":"50","visit":"WEEK 7","visitnum":"8.0","epoch":"TREATMENT"},{"seq":"59","testcd":"HEIGHT","test":"Height","cat":null,"orres":"147.2","orresu":"cm","stresc":"147.2","stresn":"147.2","stresu":"cm","stnrlo":null,"stnrhi":null,"nrind":null,"pos":null,"loc":null,"dtc":"2024-06-19","dy":"50","visit":"WEEK 7","visitnum":"8.0","epoch":"TREATMENT"},{"seq":"60","testcd":"PULSE","test":"Pulse Rate","cat":null,"orres":"69.5","orresu":"beats/min","stresc":"69.5","stresn":"69.5","stresu":"beats/min","stnrlo":null,"stnrhi":null,"nrind":null,"pos":null,"loc":null,"dtc":"2024-06-19","dy":"50","visit":"WEEK 7","visitnum":"8.0","epoch":"TREATMENT"},{"seq":"61","testcd":"RESP","test":"Respiratory Rate","cat":null,"orres":"13.2","orresu":"breaths/min","stresc":"13.2","stresn":"13.2","stresu":"breaths/min","stnrlo":null,"stnrhi":null,"nrind":null,"pos":null,"loc":null,"dtc":"2024-06-19","dy":"50","visit":"WEEK 7","visitnum":"8.0","epoch":"TREATMENT"},{"seq":"62","testcd":"SYSBP","test":"Systolic Blood Pressure","cat":null,"orres":null,"orresu":null,"stresc":null,"stresn":null,"stresu":null,"stnrlo":null,"stnrhi":null,"nrind":null,"pos":null,"loc":null,"dtc":"2024-06-19","dy":"50","visit":"WEEK 7","visitnum":"8.0","epoch":"TREATMENT"},{"seq":"63","testcd":"TEMP","test":"Temperature","cat":null,"orres":"36.0","orresu":"C","stresc":"36.0","stresn":"36.0","stresu":"C","stnrlo":null,"stnrhi":null,"nrind":null,"pos":null,"loc":null,"dtc":"2024-06-19","dy":"50","visit":"WEEK 7","visitnum":"8.0","epoch":"TREATMENT"},{"seq":"64","testcd":"WEIGHT","test":"Weight","cat":null,"orres":"52.5","orresu":"kg","stresc":"52.5","stresn":"52.5","stresu":"kg","stnrlo":null,"stnrhi":null,"nrind":null,"pos":null,"loc":null,"dtc":"2024-06-19","dy":"50","visit":"WEEK 7","visitnum":"8.0","epoch":"TREATMENT"},{"seq":"65","testcd":"BMI","test":"BMI","cat":null,"orres":null,"orresu":null,"stresc":"24.6","stresn":"24.6","stresu":"kg/m2","stnrlo":null,"stnrhi":null,"nrind":null,"pos":null,"loc":null,"dtc":"2024-06-27","dy":"58","visit":"WEEK 8 EOT","visitnum":"9.0","epoch":"TREATMENT"},{"seq":"66","testcd":"DIABP","test":"Diastolic Blood Pressure","cat":null,"orres":"42.7","orresu":"mmHg","stresc":"42.7","stresn":"42.7","stresu":"mmHg","stnrlo":null,"stnrhi":null,"nrind":null,"pos":null,"loc":null,"dtc":"2024-06-27","dy":"58","visit":"WEEK 8 EOT","visitnum":"9.0","epoch":"TREATMENT"},{"seq":"67","testcd":"HEIGHT","test":"Height","cat":null,"orres":"147.6","orresu":"cm","stresc":"147.6","stresn":"147.6","stresu":"cm","stnrlo":null,"stnrhi":null,"nrind":null,"pos":null,"loc":null,"dtc":"2024-06-27","dy":"58","visit":"WEEK 8 EOT","visitnum":"9.0","epoch":"TREATMENT"},{"seq":"68","testcd":"PULSE","test":"Pulse Rate","cat":null,"orres":"72.5","orresu":"beats/min","stresc":"72.5","stresn":"72.5","stresu":"beats/min","stnrlo":null,"stnrhi":null,"nrind":null,"pos":null,"loc":null,"dtc":"2024-06-27","dy":"58","visit":"WEEK 8 EOT","visitnum":"9.0","epoch":"TREATMENT"},{"seq":"69","testcd":"RESP","test":"Respiratory Rate","cat":null,"orres":"12.7","orresu":"breaths/min","stresc":"12.7","stresn":"12.7","stresu":"breaths/min","stnrlo":null,"stnrhi":null,"nrind":null,"pos":null,"loc":null,"dtc":"2024-06-27","dy":"58","visit":"WEEK 8 EOT","visitnum":"9.0","epoch":"TREATMENT"},{"seq":"70","testcd":"SYSBP","test":"Systolic Blood Pressure","cat":null,"orres":"107.7","orresu":"mmHg","stresc":"107.7","stresn":"107.7","stresu":"mmHg","stnrlo":null,"stnrhi":null,"nrind":null,"pos":null,"loc":null,"dtc":"2024-06-27","dy":"58","visit":"WEEK 8 EOT","visitnum":"9.0","epoch":"TREATMENT"},{"seq":"71","testcd":"TEMP","test":"Temperature","cat":null,"orres":"35.9","orresu":"C","stresc":"35.9","stresn":"35.9","stresu":"C","stnrlo":null,"stnrhi":null,"nrind":null,"pos":null,"loc":null,"dtc":"2024-06-27","dy":"58","visit":"WEEK 8 EOT","visitnum":"9.0","epoch":"TREATMENT"},{"seq":"72","testcd":"WEIGHT","test":"Weight","cat":null,"orres":"53.5","orresu":"kg","stresc":"53.5","stresn":"53.5","stresu":"kg","stnrlo":null,"stnrhi":null,"nrind":null,"pos":null,"loc":null,"dtc":"2024-06-27","dy":"58","visit":"WEEK 8 EOT","visitnum":"9.0","epoch":"TREATMENT"},{"seq":"73","testcd":"BMI","test":"BMI","cat":null,"orres":null,"orresu":null,"stresc":"23.4","stresn":"23.4","stresu":"kg/m2","stnrlo":null,"stnrhi":null,"nrind":null,"pos":null,"loc":null,"dtc":"2024-07-18","dy":"79","visit":"SAFETY FU WEEK 4","visitnum":"10.0","epoch":"FOLLOW-UP"},{"seq":"74","testcd":"DIABP","test":"Diastolic Blood Pressure","cat":null,"orres":"42.4","orresu":"mmHg","stresc":"42.4","stresn":"42.4","stresu":"mmHg","stnrlo":null,"stnrhi":null,"nrind":null,"pos":null,"loc":null,"dtc":"2024-07-18","dy":"79","visit":"SAFETY FU WEEK 4","visitnum":"10.0","epoch":"FOLLOW-UP"},{"seq":"75","testcd":"HEIGHT","test":"Height","cat":null,"orres":"147.5","orresu":"cm","stresc":"147.5","stresn":"147.5","stresu":"cm","stnrlo":null,"stnrhi":null,"nrind":null,"pos":null,"loc":null,"dtc":"2024-07-18","dy":"79","visit":"SAFETY FU WEEK 4","visitnum":"10.0","epoch":"FOLLOW-UP"},{"seq":"76","testcd":"PULSE","test":"Pulse Rate","cat":null,"orres":"76.8","orresu":"beats/min","stresc":"76.8","stresn":"76.8","stresu":"beats/min","stnrlo":null,"stnrhi":null,"nrind":null,"pos":null,"loc":null,"dtc":"2024-07-18","dy":"79","visit":"SAFETY FU WEEK 4","visitnum":"10.0","epoch":"FOLLOW-UP"},{"seq":"77","testcd":"RESP","test":"Respiratory Rate","cat":null,"orres":"12.7","orresu":"breaths/min","stresc":"12.7","stresn":"12.7","stresu":"breaths/min","stnrlo":null,"stnrhi":null,"nrind":null,"pos":null,"loc":null,"dtc":"2024-07-18","dy":"79","visit":"SAFETY FU WEEK 4","visitnum":"10.0","epoch":"FOLLOW-UP"},{"seq":"78","testcd":"SYSBP","test":"Systolic Blood Pressure","cat":null,"orres":"106.2","orresu":"mmHg","stresc":"106.2","stresn":"106.2","stresu":"mmHg","stnrlo":null,"stnrhi":null,"nrind":null,"pos":null,"loc":null,"dtc":"2024-07-18","dy":"79","visit":"SAFETY FU WEEK 4","visitnum":"10.0","epoch":"FOLLOW-UP"},{"seq":"79","testcd":"TEMP","test":"Temperature","cat":null,"orres":"36.1","orresu":"C","stresc":"36.1","stresn":"36.1","stresu":"C","stnrlo":null,"stnrhi":null,"nrind":null,"pos":null,"loc":null,"dtc":"2024-07-18","dy":"79","visit":"SAFETY FU WEEK 4","visitnum":"10.0","epoch":"FOLLOW-UP"},{"seq":"80","testcd":"WEIGHT","test":"Weight","cat":null,"orres":"51.0","orresu":"kg","stresc":"51.0","stresn":"51.0","stresu":"kg","stnrlo":null,"stnrhi":null,"nrind":null,"pos":null,"loc":null,"dtc":"2024-07-18","dy":"79","visit":"SAFETY FU WEEK 4","visitnum":"10.0","epoch":"FOLLOW-UP"},{"seq":"81","testcd":"BMI","test":"BMI","cat":null,"orres":null,"orresu":null,"stresc":"24.7","stresn":"24.7","stresu":"kg/m2","stnrlo":null,"stnrhi":null,"nrind":null,"pos":null,"loc":null,"dtc":"2024-08-28","dy":"120","visit":"SAFETY FU WEEK 8","visitnum":"11.0","epoch":"FOLLOW-UP"},{"seq":"82","testcd":"DIABP","test":"Diastolic Blood Pressure","cat":null,"orres":"42.4","orresu":"mmHg","stresc":"42.4","stresn":"42.4","stresu":"mmHg","stnrlo":null,"stnrhi":null,"nrind":null,"pos":null,"loc":null,"dtc":"2024-08-28","dy":"120","visit":"SAFETY FU WEEK 8","visitnum":"11.0","epoch":"FOLLOW-UP"},{"seq":"83","testcd":"HEIGHT","test":"Height","cat":null,"orres":"147.1","orresu":"cm","stresc":"147.1","stresn":"147.1","stresu":"cm","stnrlo":null,"stnrhi":null,"nrind":null,"pos":null,"loc":null,"dtc":"2024-08-28","dy":"120","visit":"SAFETY FU WEEK 8","visitnum":"11.0","epoch":"FOLLOW-UP"},{"seq":"84","testcd":"PULSE","test":"Pulse Rate","cat":null,"orres":"79.9","orresu":"beats/min","stresc":"79.9","stresn":"79.9","stresu":"beats/min","stnrlo":null,"stnrhi":null,"nrind":null,"pos":null,"loc":null,"dtc":"2024-08-28","dy":"120","visit":"SAFETY FU WEEK 8","visitnum":"11.0","epoch":"FOLLOW-UP"},{"seq":"85","testcd":"RESP","test":"Respiratory Rate","cat":null,"orres":"13.0","orresu":"breaths/min","stresc":"13.0","stresn":"13.0","stresu":"breaths/min","stnrlo":null,"stnrhi":null,"nrind":null,"pos":null,"loc":null,"dtc":"2024-08-28","dy":"120","visit":"SAFETY FU WEEK 8","visitnum":"11.0","epoch":"FOLLOW-UP"},{"seq":"86","testcd":"SYSBP","test":"Systolic Blood Pressure","cat":null,"orres":"107.2","orresu":"mmHg","stresc":"107.2","stresn":"107.2","stresu":"mmHg","stnrlo":null,"stnrhi":null,"nrind":null,"pos":null,"loc":null,"dtc":"2024-08-28","dy":"120","visit":"SAFETY FU WEEK 8","visitnum":"11.0","epoch":"FOLLOW-UP"},{"seq":"87","testcd":"TEMP","test":"Temperature","cat":null,"orres":"36.2","orresu":"C","stresc":"36.2","stresn":"36.2","stresu":"C","stnrlo":null,"stnrhi":null,"nrind":null,"pos":null,"loc":null,"dtc":"2024-08-28","dy":"120","visit":"SAFETY FU WEEK 8","visitnum":"11.0","epoch":"FOLLOW-UP"},{"seq":"88","testcd":"WEIGHT","test":"Weight","cat":null,"orres":"53.5","orresu":"kg","stresc":"53.5","stresn":"53.5","stresu":"kg","stnrlo":null,"stnrhi":null,"nrind":null,"pos":null,"loc":null,"dtc":"2024-08-28","dy":"120","visit":"SAFETY FU WEEK 8","visitnum":"11.0","epoch":"FOLLOW-UP"}]},"section_10_questionnaires_and_scores":{"questionnaires":[{"seq":"1","testcd":"MADRS01","test":"Apparent Sadness","cat":"MADRS","scat":null,"orres":"2","stresc":"2","stresn":"2.0","dtc":"2024-04-07","dy":"-24","visit":"SCREENING","visitnum":"1.0"},{"seq":"2","testcd":"MADRS02","test":"Reported Sadness","cat":"MADRS","scat":null,"orres":"3","stresc":"3","stresn":"3.0","dtc":"2024-04-07","dy":"-24","visit":"SCREENING","visitnum":"1.0"},{"seq":"3","testcd":"MADRS03","test":"Inner Tension","cat":"MADRS","scat":null,"orres":"3","stresc":"3","stresn":"3.0","dtc":"2024-04-07","dy":"-24","visit":"SCREENING","visitnum":"1.0"},{"seq":"4","testcd":"MADRS04","test":"Reduced Sleep","cat":"MADRS","scat":null,"orres":"4","stresc":"4","stresn":"4.0","dtc":"2024-04-07","dy":"-24","visit":"SCREENING","visitnum":"1.0"},{"seq":"5","testcd":"MADRS05","test":"Reduced Appetite","cat":"MADRS","scat":null,"orres":"2","stresc":"2","stresn":"2.0","dtc":"2024-04-07","dy":"-24","visit":"SCREENING","visitnum":"1.0"},{"seq":"6","testcd":"MADRS06","test":"Concentration Difficulties","cat":"MADRS","scat":null,"orres":"4","stresc":"4","stresn":"4.0","dtc":"2024-04-07","dy":"-24","visit":"SCREENING","visitnum":"1.0"},{"seq":"7","testcd":"MADRS07","test":"Lassitude","cat":"MADRS","scat":null,"orres":"4","stresc":"4","stresn":"4.0","dtc":"2024-04-07","dy":"-24","visit":"SCREENING","visitnum":"1.0"},{"seq":"8","testcd":"MADRS08","test":"Inability to Feel","cat":"MADRS","scat":null,"orres":"4","stresc":"4","stresn":"4.0","dtc":"2024-04-07","dy":"-24","visit":"SCREENING","visitnum":"1.0"},{"seq":"9","testcd":"MADRS09","test":"Pessimistic Thoughts","cat":"MADRS","scat":null,"orres":"4","stresc":"4","stresn":"4.0","dtc":"2024-04-07","dy":"-24","visit":"SCREENING","visitnum":"1.0"},{"seq":"10","testcd":"MADRS10","test":"Suicidal Thoughts","cat":"MADRS","scat":null,"orres":"4","stresc":"4","stresn":"4.0","dtc":"2024-04-07","dy":"-24","visit":"SCREENING","visitnum":"1.0"},{"seq":"11","testcd":"MADRSTOT","test":"MADRS Total Score","cat":"MADRS","scat":"TOTAL","orres":"34.0","stresc":"34.0","stresn":"34.0","dtc":"2024-04-07","dy":"-24","visit":"SCREENING","visitnum":"1.0"},{"seq":"12","testcd":"MADRS01","test":"Apparent Sadness","cat":"MADRS","scat":null,"orres":"3","stresc":"3","stresn":"3.0","dtc":"2024-05-01","dy":"1","visit":"DAY 1 LOADING","visitnum":"2.0"},{"seq":"13","testcd":"MADRS02","test":"Reported Sadness","cat":"MADRS","scat":null,"orres":"3","stresc":"3","stresn":"3.0","dtc":"2024-05-01","dy":"1","visit":"DAY 1 LOADING","visitnum":"2.0"},{"seq":"14","testcd":"MADRS03","test":"Inner Tension","cat":"MADRS","scat":null,"orres":"4","stresc":"4","stresn":"4.0","dtc":"2024-05-01","dy":"1","visit":"DAY 1 LOADING","visitnum":"2.0"},{"seq":"15","testcd":"MADRS04","test":"Reduced Sleep","cat":"MADRS","scat":null,"orres":"3","stresc":"3","stresn":"3.0","dtc":"2024-05-01","dy":"1","visit":"DAY 1 LOADING","visitnum":"2.0"},{"seq":"16","testcd":"MADRS05","test":"Reduced Appetite","cat":"MADRS","scat":null,"orres":"5","stresc":"5","stresn":"5.0","dtc":"2024-05-01","dy":"1","visit":"DAY 1 LOADING","visitnum":"2.0"},{"seq":"17","testcd":"MADRS06","test":"Concentration Difficulties","cat":"MADRS","scat":null,"orres":"4","stresc":"4","stresn":"4.0","dtc":"2024-05-01","dy":"1","visit":"DAY 1 LOADING","visitnum":"2.0"},{"seq":"18","testcd":"MADRS07","test":"Lassitude","cat":"MADRS","scat":null,"orres":"3","stresc":"3","stresn":"3.0","dtc":"2024-05-01","dy":"1","visit":"DAY 1 LOADING","visitnum":"2.0"},{"seq":"19","testcd":"MADRS08","test":"Inability to Feel","cat":"MADRS","scat":null,"orres":"5","stresc":"5","stresn":"5.0","dtc":"2024-05-01","dy":"1","visit":"DAY 1 LOADING","visitnum":"2.0"},{"seq":"20","testcd":"MADRS09","test":"Pessimistic Thoughts","cat":"MADRS","scat":null,"orres":"5","stresc":"5","stresn":"5.0","dtc":"2024-05-01","dy":"1","visit":"DAY 1 LOADING","visitnum":"2.0"},{"seq":"21","testcd":"MADRS10","test":"Suicidal Thoughts","cat":"MADRS","scat":null,"orres":"2","stresc":"2","stresn":"2.0","dtc":"2024-05-01","dy":"1","visit":"DAY 1 LOADING","visitnum":"2.0"},{"seq":"22","testcd":"MADRSTOT","test":"MADRS Total Score","cat":"MADRS","scat":"TOTAL","orres":"37.0","stresc":"37.0","stresn":"37.0","dtc":"2024-05-01","dy":"1","visit":"DAY 1 LOADING","visitnum":"2.0"},{"seq":"23","testcd":"MADRS01","test":"Apparent Sadness","cat":"MADRS","scat":null,"orres":"3","stresc":"3","stresn":"3.0","dtc":"2024-05-15","dy":"15","visit":"WEEK 2","visitnum":"3.0"},{"seq":"24","testcd":"MADRS02","test":"Reported Sadness","cat":"MADRS","scat":null,"orres":"2","stresc":"2","stresn":"2.0","dtc":"2024-05-15","dy":"15","visit":"WEEK 2","visitnum":"3.0"},{"seq":"25","testcd":"MADRS03","test":"Inner Tension","cat":"MADRS","scat":null,"orres":"3","stresc":"3","stresn":"3.0","dtc":"2024-05-15","dy":"15","visit":"WEEK 2","visitnum":"3.0"},{"seq":"26","testcd":"MADRS04","test":"Reduced Sleep","cat":"MADRS","scat":null,"orres":"2","stresc":"2","stresn":"2.0","dtc":"2024-05-15","dy":"15","visit":"WEEK 2","visitnum":"3.0"},{"seq":"27","testcd":"MADRS05","test":"Reduced Appetite","cat":"MADRS","scat":null,"orres":"4","stresc":"4","stresn":"4.0","dtc":"2024-05-15","dy":"15","visit":"WEEK 2","visitnum":"3.0"},{"seq":"28","testcd":"MADRS06","test":"Concentration Difficulties","cat":"MADRS","scat":null,"orres":"4","stresc":"4","stresn":"4.0","dtc":"2024-05-15","dy":"15","visit":"WEEK 2","visitnum":"3.0"},{"seq":"29","testcd":"MADRS07","test":"Lassitude","cat":"MADRS","scat":null,"orres":"4","stresc":"4","stresn":"4.0","dtc":"2024-05-15","dy":"15","visit":"WEEK 2","visitnum":"3.0"},{"seq":"30","testcd":"MADRS08","test":"Inability to Feel","cat":"MADRS","scat":null,"orres":"3","stresc":"3","stresn":"3.0","dtc":"2024-05-15","dy":"15","visit":"WEEK 2","visitnum":"3.0"},{"seq":"31","testcd":"MADRS09","test":"Pessimistic Thoughts","cat":"MADRS","scat":null,"orres":"1","stresc":"1","stresn":"1.0","dtc":"2024-05-15","dy":"15","visit":"WEEK 2","visitnum":"3.0"},{"seq":"32","testcd":"MADRS10","test":"Suicidal Thoughts","cat":"MADRS","scat":null,"orres":"2","stresc":"2","stresn":"2.0","dtc":"2024-05-15","dy":"15","visit":"WEEK 2","visitnum":"3.0"},{"seq":"33","testcd":"MADRSTOT","test":"MADRS Total Score","cat":"MADRS","scat":"TOTAL","orres":"28.0","stresc":"28.0","stresn":"28.0","dtc":"2024-05-15","dy":"15","visit":"WEEK 2","visitnum":"3.0"},{"seq":"34","testcd":"MADRS01","test":"Apparent Sadness","cat":"MADRS","scat":null,"orres":"2","stresc":"2","stresn":"2.0","dtc":"2024-05-22","dy":"22","visit":"WEEK 3","visitnum":"4.0"},{"seq":"35","testcd":"MADRS02","test":"Reported Sadness","cat":"MADRS","scat":null,"orres":"2","stresc":"2","stresn":"2.0","dtc":"2024-05-22","dy":"22","visit":"WEEK 3","visitnum":"4.0"},{"seq":"36","testcd":"MADRS03","test":"Inner Tension","cat":"MADRS","scat":null,"orres":"2","stresc":"2","stresn":"2.0","dtc":"2024-05-22","dy":"22","visit":"WEEK 3","visitnum":"4.0"},{"seq":"37","testcd":"MADRS04","test":"Reduced Sleep","cat":"MADRS","scat":null,"orres":"3","stresc":"3","stresn":"3.0","dtc":"2024-05-22","dy":"22","visit":"WEEK 3","visitnum":"4.0"},{"seq":"38","testcd":"MADRS05","test":"Reduced Appetite","cat":"MADRS","scat":null,"orres":"4","stresc":"4","stresn":"4.0","dtc":"2024-05-22","dy":"22","visit":"WEEK 3","visitnum":"4.0"},{"seq":"39","testcd":"MADRS06","test":"Concentration Difficulties","cat":"MADRS","scat":null,"orres":"3","stresc":"3","stresn":"3.0","dtc":"2024-05-22","dy":"22","visit":"WEEK 3","visitnum":"4.0"},{"seq":"40","testcd":"MADRS07","test":"Lassitude","cat":"MADRS","scat":null,"orres":"3","stresc":"3","stresn":"3.0","dtc":"2024-05-22","dy":"22","visit":"WEEK 3","visitnum":"4.0"},{"seq":"41","testcd":"MADRS08","test":"Inability to Feel","cat":"MADRS","scat":null,"orres":"4","stresc":"4","stresn":"4.0","dtc":"2024-05-22","dy":"22","visit":"WEEK 3","visitnum":"4.0"},{"seq":"42","testcd":"MADRS09","test":"Pessimistic Thoughts","cat":"MADRS","scat":null,"orres":"1","stresc":"1","stresn":"1.0","dtc":"2024-05-22","dy":"22","visit":"WEEK 3","visitnum":"4.0"},{"seq":"43","testcd":"MADRS10","test":"Suicidal Thoughts","cat":"MADRS","scat":null,"orres":"1","stresc":"1","stresn":"1.0","dtc":"2024-05-22","dy":"22","visit":"WEEK 3","visitnum":"4.0"},{"seq":"44","testcd":"MADRSTOT","test":"MADRS Total Score","cat":"MADRS","scat":"TOTAL","orres":"25.0","stresc":"25.0","stresn":"25.0","dtc":"2024-05-22","dy":"22","visit":"WEEK 3","visitnum":"4.0"},{"seq":"45","testcd":"MADRS01","test":"Apparent Sadness","cat":"MADRS","scat":null,"orres":"3","stresc":"3","stresn":"3.0","dtc":"2024-05-29","dy":"29","visit":"WEEK 4","visitnum":"5.0"},{"seq":"46","testcd":"MADRS02","test":"Reported Sadness","cat":"MADRS","scat":null,"orres":"5","stresc":"5","stresn":"5.0","dtc":"2024-05-29","dy":"29","visit":"WEEK 4","visitnum":"5.0"},{"seq":"47","testcd":"MADRS03","test":"Inner Tension","cat":"MADRS","scat":null,"orres":"4","stresc":"4","stresn":"4.0","dtc":"2024-05-29","dy":"29","visit":"WEEK 4","visitnum":"5.0"},{"seq":"48","testcd":"MADRS04","test":"Reduced Sleep","cat":"MADRS","scat":null,"orres":"2","stresc":"2","stresn":"2.0","dtc":"2024-05-29","dy":"29","visit":"WEEK 4","visitnum":"5.0"},{"seq":"49","testcd":"MADRS05","test":"Reduced Appetite","cat":"MADRS","scat":null,"orres":"3","stresc":"3","stresn":"3.0","dtc":"2024-05-29","dy":"29","visit":"WEEK 4","visitnum":"5.0"},{"seq":"50","testcd":"MADRS06","test":"Concentration Difficulties","cat":"MADRS","scat":null,"orres":"4","stresc":"4","stresn":"4.0","dtc":"2024-05-29","dy":"29","visit":"WEEK 4","visitnum":"5.0"},{"seq":"51","testcd":"MADRS07","test":"Lassitude","cat":"MADRS","scat":null,"orres":"3","stresc":"3","stresn":"3.0","dtc":"2024-05-29","dy":"29","visit":"WEEK 4","visitnum":"5.0"},{"seq":"52","testcd":"MADRS08","test":"Inability to Feel","cat":"MADRS","scat":null,"orres":"0","stresc":"0","stresn":"0.0","dtc":"2024-05-29","dy":"29","visit":"WEEK 4","visitnum":"5.0"},{"seq":"53","testcd":"MADRS09","test":"Pessimistic Thoughts","cat":"MADRS","scat":null,"orres":"3","stresc":"3","stresn":"3.0","dtc":"2024-05-29","dy":"29","visit":"WEEK 4","visitnum":"5.0"},{"seq":"54","testcd":"MADRS10","test":"Suicidal Thoughts","cat":"MADRS","scat":null,"orres":"3","stresc":"3","stresn":"3.0","dtc":"2024-05-29","dy":"29","visit":"WEEK 4","visitnum":"5.0"},{"seq":"55","testcd":"MADRSTOT","test":"MADRS Total Score","cat":"MADRS","scat":"TOTAL","orres":"30.0","stresc":"30.0","stresn":"30.0","dtc":"2024-05-29","dy":"29","visit":"WEEK 4","visitnum":"5.0"},{"seq":"56","testcd":"MADRS01","test":"Apparent Sadness","cat":"MADRS","scat":null,"orres":"2","stresc":"2","stresn":"2.0","dtc":"2024-06-05","dy":"36","visit":"WEEK 5","visitnum":"6.0"},{"seq":"57","testcd":"MADRS02","test":"Reported Sadness","cat":"MADRS","scat":null,"orres":"2","stresc":"2","stresn":"2.0","dtc":"2024-06-05","dy":"36","visit":"WEEK 5","visitnum":"6.0"},{"seq":"58","testcd":"MADRS03","test":"Inner Tension","cat":"MADRS","scat":null,"orres":"2","stresc":"2","stresn":"2.0","dtc":"2024-06-05","dy":"36","visit":"WEEK 5","visitnum":"6.0"},{"seq":"59","testcd":"MADRS04","test":"Reduced Sleep","cat":"MADRS","scat":null,"orres":"3","stresc":"3","stresn":"3.0","dtc":"2024-06-05","dy":"36","visit":"WEEK 5","visitnum":"6.0"},{"seq":"60","testcd":"MADRS05","test":"Reduced Appetite","cat":"MADRS","scat":null,"orres":"3","stresc":"3","stresn":"3.0","dtc":"2024-06-05","dy":"36","visit":"WEEK 5","visitnum":"6.0"},{"seq":"61","testcd":"MADRS06","test":"Concentration Difficulties","cat":"MADRS","scat":null,"orres":"4","stresc":"4","stresn":"4.0","dtc":"2024-06-05","dy":"36","visit":"WEEK 5","visitnum":"6.0"},{"seq":"62","testcd":"MADRS07","test":"Lassitude","cat":"MADRS","scat":null,"orres":"2","stresc":"2","stresn":"2.0","dtc":"2024-06-05","dy":"36","visit":"WEEK 5","visitnum":"6.0"},{"seq":"63","testcd":"MADRS08","test":"Inability to Feel","cat":"MADRS","scat":null,"orres":"1","stresc":"1","stresn":"1.0","dtc":"2024-06-05","dy":"36","visit":"WEEK 5","visitnum":"6.0"},{"seq":"64","testcd":"MADRS09","test":"Pessimistic Thoughts","cat":"MADRS","scat":null,"orres":"3","stresc":"3","stresn":"3.0","dtc":"2024-06-05","dy":"36","visit":"WEEK 5","visitnum":"6.0"},{"seq":"65","testcd":"MADRS10","test":"Suicidal Thoughts","cat":"MADRS","scat":null,"orres":"3","stresc":"3","stresn":"3.0","dtc":"2024-06-05","dy":"36","visit":"WEEK 5","visitnum":"6.0"},{"seq":"66","testcd":"MADRSTOT","test":"MADRS Total Score","cat":"MADRS","scat":"TOTAL","orres":"25.0","stresc":"25.0","stresn":"25.0","dtc":"2024-06-05","dy":"36","visit":"WEEK 5","visitnum":"6.0"},{"seq":"67","testcd":"MADRS01","test":"Apparent Sadness","cat":"MADRS","scat":null,"orres":"2","stresc":"2","stresn":"2.0","dtc":"2024-06-12","dy":"43","visit":"WEEK 6","visitnum":"7.0"},{"seq":"68","testcd":"MADRS02","test":"Reported Sadness","cat":"MADRS","scat":null,"orres":"2","stresc":"2","stresn":"2.0","dtc":"2024-06-12","dy":"43","visit":"WEEK 6","visitnum":"7.0"},{"seq":"69","testcd":"MADRS03","test":"Inner Tension","cat":"MADRS","scat":null,"orres":"1","stresc":"1","stresn":"1.0","dtc":"2024-06-12","dy":"43","visit":"WEEK 6","visitnum":"7.0"},{"seq":"70","testcd":"MADRS04","test":"Reduced Sleep","cat":"MADRS","scat":null,"orres":"3","stresc":"3","stresn":"3.0","dtc":"2024-06-12","dy":"43","visit":"WEEK 6","visitnum":"7.0"},{"seq":"71","testcd":"MADRS05","test":"Reduced Appetite","cat":"MADRS","scat":null,"orres":"2","stresc":"2","stresn":"2.0","dtc":"2024-06-12","dy":"43","visit":"WEEK 6","visitnum":"7.0"},{"seq":"72","testcd":"MADRS06","test":"Concentration Difficulties","cat":"MADRS","scat":null,"orres":"3","stresc":"3","stresn":"3.0","dtc":"2024-06-12","dy":"43","visit":"WEEK 6","visitnum":"7.0"},{"seq":"73","testcd":"MADRS07","test":"Lassitude","cat":"MADRS","scat":null,"orres":"3","stresc":"3","stresn":"3.0","dtc":"2024-06-12","dy":"43","visit":"WEEK 6","visitnum":"7.0"},{"seq":"74","testcd":"MADRS08","test":"Inability to Feel","cat":"MADRS","scat":null,"orres":"2","stresc":"2","stresn":"2.0","dtc":"2024-06-12","dy":"43","visit":"WEEK 6","visitnum":"7.0"},{"seq":"75","testcd":"MADRS09","test":"Pessimistic Thoughts","cat":"MADRS","scat":null,"orres":"3","stresc":"3","stresn":"3.0","dtc":"2024-06-12","dy":"43","visit":"WEEK 6","visitnum":"7.0"},{"seq":"76","testcd":"MADRS10","test":"Suicidal Thoughts","cat":"MADRS","scat":null,"orres":"3","stresc":"3","stresn":"3.0","dtc":"2024-06-12","dy":"43","visit":"WEEK 6","visitnum":"7.0"},{"seq":"77","testcd":"MADRSTOT","test":"MADRS Total Score","cat":"MADRS","scat":"TOTAL","orres":"24.0","stresc":"24.0","stresn":"24.0","dtc":"2024-06-12","dy":"43","visit":"WEEK 6","visitnum":"7.0"},{"seq":"78","testcd":"MADRS01","test":"Apparent Sadness","cat":"MADRS","scat":null,"orres":"3","stresc":"3","stresn":"3.0","dtc":"2024-06-19","dy":"50","visit":"WEEK 7","visitnum":"8.0"},{"seq":"79","testcd":"MADRS02","test":"Reported Sadness","cat":"MADRS","scat":null,"orres":"2","stresc":"2","stresn":"2.0","dtc":"2024-06-19","dy":"50","visit":"WEEK 7","visitnum":"8.0"},{"seq":"80","testcd":"MADRS03","test":"Inner Tension","cat":"MADRS","scat":null,"orres":"2","stresc":"2","stresn":"2.0","dtc":"2024-06-19","dy":"50","visit":"WEEK 7","visitnum":"8.0"},{"seq":"81","testcd":"MADRS04","test":"Reduced Sleep","cat":"MADRS","scat":null,"orres":"2","stresc":"2","stresn":"2.0","dtc":"2024-06-19","dy":"50","visit":"WEEK 7","visitnum":"8.0"},{"seq":"82","testcd":"MADRS05","test":"Reduced Appetite","cat":"MADRS","scat":null,"orres":"3","stresc":"3","stresn":"3.0","dtc":"2024-06-19","dy":"50","visit":"WEEK 7","visitnum":"8.0"},{"seq":"83","testcd":"MADRS06","test":"Concentration Difficulties","cat":"MADRS","scat":null,"orres":"3","stresc":"3","stresn":"3.0","dtc":"2024-06-19","dy":"50","visit":"WEEK 7","visitnum":"8.0"},{"seq":"84","testcd":"MADRS07","test":"Lassitude","cat":"MADRS","scat":null,"orres":"1","stresc":"1","stresn":"1.0","dtc":"2024-06-19","dy":"50","visit":"WEEK 7","visitnum":"8.0"},{"seq":"85","testcd":"MADRS08","test":"Inability to Feel","cat":"MADRS","scat":null,"orres":"2","stresc":"2","stresn":"2.0","dtc":"2024-06-19","dy":"50","visit":"WEEK 7","visitnum":"8.0"},{"seq":"86","testcd":"MADRS09","test":"Pessimistic Thoughts","cat":"MADRS","scat":null,"orres":"2","stresc":"2","stresn":"2.0","dtc":"2024-06-19","dy":"50","visit":"WEEK 7","visitnum":"8.0"},{"seq":"87","testcd":"MADRS10","test":"Suicidal Thoughts","cat":"MADRS","scat":null,"orres":"2","stresc":"2","stresn":"2.0","dtc":"2024-06-19","dy":"50","visit":"WEEK 7","visitnum":"8.0"},{"seq":"88","testcd":"MADRSTOT","test":"MADRS Total Score","cat":"MADRS","scat":"TOTAL","orres":"22.0","stresc":"22.0","stresn":"22.0","dtc":"2024-06-19","dy":"50","visit":"WEEK 7","visitnum":"8.0"},{"seq":"89","testcd":"MADRS01","test":"Apparent Sadness","cat":"MADRS","scat":null,"orres":"4","stresc":"4","stresn":"4.0","dtc":"2024-06-26","dy":"57","visit":"WEEK 8 EOT","visitnum":"9.0"},{"seq":"90","testcd":"MADRS02","test":"Reported Sadness","cat":"MADRS","scat":null,"orres":"4","stresc":"4","stresn":"4.0","dtc":"2024-06-26","dy":"57","visit":"WEEK 8 EOT","visitnum":"9.0"},{"seq":"91","testcd":"MADRS03","test":"Inner Tension","cat":"MADRS","scat":null,"orres":"2","stresc":"2","stresn":"2.0","dtc":"2024-06-26","dy":"57","visit":"WEEK 8 EOT","visitnum":"9.0"},{"seq":"92","testcd":"MADRS04","test":"Reduced Sleep","cat":"MADRS","scat":null,"orres":"2","stresc":"2","stresn":"2.0","dtc":"2024-06-26","dy":"57","visit":"WEEK 8 EOT","visitnum":"9.0"},{"seq":"93","testcd":"MADRS05","test":"Reduced Appetite","cat":"MADRS","scat":null,"orres":"2","stresc":"2","stresn":"2.0","dtc":"2024-06-26","dy":"57","visit":"WEEK 8 EOT","visitnum":"9.0"},{"seq":"94","testcd":"MADRS06","test":"Concentration Difficulties","cat":"MADRS","scat":null,"orres":"3","stresc":"3","stresn":"3.0","dtc":"2024-06-26","dy":"57","visit":"WEEK 8 EOT","visitnum":"9.0"},{"seq":"95","testcd":"MADRS07","test":"Lassitude","cat":"MADRS","scat":null,"orres":"3","stresc":"3","stresn":"3.0","dtc":"2024-06-26","dy":"57","visit":"WEEK 8 EOT","visitnum":"9.0"},{"seq":"96","testcd":"MADRS08","test":"Inability to Feel","cat":"MADRS","scat":null,"orres":"3","stresc":"3","stresn":"3.0","dtc":"2024-06-26","dy":"57","visit":"WEEK 8 EOT","visitnum":"9.0"},{"seq":"97","testcd":"MADRS09","test":"Pessimistic Thoughts","cat":"MADRS","scat":null,"orres":"1","stresc":"1","stresn":"1.0","dtc":"2024-06-26","dy":"57","visit":"WEEK 8 EOT","visitnum":"9.0"},{"seq":"98","testcd":"MADRS10","test":"Suicidal Thoughts","cat":"MADRS","scat":null,"orres":"2","stresc":"2","stresn":"2.0","dtc":"2024-06-26","dy":"57","visit":"WEEK 8 EOT","visitnum":"9.0"},{"seq":"99","testcd":"MADRSTOT","test":"MADRS Total Score","cat":"MADRS","scat":"TOTAL","orres":"26.0","stresc":"26.0","stresn":"26.0","dtc":"2024-06-26","dy":"57","visit":"WEEK 8 EOT","visitnum":"9.0"}],"findings_about":[]},"section_11_protocol_deviations":{"deviations":[{"seq":"1","term":"Visit WEEK 3 occurred 2 days early (Day 20 vs planned Day 22)","decod":"VISIT OCCURRED OUTSIDE VISIT WINDOW","cat":"MINOR","scat":"VISIT WINDOW","start_dtc":"2024-05-20","end_dtc":null,"visit":null},{"seq":"2","term":"Visit WEEK 6 occurred 1 days early (Day 42 vs planned Day 43)","decod":"VISIT OCCURRED OUTSIDE VISIT WINDOW","cat":"MINOR","scat":"VISIT WINDOW","start_dtc":"2024-06-11","end_dtc":null,"visit":null},{"seq":"3","term":"Visit WEEK 7 occurred 0 days late (Day 50 vs planned Day 50)","decod":"VISIT OCCURRED OUTSIDE VISIT WINDOW","cat":"MINOR","scat":"VISIT WINDOW","start_dtc":"2024-06-19","end_dtc":null,"visit":null}],"total":3},"section_12_disposition":{"completion_status":"COMPLETED","disposition_records":[{"seq":"1","term":"INFORMED CONSENT OBTAINED","decod":"INFORMED CONSENT OBTAINED","cat":"PROTOCOL MILESTONE","scat":null,"dtc":"2024-04-07","dy":null,"visit":null,"epoch":"SCREENING"},{"seq":"2","term":"RANDOMIZED","decod":"RANDOMIZED","cat":"PROTOCOL MILESTONE","scat":null,"dtc":"2024-05-01","dy":null,"visit":null,"epoch":"TREATMENT"},{"seq":"3","term":"COMPLETED","decod":"COMPLETED","cat":"DISPOSITION EVENT","scat":null,"dtc":"2024-09-17","dy":null,"visit":null,"epoch":"FOLLOW-UP"}],"death":null},"section_13_hospitalizations":{"items":[],"total":0},"section_14_substance_use":{"items":[{"seq":"1","substance":"BEER/WINE/SPIRITS","decod":"ETHANOL","cat":"ALCOHOL","scat":null,"usage":"Y","dose":"13.0","dosu":"DRINKS/WEEK","freq":"QW","start_dtc":"2014-04-10","end_dtc":null},{"seq":"2","substance":"COFFEE","decod":"COFFEE","cat":"CAFFEINE","scat":null,"usage":"Y","dose":"2.0","dosu":"CUPS/DAY","freq":"QD","start_dtc":"2003-04-13","end_dtc":null},{"seq":"3","substance":"CIGARETTES","decod":"CIGARETTES","cat":"TOBACCO","scat":null,"usage":"Y","dose":"27.0","dosu":"CIGARETTES/DAY","freq":"QD","start_dtc":"2003-04-13","end_dtc":null}],"total":3},"section_15_subject_status":{"items":[{"seq":"1","testcd":"SURVSTAT","test":"Survival Status","orres":"ALIVE","stresc":"ALIVE","dtc":"2024-09-17","visit":null,"epoch":"FOLLOW-UP"}],"total":1}}