STUDYID,DOMAIN,RDOMAIN,USUBJID,COSEQ,IDVAR,IDVARVAL,COREF,COVAL,CODTC,CODY
BI-1245.110,CO,,BI-1245.110-BRA_SITE01-0020,1,,,,Subject expressed intention to continue participation in the study.,2024-03-17,1
BI-1245.110,CO,,BI-1245.110-USA_SITE01-0005,1,,,,Local holiday required rescheduling of the follow-up visit.,2024-03-17,1
