STUDYID,DOMAIN,USUBJID,LBSEQ,LBTESTCD,LBTEST,LBCAT,LBORRES,LBORRESU,LBORNRLO,LBORNRHI,LBSTRESC,LBSTRESN,LBSTRESU,LBSTNRLO,LBSTNRHI,LBNRIND,LBSTAT,LBLOBXFL,LBBLFL,LBTOXGR,VISITNUM,VISIT,EPOCH,LBDY,MIDS
BI-1245.110,LB,BI-1245.110-ARG_SITE01-0017,1,ALT,Alanine Aminotransferase,CHEMISTRY,,,,,,,,,,,NOT DONE,,,,1.0,SCREENING,SCREENING,-45,MILESTONE 1
BI-1245.110,LB,BI-1245.110-ARG_SITE01-0017,2,AST,Aspartate Aminotransferase,CHEMISTRY,7.42,U/L,10,40,7.42,7.42,U/L,10,40,LOW,,,,1,1.0,SCREENING,SCREENING,-45,MILESTONE 1
BI-1245.110,LB,BI-1245.110-ARG_SITE01-0017,3,CREAT,Creatinine,CHEMISTRY,67.06,umol/L,44,80,67.06,67.06,umol/L,44,80,NORMAL,,,,,1.0,SCREENING,SCREENING,-45,MILESTONE 1
BI-1245.110,LB,BI-1245.110-ARG_SITE01-0017,4,GLUC,Glucose,CHEMISTRY,4.21,mmol/L,3.9,5.6,4.21,4.21,mmol/L,3.9,5.6,NORMAL,,,,,1.0,SCREENING,SCREENING,-45,MILESTONE 1
BI-1245.110,LB,BI-1245.110-ARG_SITE01-0017,5,HGB,Hemoglobin,HEMATOLOGY,108.78,g/L,120,155,108.78,108.78,g/L,120,155,LOW,,,,1,1.0,SCREENING,SCREENING,-45,MILESTONE 1
BI-1245.110,LB,BI-1245.110-ARG_SITE01-0017,6,PLAT,Platelets,HEMATOLOGY,277.62,10^9/L,150,400,277.62,277.62,10^9/L,150,400,NORMAL,,,,,1.0,SCREENING,SCREENING,-45,MILESTONE 1
BI-1245.110,LB,BI-1245.110-ARG_SITE01-0017,7,WBC,Leukocytes,HEMATOLOGY,4.98,10^9/L,4.0,11.0,4.98,4.98,10^9/L,4.0,11.0,NORMAL,,,,,1.0,SCREENING,SCREENING,-45,MILESTONE 1
BI-1245.110,LB,BI-1245.110-ARG_SITE01-0017,8,ALT,Alanine Aminotransferase,CHEMISTRY,27.19,U/L,7,56,27.19,27.19,U/L,7,56,NORMAL,,Y,Y,,2.0,BASELINE,TREATMENT,1,MILESTONE 1
BI-1245.110,LB,BI-1245.110-ARG_SITE01-0017,9,AST,Aspartate Aminotransferase,CHEMISTRY,8.02,U/L,10,40,8.02,8.02,U/L,10,40,LOW,,Y,Y,1,2.0,BASELINE,TREATMENT,1,MILESTONE 1
BI-1245.110,LB,BI-1245.110-ARG_SITE01-0017,10,CREAT,Creatinine,CHEMISTRY,64.43,umol/L,44,80,64.43,64.43,umol/L,44,80,NORMAL,,Y,Y,,2.0,BASELINE,TREATMENT,1,MILESTONE 1
BI-1245.110,LB,BI-1245.110-ARG_SITE01-0017,11,GLUC,Glucose,CHEMISTRY,4.22,mmol/L,3.9,5.6,4.22,4.22,mmol/L,3.9,5.6,NORMAL,,Y,Y,,2.0,BASELINE,TREATMENT,1,MILESTONE 1
BI-1245.110,LB,BI-1245.110-ARG_SITE01-0017,12,HGB,Hemoglobin,HEMATOLOGY,107.23,g/L,120,155,107.23,107.23,g/L,120,155,LOW,,Y,Y,1,2.0,BASELINE,TREATMENT,1,MILESTONE 1
BI-1245.110,LB,BI-1245.110-ARG_SITE01-0017,13,PLAT,Platelets,HEMATOLOGY,271.0,10^9/L,150,400,271.0,271.0,10^9/L,150,400,NORMAL,,Y,Y,,2.0,BASELINE,TREATMENT,1,MILESTONE 1
BI-1245.110,LB,BI-1245.110-ARG_SITE01-0017,14,WBC,Leukocytes,HEMATOLOGY,5.53,10^9/L,4.0,11.0,5.53,5.53,10^9/L,4.0,11.0,NORMAL,,Y,Y,,2.0,BASELINE,TREATMENT,1,MILESTONE 1
BI-1245.110,LB,BI-1245.110-ARG_SITE01-0017,15,ALT,Alanine Aminotransferase,CHEMISTRY,26.16,U/L,7,56,26.16,26.16,U/L,7,56,NORMAL,,,,,3.0,WEEK 4,TREATMENT,32,MILESTONE 1
BI-1245.110,LB,BI-1245.110-ARG_SITE01-0017,16,AST,Aspartate Aminotransferase,CHEMISTRY,8.5,U/L,10,40,8.5,8.5,U/L,10,40,LOW,,,,1,3.0,WEEK 4,TREATMENT,32,MILESTONE 1
BI-1245.110,LB,BI-1245.110-ARG_SITE01-0017,17,CREAT,Creatinine,CHEMISTRY,63.79,umol/L,44,80,63.79,63.79,umol/L,44,80,NORMAL,,,,,3.0,WEEK 4,TREATMENT,32,MILESTONE 1
BI-1245.110,LB,BI-1245.110-ARG_SITE01-0017,18,GLUC,Glucose,CHEMISTRY,4.26,mmol/L,3.9,5.6,4.26,4.26,mmol/L,3.9,5.6,NORMAL,,,,,3.0,WEEK 4,TREATMENT,32,MILESTONE 1
BI-1245.110,LB,BI-1245.110-ARG_SITE01-0017,19,HGB,Hemoglobin,HEMATOLOGY,105.61,g/L,120,155,105.61,105.61,g/L,120,155,LOW,,,,1,3.0,WEEK 4,TREATMENT,32,MILESTONE 1
BI-1245.110,LB,BI-1245.110-ARG_SITE01-0017,20,PLAT,Platelets,HEMATOLOGY,267.76,10^9/L,150,400,267.76,267.76,10^9/L,150,400,NORMAL,,,,,3.0,WEEK 4,TREATMENT,32,MILESTONE 1
BI-1245.110,LB,BI-1245.110-ARG_SITE01-0017,21,WBC,Leukocytes,HEMATOLOGY,5.1,10^9/L,4.0,11.0,5.1,5.1,10^9/L,4.0,11.0,NORMAL,,,,,3.0,WEEK 4,TREATMENT,32,MILESTONE 1
BI-1245.110,LB,BI-1245.110-ARG_SITE01-0017,22,ALT,Alanine Aminotransferase,CHEMISTRY,26.7,U/L,7,56,26.7,26.7,U/L,7,56,NORMAL,,,,,5.0,MONTH 6,TREATMENT,184,MILESTONE 1
BI-1245.110,LB,BI-1245.110-ARG_SITE01-0017,23,AST,Aspartate Aminotransferase,CHEMISTRY,10.54,U/L,10,40,10.54,10.54,U/L,10,40,NORMAL,,,,,5.0,MONTH 6,TREATMENT,184,MILESTONE 1
BI-1245.110,LB,BI-1245.110-ARG_SITE01-0017,24,CREAT,Creatinine,CHEMISTRY,60.34,umol/L,44,80,60.34,60.34,umol/L,44,80,NORMAL,,,,,5.0,MONTH 6,TREATMENT,184,MILESTONE 1
BI-1245.110,LB,BI-1245.110-ARG_SITE01-0017,25,GLUC,Glucose,CHEMISTRY,4.36,mmol/L,3.9,5.6,4.36,4.36,mmol/L,3.9,5.6,NORMAL,,,,,5.0,MONTH 6,TREATMENT,184,MILESTONE 1
BI-1245.110,LB,BI-1245.110-ARG_SITE01-0017,26,HGB,Hemoglobin,HEMATOLOGY,104.93,g/L,120,155,104.93,104.93,g/L,120,155,LOW,,,,1,5.0,MONTH 6,TREATMENT,184,MILESTONE 1
BI-1245.110,LB,BI-1245.110-ARG_SITE01-0017,27,PLAT,Platelets,HEMATOLOGY,262.52,10^9/L,150,400,262.52,262.52,10^9/L,150,400,NORMAL,,,,,5.0,MONTH 6,TREATMENT,184,MILESTONE 1
BI-1245.110,LB,BI-1245.110-ARG_SITE01-0017,28,WBC,Leukocytes,HEMATOLOGY,9.26,10^9/L,4.0,11.0,9.26,9.26,10^9/L,4.0,11.0,NORMAL,,,,,5.0,MONTH 6,TREATMENT,184,MILESTONE 1
BI-1245.110,LB,BI-1245.110-ARG_SITE01-0017,29,ALT,Alanine Aminotransferase,CHEMISTRY,27.23,U/L,7,56,27.23,27.23,U/L,7,56,NORMAL,,,,,6.0,MONTH 12,TREATMENT,360,MILESTONE 1
BI-1245.110,LB,BI-1245.110-ARG_SITE01-0017,30,AST,Aspartate Aminotransferase,CHEMISTRY,8.71,U/L,10,40,8.71,8.71,U/L,10,40,LOW,,,,1,6.0,MONTH 12,TREATMENT,360,MILESTONE 1
BI-1245.110,LB,BI-1245.110-ARG_SITE01-0017,31,CREAT,Creatinine,CHEMISTRY,60.72,umol/L,44,80,60.72,60.72,umol/L,44,80,NORMAL,,,,,6.0,MONTH 12,TREATMENT,360,MILESTONE 1
BI-1245.110,LB,BI-1245.110-ARG_SITE01-0017,32,GLUC,Glucose,CHEMISTRY,4.16,mmol/L,3.9,5.6,4.16,4.16,mmol/L,3.9,5.6,NORMAL,,,,,6.0,MONTH 12,TREATMENT,360,MILESTONE 1
BI-1245.110,LB,BI-1245.110-ARG_SITE01-0017,33,HGB,Hemoglobin,HEMATOLOGY,106.35,g/L,120,155,106.35,106.35,g/L,120,155,LOW,,,,1,6.0,MONTH 12,TREATMENT,360,MILESTONE 1
BI-1245.110,LB,BI-1245.110-ARG_SITE01-0017,34,PLAT,Platelets,HEMATOLOGY,247.79,10^9/L,150,400,247.79,247.79,10^9/L,150,400,NORMAL,,,,,6.0,MONTH 12,TREATMENT,360,MILESTONE 1
BI-1245.110,LB,BI-1245.110-ARG_SITE01-0017,35,WBC,Leukocytes,HEMATOLOGY,5.15,10^9/L,4.0,11.0,5.15,5.15,10^9/L,4.0,11.0,NORMAL,,,,,6.0,MONTH 12,TREATMENT,360,MILESTONE 1
BI-1245.110,LB,BI-1245.110-ARG_SITE01-0017,36,ALT,Alanine Aminotransferase,CHEMISTRY,29.49,U/L,7,56,29.49,29.49,U/L,7,56,NORMAL,,,,,7.0,MONTH 18,TREATMENT,546,MILESTONE 1
BI-1245.110,LB,BI-1245.110-ARG_SITE01-0017,37,AST,Aspartate Aminotransferase,CHEMISTRY,6.63,U/L,10,40,6.63,6.63,U/L,10,40,LOW,,,,2,7.0,MONTH 18,TREATMENT,546,MILESTONE 1
BI-1245.110,LB,BI-1245.110-ARG_SITE01-0017,38,CREAT,Creatinine,CHEMISTRY,59.48,umol/L,44,80,59.48,59.48,umol/L,44,80,NORMAL,,,,,7.0,MONTH 18,TREATMENT,546,MILESTONE 1
BI-1245.110,LB,BI-1245.110-ARG_SITE01-0017,39,GLUC,Glucose,CHEMISTRY,4.38,mmol/L,3.9,5.6,4.38,4.38,mmol/L,3.9,5.6,NORMAL,,,,,7.0,MONTH 18,TREATMENT,546,MILESTONE 1
BI-1245.110,LB,BI-1245.110-ARG_SITE01-0017,40,HGB,Hemoglobin,HEMATOLOGY,104.31,g/L,120,155,104.31,104.31,g/L,120,155,LOW,,,,1,7.0,MONTH 18,TREATMENT,546,MILESTONE 1
BI-1245.110,LB,BI-1245.110-ARG_SITE01-0017,41,PLAT,Platelets,HEMATOLOGY,247.18,10^9/L,150,400,247.18,247.18,10^9/L,150,400,NORMAL,,,,,7.0,MONTH 18,TREATMENT,546,MILESTONE 1
BI-1245.110,LB,BI-1245.110-ARG_SITE01-0017,42,WBC,Leukocytes,HEMATOLOGY,5.06,10^9/L,4.0,11.0,5.06,5.06,10^9/L,4.0,11.0,NORMAL,,,,,7.0,MONTH 18,TREATMENT,546,MILESTONE 1
BI-1245.110,LB,BI-1245.110-ARG_SITE01-0017,43,ALT,Alanine Aminotransferase,CHEMISTRY,27.66,U/L,7,56,27.66,27.66,U/L,7,56,NORMAL,,,,,8.0,MONTH 24,TREATMENT,737,MILESTONE 1
BI-1245.110,LB,BI-1245.110-ARG_SITE01-0017,44,AST,Aspartate Aminotransferase,CHEMISTRY,8.88,U/L,10,40,8.88,8.88,U/L,10,40,LOW,,,,1,8.0,MONTH 24,TREATMENT,737,MILESTONE 1
BI-1245.110,LB,BI-1245.110-ARG_SITE01-0017,45,CREAT,Creatinine,CHEMISTRY,62.64,umol/L,44,80,62.64,62.64,umol/L,44,80,NORMAL,,,,,8.0,MONTH 24,TREATMENT,737,MILESTONE 1
BI-1245.110,LB,BI-1245.110-ARG_SITE01-0017,46,GLUC,Glucose,CHEMISTRY,4.27,mmol/L,3.9,5.6,4.27,4.27,mmol/L,3.9,5.6,NORMAL,,,,,8.0,MONTH 24,TREATMENT,737,MILESTONE 1
BI-1245.110,LB,BI-1245.110-ARG_SITE01-0017,47,HGB,Hemoglobin,HEMATOLOGY,105.05,g/L,120,155,105.05,105.05,g/L,120,155,LOW,,,,1,8.0,MONTH 24,TREATMENT,737,MILESTONE 1
BI-1245.110,LB,BI-1245.110-ARG_SITE01-0017,48,PLAT,Platelets,HEMATOLOGY,257.0,10^9/L,150,400,257.0,257.0,10^9/L,150,400,NORMAL,,,,,8.0,MONTH 24,TREATMENT,737,MILESTONE 1
BI-1245.110,LB,BI-1245.110-ARG_SITE01-0017,49,WBC,Leukocytes,HEMATOLOGY,5.49,10^9/L,4.0,11.0,5.49,5.49,10^9/L,4.0,11.0,NORMAL,,,,,8.0,MONTH 24,TREATMENT,737,MILESTONE 1
BI-1245.110,LB,BI-1245.110-ARG_SITE01-0017,50,ALT,Alanine Aminotransferase,CHEMISTRY,28.0,U/L,7,56,28.0,28.0,U/L,7,56,NORMAL,,,,,9.0,EOT,TREATMENT,817,MILESTONE 1
BI-1245.110,LB,BI-1245.110-ARG_SITE01-0017,51,AST,Aspartate Aminotransferase,CHEMISTRY,9.85,U/L,10,40,9.85,9.85,U/L,10,40,LOW,,,,1,9.0,EOT,TREATMENT,817,MILESTONE 1
BI-1245.110,LB,BI-1245.110-ARG_SITE01-0017,52,CREAT,Creatinine,CHEMISTRY,62.58,umol/L,44,80,62.58,62.58,umol/L,44,80,NORMAL,,,,,9.0,EOT,TREATMENT,817,MILESTONE 1
BI-1245.110,LB,BI-1245.110-ARG_SITE01-0017,53,GLUC,Glucose,CHEMISTRY,4.17,mmol/L,3.9,5.6,4.17,4.17,mmol/L,3.9,5.6,NORMAL,,,,,9.0,EOT,TREATMENT,817,MILESTONE 1
BI-1245.110,LB,BI-1245.110-ARG_SITE01-0017,54,HGB,Hemoglobin,HEMATOLOGY,,,,,,,,,,,NOT DONE,,,,9.0,EOT,TREATMENT,817,MILESTONE 1
BI-1245.110,LB,BI-1245.110-ARG_SITE01-0017,55,PLAT,Platelets,HEMATOLOGY,256.81,10^9/L,150,400,256.81,256.81,10^9/L,150,400,NORMAL,,,,,9.0,EOT,TREATMENT,817,MILESTONE 1
BI-1245.110,LB,BI-1245.110-ARG_SITE01-0017,56,WBC,Leukocytes,HEMATOLOGY,5.16,10^9/L,4.0,11.0,5.16,5.16,10^9/L,4.0,11.0,NORMAL,,,,,9.0,EOT,TREATMENT,817,MILESTONE 1
BI-1245.110,LB,BI-1245.110-BRA_SITE01-0010,1,ALT,Alanine Aminotransferase,CHEMISTRY,20.4,U/L,7,56,20.4,20.4,U/L,7,56,NORMAL,,,,,1.0,SCREENING,SCREENING,-51,MILESTONE 1
BI-1245.110,LB,BI-1245.110-BRA_SITE01-0010,2,AST,Aspartate Aminotransferase,CHEMISTRY,29.33,U/L,10,40,29.33,29.33,U/L,10,40,NORMAL,,,,,1.0,SCREENING,SCREENING,-51,MILESTONE 1
BI-1245.110,LB,BI-1245.110-BRA_SITE01-0010,3,CREAT,Creatinine,CHEMISTRY,99.71,umol/L,62,106,99.71,99.71,umol/L,62,106,NORMAL,,,,,1.0,SCREENING,SCREENING,-51,MILESTONE 1
BI-1245.110,LB,BI-1245.110-BRA_SITE01-0010,4,GLUC,Glucose,CHEMISTRY,5.09,mmol/L,3.9,5.6,5.09,5.09,mmol/L,3.9,5.6,NORMAL,,,,,1.0,SCREENING,SCREENING,-51,MILESTONE 1
BI-1245.110,LB,BI-1245.110-BRA_SITE01-0010,5,HGB,Hemoglobin,HEMATOLOGY,129.06,g/L,130,175,129.06,129.06,g/L,130,175,LOW,,,,1,1.0,SCREENING,SCREENING,-51,MILESTONE 1
BI-1245.110,LB,BI-1245.110-BRA_SITE01-0010,6,PLAT,Platelets,HEMATOLOGY,247.04,10^9/L,150,400,247.04,247.04,10^9/L,150,400,NORMAL,,,,,1.0,SCREENING,SCREENING,-51,MILESTONE 1
BI-1245.110,LB,BI-1245.110-BRA_SITE01-0010,7,WBC,Leukocytes,HEMATOLOGY,5.71,10^9/L,4.0,11.0,5.71,5.71,10^9/L,4.0,11.0,NORMAL,,,,,1.0,SCREENING,SCREENING,-51,MILESTONE 1
BI-1245.110,LB,BI-1245.110-BRA_SITE01-0010,8,ALT,Alanine Aminotransferase,CHEMISTRY,20.4,U/L,7,56,20.4,20.4,U/L,7,56,NORMAL,,Y,Y,,2.0,BASELINE,TREATMENT,1,MILESTONE 1
BI-1245.110,LB,BI-1245.110-BRA_SITE01-0010,9,AST,Aspartate Aminotransferase,CHEMISTRY,29.37,U/L,10,40,29.37,29.37,U/L,10,40,NORMAL,,Y,Y,,2.0,BASELINE,TREATMENT,1,MILESTONE 1
BI-1245.110,LB,BI-1245.110-BRA_SITE01-0010,10,CREAT,Creatinine,CHEMISTRY,101.82,umol/L,62,106,101.82,101.82,umol/L,62,106,NORMAL,,Y,Y,,2.0,BASELINE,TREATMENT,1,MILESTONE 1
BI-1245.110,LB,BI-1245.110-BRA_SITE01-0010,11,GLUC,Glucose,CHEMISTRY,5.16,mmol/L,3.9,5.6,5.16,5.16,mmol/L,3.9,5.6,NORMAL,,Y,Y,,2.0,BASELINE,TREATMENT,1,MILESTONE 1
BI-1245.110,LB,BI-1245.110-BRA_SITE01-0010,12,HGB,Hemoglobin,HEMATOLOGY,129.04,g/L,130,175,129.04,129.04,g/L,130,175,LOW,,Y,Y,1,2.0,BASELINE,TREATMENT,1,MILESTONE 1
BI-1245.110,LB,BI-1245.110-BRA_SITE01-0010,13,PLAT,Platelets,HEMATOLOGY,246.01,10^9/L,150,400,246.01,246.01,10^9/L,150,400,NORMAL,,Y,Y,,2.0,BASELINE,TREATMENT,1,MILESTONE 1
BI-1245.110,LB,BI-1245.110-BRA_SITE01-0010,14,WBC,Leukocytes,HEMATOLOGY,5.62,10^9/L,4.0,11.0,5.62,5.62,10^9/L,4.0,11.0,NORMAL,,Y,Y,,2.0,BASELINE,TREATMENT,1,MILESTONE 1
BI-1245.110,LB,BI-1245.110-BRA_SITE01-0010,15,ALT,Alanine Aminotransferase,CHEMISTRY,18.67,U/L,7,56,18.67,18.67,U/L,7,56,NORMAL,,,,,3.0,WEEK 4,TREATMENT,24,MILESTONE 1
BI-1245.110,LB,BI-1245.110-BRA_SITE01-0010,16,AST,Aspartate Aminotransferase,CHEMISTRY,32.21,U/L,10,40,32.21,32.21,U/L,10,40,NORMAL,,,,,3.0,WEEK 4,TREATMENT,24,MILESTONE 1
BI-1245.110,LB,BI-1245.110-BRA_SITE01-0010,17,CREAT,Creatinine,CHEMISTRY,100.23,umol/L,62,106,100.23,100.23,umol/L,62,106,NORMAL,,,,,3.0,WEEK 4,TREATMENT,24,MILESTONE 1
BI-1245.110,LB,BI-1245.110-BRA_SITE01-0010,18,GLUC,Glucose,CHEMISTRY,5.1,mmol/L,3.9,5.6,5.1,5.1,mmol/L,3.9,5.6,NORMAL,,,,,3.0,WEEK 4,TREATMENT,24,MILESTONE 1
BI-1245.110,LB,BI-1245.110-BRA_SITE01-0010,19,HGB,Hemoglobin,HEMATOLOGY,130.03,g/L,130,175,130.03,130.03,g/L,130,175,NORMAL,,,,,3.0,WEEK 4,TREATMENT,24,MILESTONE 1
BI-1245.110,LB,BI-1245.110-BRA_SITE01-0010,20,PLAT,Platelets,HEMATOLOGY,252.17,10^9/L,150,400,252.17,252.17,10^9/L,150,400,NORMAL,,,,,3.0,WEEK 4,TREATMENT,24,MILESTONE 1
BI-1245.110,LB,BI-1245.110-BRA_SITE01-0010,21,WBC,Leukocytes,HEMATOLOGY,5.6,10^9/L,4.0,11.0,5.6,5.6,10^9/L,4.0,11.0,NORMAL,,,,,3.0,WEEK 4,TREATMENT,24,MILESTONE 1
BI-1245.110,LB,BI-1245.110-BRA_SITE01-0010,22,ALT,Alanine Aminotransferase,CHEMISTRY,19.17,U/L,7,56,19.17,19.17,U/L,7,56,NORMAL,,,,,4.0,WEEK 12,TREATMENT,83,MILESTONE 1
BI-1245.110,LB,BI-1245.110-BRA_SITE01-0010,23,AST,Aspartate Aminotransferase,CHEMISTRY,30.01,U/L,10,40,30.01,30.01,U/L,10,40,NORMAL,,,,,4.0,WEEK 12,TREATMENT,83,MILESTONE 1
BI-1245.110,LB,BI-1245.110-BRA_SITE01-0010,24,CREAT,Creatinine,CHEMISTRY,96.82,umol/L,62,106,96.82,96.82,umol/L,62,106,NORMAL,,,,,4.0,WEEK 12,TREATMENT,83,MILESTONE 1
BI-1245.110,LB,BI-1245.110-BRA_SITE01-0010,25,GLUC,Glucose,CHEMISTRY,,,,,,,,,,,NOT DONE,,,,4.0,WEEK 12,TREATMENT,83,MILESTONE 1
BI-1245.110,LB,BI-1245.110-BRA_SITE01-0010,26,HGB,Hemoglobin,HEMATOLOGY,131.01,g/L,130,175,131.01,131.01,g/L,130,175,NORMAL,,,,,4.0,WEEK 12,TREATMENT,83,MILESTONE 1
BI-1245.110,LB,BI-1245.110-BRA_SITE01-0010,27,PLAT,Platelets,HEMATOLOGY,252.32,10^9/L,150,400,252.32,252.32,10^9/L,150,400,NORMAL,,,,,4.0,WEEK 12,TREATMENT,83,MILESTONE 1
BI-1245.110,LB,BI-1245.110-BRA_SITE01-0010,28,WBC,Leukocytes,HEMATOLOGY,9.17,10^9/L,4.0,11.0,9.17,9.17,10^9/L,4.0,11.0,NORMAL,,,,,4.0,WEEK 12,TREATMENT,83,MILESTONE 1
BI-1245.110,LB,BI-1245.110-BRA_SITE01-0010,29,ALT,Alanine Aminotransferase,CHEMISTRY,17.7,U/L,7,56,17.7,17.7,U/L,7,56,NORMAL,,,,,5.0,MONTH 6,TREATMENT,185,MILESTONE 1
BI-1245.110,LB,BI-1245.110-BRA_SITE01-0010,30,AST,Aspartate Aminotransferase,CHEMISTRY,29.37,U/L,10,40,29.37,29.37,U/L,10,40,NORMAL,,,,,5.0,MONTH 6,TREATMENT,185,MILESTONE 1
BI-1245.110,LB,BI-1245.110-BRA_SITE01-0010,31,CREAT,Creatinine,CHEMISTRY,96.39,umol/L,62,106,96.39,96.39,umol/L,62,106,NORMAL,,,,,5.0,MONTH 6,TREATMENT,185,MILESTONE 1
BI-1245.110,LB,BI-1245.110-BRA_SITE01-0010,32,GLUC,Glucose,CHEMISTRY,5.07,mmol/L,3.9,5.6,5.07,5.07,mmol/L,3.9,5.6,NORMAL,,,,,5.0,MONTH 6,TREATMENT,185,MILESTONE 1
BI-1245.110,LB,BI-1245.110-BRA_SITE01-0010,33,HGB,Hemoglobin,HEMATOLOGY,128.64,g/L,130,175,128.64,128.64,g/L,130,175,LOW,,,,1,5.0,MONTH 6,TREATMENT,185,MILESTONE 1
BI-1245.110,LB,BI-1245.110-BRA_SITE01-0010,34,PLAT,Platelets,HEMATOLOGY,282.49,10^9/L,150,400,282.49,282.49,10^9/L,150,400,NORMAL,,,,,5.0,MONTH 6,TREATMENT,185,MILESTONE 1
BI-1245.110,LB,BI-1245.110-BRA_SITE01-0010,35,WBC,Leukocytes,HEMATOLOGY,6.0,10^9/L,4.0,11.0,6.0,6.0,10^9/L,4.0,11.0,NORMAL,,,,,5.0,MONTH 6,TREATMENT,185,MILESTONE 1
BI-1245.110,LB,BI-1245.110-BRA_SITE01-0010,36,ALT,Alanine Aminotransferase,CHEMISTRY,17.51,U/L,7,56,17.51,17.51,U/L,7,56,NORMAL,,,,,7.0,MONTH 18,TREATMENT,553,MILESTONE 1
BI-1245.110,LB,BI-1245.110-BRA_SITE01-0010,37,AST,Aspartate Aminotransferase,CHEMISTRY,27.79,U/L,10,40,27.79,27.79,U/L,10,40,NORMAL,,,,,7.0,MONTH 18,TREATMENT,553,MILESTONE 1
BI-1245.110,LB,BI-1245.110-BRA_SITE01-0010,38,CREAT,Creatinine,CHEMISTRY,96.36,umol/L,62,106,96.36,96.36,umol/L,62,106,NORMAL,,,,,7.0,MONTH 18,TREATMENT,553,MILESTONE 1
BI-1245.110,LB,BI-1245.110-BRA_SITE01-0010,39,GLUC,Glucose,CHEMISTRY,4.93,mmol/L,3.9,5.6,4.93,4.93,mmol/L,3.9,5.6,NORMAL,,,,,7.0,MONTH 18,TREATMENT,553,MILESTONE 1
BI-1245.110,LB,BI-1245.110-BRA_SITE01-0010,40,HGB,Hemoglobin,HEMATOLOGY,129.14,g/L,130,175,129.14,129.14,g/L,130,175,LOW,,,,1,7.0,MONTH 18,TREATMENT,553,MILESTONE 1
BI-1245.110,LB,BI-1245.110-BRA_SITE01-0010,41,PLAT,Platelets,HEMATOLOGY,268.17,10^9/L,150,400,268.17,268.17,10^9/L,150,400,NORMAL,,,,,7.0,MONTH 18,TREATMENT,553,MILESTONE 1
BI-1245.110,LB,BI-1245.110-BRA_SITE01-0010,42,WBC,Leukocytes,HEMATOLOGY,6.3,10^9/L,4.0,11.0,6.3,6.3,10^9/L,4.0,11.0,NORMAL,,,,,7.0,MONTH 18,TREATMENT,553,MILESTONE 1
BI-1245.110,LB,BI-1245.110-BRA_SITE01-0010,43,ALT,Alanine Aminotransferase,CHEMISTRY,19.09,U/L,7,56,19.09,19.09,U/L,7,56,NORMAL,,,,,8.0,MONTH 24,TREATMENT,722,MILESTONE 1
BI-1245.110,LB,BI-1245.110-BRA_SITE01-0010,44,AST,Aspartate Aminotransferase,CHEMISTRY,27.43,U/L,10,40,27.43,27.43,U/L,10,40,NORMAL,,,,,8.0,MONTH 24,TREATMENT,722,MILESTONE 1
BI-1245.110,LB,BI-1245.110-BRA_SITE01-0010,45,CREAT,Creatinine,CHEMISTRY,96.25,umol/L,62,106,96.25,96.25,umol/L,62,106,NORMAL,,,,,8.0,MONTH 24,TREATMENT,722,MILESTONE 1
BI-1245.110,LB,BI-1245.110-BRA_SITE01-0010,46,GLUC,Glucose,CHEMISTRY,5.19,mmol/L,3.9,5.6,5.19,5.19,mmol/L,3.9,5.6,NORMAL,,,,,8.0,MONTH 24,TREATMENT,722,MILESTONE 1
BI-1245.110,LB,BI-1245.110-BRA_SITE01-0010,47,HGB,Hemoglobin,HEMATOLOGY,128.66,g/L,130,175,128.66,128.66,g/L,130,175,LOW,,,,1,8.0,MONTH 24,TREATMENT,722,MILESTONE 1
BI-1245.110,LB,BI-1245.110-BRA_SITE01-0010,48,PLAT,Platelets,HEMATOLOGY,253.2,10^9/L,150,400,253.2,253.2,10^9/L,150,400,NORMAL,,,,,8.0,MONTH 24,TREATMENT,722,MILESTONE 1
BI-1245.110,LB,BI-1245.110-BRA_SITE01-0010,49,WBC,Leukocytes,HEMATOLOGY,6.13,10^9/L,4.0,11.0,6.13,6.13,10^9/L,4.0,11.0,NORMAL,,,,,8.0,MONTH 24,TREATMENT,722,MILESTONE 1
BI-1245.110,LB,BI-1245.110-BRA_SITE01-0010,50,ALT,Alanine Aminotransferase,CHEMISTRY,22.3,U/L,7,56,22.3,22.3,U/L,7,56,NORMAL,,,,,9.0,EOT,TREATMENT,802,MILESTONE 1
BI-1245.110,LB,BI-1245.110-BRA_SITE01-0010,51,AST,Aspartate Aminotransferase,CHEMISTRY,26.77,U/L,10,40,26.77,26.77,U/L,10,40,NORMAL,,,,,9.0,EOT,TREATMENT,802,MILESTONE 1
BI-1245.110,LB,BI-1245.110-BRA_SITE01-0010,52,CREAT,Creatinine,CHEMISTRY,96.4,umol/L,62,106,96.4,96.4,umol/L,62,106,NORMAL,,,,,9.0,EOT,TREATMENT,802,MILESTONE 1
BI-1245.110,LB,BI-1245.110-BRA_SITE01-0010,53,GLUC,Glucose,CHEMISTRY,,,,,,,,,,,NOT DONE,,,,9.0,EOT,TREATMENT,802,MILESTONE 1
BI-1245.110,LB,BI-1245.110-BRA_SITE01-0010,54,HGB,Hemoglobin,HEMATOLOGY,,,,,,,,,,,NOT DONE,,,,9.0,EOT,TREATMENT,802,MILESTONE 1
BI-1245.110,LB,BI-1245.110-BRA_SITE01-0010,55,PLAT,Platelets,HEMATOLOGY,260.24,10^9/L,150,400,260.24,260.24,10^9/L,150,400,NORMAL,,,,,9.0,EOT,TREATMENT,802,MILESTONE 1
BI-1245.110,LB,BI-1245.110-BRA_SITE01-0010,56,WBC,Leukocytes,HEMATOLOGY,9.01,10^9/L,4.0,11.0,9.01,9.01,10^9/L,4.0,11.0,NORMAL,,,,,9.0,EOT,TREATMENT,802,MILESTONE 1
BI-1245.110,LB,BI-1245.110-BRA_SITE01-0020,1,ALT,Alanine Aminotransferase,CHEMISTRY,21.3,U/L,7,56,21.3,21.3,U/L,7,56,NORMAL,,,,,1.0,SCREENING,SCREENING,-55,MILESTONE 1
BI-1245.110,LB,BI-1245.110-BRA_SITE01-0020,2,AST,Aspartate Aminotransferase,CHEMISTRY,16.42,U/L,10,40,16.42,16.42,U/L,10,40,NORMAL,,,,,1.0,SCREENING,SCREENING,-55,MILESTONE 1
BI-1245.110,LB,BI-1245.110-BRA_SITE01-0020,3,CREAT,Creatinine,CHEMISTRY,71.85,umol/L,62,106,71.85,71.85,umol/L,62,106,NORMAL,,,,,1.0,SCREENING,SCREENING,-55,MILESTONE 1
BI-1245.110,LB,BI-1245.110-BRA_SITE01-0020,4,GLUC,Glucose,CHEMISTRY,5.88,mmol/L,3.9,5.6,5.88,5.88,mmol/L,3.9,5.6,HIGH,,,,1,1.0,SCREENING,SCREENING,-55,MILESTONE 1
BI-1245.110,LB,BI-1245.110-BRA_SITE01-0020,5,HGB,Hemoglobin,HEMATOLOGY,124.81,g/L,130,175,124.81,124.81,g/L,130,175,LOW,,,,1,1.0,SCREENING,SCREENING,-55,MILESTONE 1
BI-1245.110,LB,BI-1245.110-BRA_SITE01-0020,6,PLAT,Platelets,HEMATOLOGY,307.65,10^9/L,150,400,307.65,307.65,10^9/L,150,400,NORMAL,,,,,1.0,SCREENING,SCREENING,-55,MILESTONE 1
BI-1245.110,LB,BI-1245.110-BRA_SITE01-0020,7,WBC,Leukocytes,HEMATOLOGY,5.92,10^9/L,4.0,11.0,5.92,5.92,10^9/L,4.0,11.0,NORMAL,,,,,1.0,SCREENING,SCREENING,-55,MILESTONE 1
BI-1245.110,LB,BI-1245.110-BRA_SITE01-0020,8,ALT,Alanine Aminotransferase,CHEMISTRY,20.6,U/L,7,56,20.6,20.6,U/L,7,56,NORMAL,,Y,Y,,2.0,BASELINE,TREATMENT,1,MILESTONE 1
BI-1245.110,LB,BI-1245.110-BRA_SITE01-0020,9,AST,Aspartate Aminotransferase,CHEMISTRY,15.72,U/L,10,40,15.72,15.72,U/L,10,40,NORMAL,,Y,Y,,2.0,BASELINE,TREATMENT,1,MILESTONE 1
BI-1245.110,LB,BI-1245.110-BRA_SITE01-0020,10,CREAT,Creatinine,CHEMISTRY,73.68,umol/L,62,106,73.68,73.68,umol/L,62,106,NORMAL,,Y,Y,,2.0,BASELINE,TREATMENT,1,MILESTONE 1
BI-1245.110,LB,BI-1245.110-BRA_SITE01-0020,11,GLUC,Glucose,CHEMISTRY,5.9,mmol/L,3.9,5.6,5.9,5.9,mmol/L,3.9,5.6,HIGH,,Y,Y,1,2.0,BASELINE,TREATMENT,1,MILESTONE 1
BI-1245.110,LB,BI-1245.110-BRA_SITE01-0020,12,HGB,Hemoglobin,HEMATOLOGY,124.38,g/L,130,175,124.38,124.38,g/L,130,175,LOW,,Y,Y,1,2.0,BASELINE,TREATMENT,1,MILESTONE 1
BI-1245.110,LB,BI-1245.110-BRA_SITE01-0020,13,PLAT,Platelets,HEMATOLOGY,292.37,10^9/L,150,400,292.37,292.37,10^9/L,150,400,NORMAL,,Y,Y,,2.0,BASELINE,TREATMENT,1,MILESTONE 1
BI-1245.110,LB,BI-1245.110-BRA_SITE01-0020,14,WBC,Leukocytes,HEMATOLOGY,5.69,10^9/L,4.0,11.0,5.69,5.69,10^9/L,4.0,11.0,NORMAL,,Y,Y,,2.0,BASELINE,TREATMENT,1,MILESTONE 1
BI-1245.110,LB,BI-1245.110-BRA_SITE01-0020,15,ALT,Alanine Aminotransferase,CHEMISTRY,21.82,U/L,7,56,21.82,21.82,U/L,7,56,NORMAL,,,,,3.0,WEEK 4,TREATMENT,31,MILESTONE 1
BI-1245.110,LB,BI-1245.110-BRA_SITE01-0020,16,AST,Aspartate Aminotransferase,CHEMISTRY,12.8,U/L,10,40,12.8,12.8,U/L,10,40,NORMAL,,,,,3.0,WEEK 4,TREATMENT,31,MILESTONE 1
BI-1245.110,LB,BI-1245.110-BRA_SITE01-0020,17,CREAT,Creatinine,CHEMISTRY,71.46,umol/L,62,106,71.46,71.46,umol/L,62,106,NORMAL,,,,,3.0,WEEK 4,TREATMENT,31,MILESTONE 1
BI-1245.110,LB,BI-1245.110-BRA_SITE01-0020,18,GLUC,Glucose,CHEMISTRY,5.79,mmol/L,3.9,5.6,5.79,5.79,mmol/L,3.9,5.6,HIGH,,,,1,3.0,WEEK 4,TREATMENT,31,MILESTONE 1
BI-1245.110,LB,BI-1245.110-BRA_SITE01-0020,19,HGB,Hemoglobin,HEMATOLOGY,126.63,g/L,130,175,126.63,126.63,g/L,130,175,LOW,,,,1,3.0,WEEK 4,TREATMENT,31,MILESTONE 1
BI-1245.110,LB,BI-1245.110-BRA_SITE01-0020,20,PLAT,Platelets,HEMATOLOGY,311.31,10^9/L,150,400,311.31,311.31,10^9/L,150,400,NORMAL,,,,,3.0,WEEK 4,TREATMENT,31,MILESTONE 1
BI-1245.110,LB,BI-1245.110-BRA_SITE01-0020,21,WBC,Leukocytes,HEMATOLOGY,9.0,10^9/L,4.0,11.0,9.0,9.0,10^9/L,4.0,11.0,NORMAL,,,,,3.0,WEEK 4,TREATMENT,31,MILESTONE 1
BI-1245.110,LB,BI-1245.110-BRA_SITE01-0020,22,ALT,Alanine Aminotransferase,CHEMISTRY,21.62,U/L,7,56,21.62,21.62,U/L,7,56,NORMAL,,,,,5.0,MONTH 6,TREATMENT,181,MILESTONE 1
BI-1245.110,LB,BI-1245.110-BRA_SITE01-0020,23,AST,Aspartate Aminotransferase,CHEMISTRY,15.66,U/L,10,40,15.66,15.66,U/L,10,40,NORMAL,,,,,5.0,MONTH 6,TREATMENT,181,MILESTONE 1
BI-1245.110,LB,BI-1245.110-BRA_SITE01-0020,24,CREAT,Creatinine,CHEMISTRY,76.31,umol/L,62,106,76.31,76.31,umol/L,62,106,NORMAL,,,,,5.0,MONTH 6,TREATMENT,181,MILESTONE 1
BI-1245.110,LB,BI-1245.110-BRA_SITE01-0020,25,GLUC,Glucose,CHEMISTRY,5.9,mmol/L,3.9,5.6,5.9,5.9,mmol/L,3.9,5.6,HIGH,,,,1,5.0,MONTH 6,TREATMENT,181,MILESTONE 1
BI-1245.110,LB,BI-1245.110-BRA_SITE01-0020,26,HGB,Hemoglobin,HEMATOLOGY,126.58,g/L,130,175,126.58,126.58,g/L,130,175,LOW,,,,1,5.0,MONTH 6,TREATMENT,181,MILESTONE 1
BI-1245.110,LB,BI-1245.110-BRA_SITE01-0020,27,PLAT,Platelets,HEMATOLOGY,298.46,10^9/L,150,400,298.46,298.46,10^9/L,150,400,NORMAL,,,,,5.0,MONTH 6,TREATMENT,181,MILESTONE 1
BI-1245.110,LB,BI-1245.110-BRA_SITE01-0020,28,WBC,Leukocytes,HEMATOLOGY,5.95,10^9/L,4.0,11.0,5.95,5.95,10^9/L,4.0,11.0,NORMAL,,,,,5.0,MONTH 6,TREATMENT,181,MILESTONE 1
BI-1245.110,LB,BI-1245.110-BRA_SITE01-0020,29,ALT,Alanine Aminotransferase,CHEMISTRY,23.55,U/L,7,56,23.55,23.55,U/L,7,56,NORMAL,,,,,6.0,MONTH 12,TREATMENT,359,MILESTONE 1
BI-1245.110,LB,BI-1245.110-BRA_SITE01-0020,30,AST,Aspartate Aminotransferase,CHEMISTRY,16.9,U/L,10,40,16.9,16.9,U/L,10,40,NORMAL,,,,,6.0,MONTH 12,TREATMENT,359,MILESTONE 1
BI-1245.110,LB,BI-1245.110-BRA_SITE01-0020,31,CREAT,Creatinine,CHEMISTRY,77.37,umol/L,62,106,77.37,77.37,umol/L,62,106,NORMAL,,,,,6.0,MONTH 12,TREATMENT,359,MILESTONE 1
BI-1245.110,LB,BI-1245.110-BRA_SITE01-0020,32,GLUC,Glucose,CHEMISTRY,5.79,mmol/L,3.9,5.6,5.79,5.79,mmol/L,3.9,5.6,HIGH,,,,1,6.0,MONTH 12,TREATMENT,359,MILESTONE 1
BI-1245.110,LB,BI-1245.110-BRA_SITE01-0020,33,HGB,Hemoglobin,HEMATOLOGY,127.36,g/L,130,175,127.36,127.36,g/L,130,175,LOW,,,,1,6.0,MONTH 12,TREATMENT,359,MILESTONE 1
BI-1245.110,LB,BI-1245.110-BRA_SITE01-0020,34,PLAT,Platelets,HEMATOLOGY,300.3,10^9/L,150,400,300.3,300.3,10^9/L,150,400,NORMAL,,,,,6.0,MONTH 12,TREATMENT,359,MILESTONE 1
BI-1245.110,LB,BI-1245.110-BRA_SITE01-0020,35,WBC,Leukocytes,HEMATOLOGY,,,,,,,,,,,NOT DONE,,,,6.0,MONTH 12,TREATMENT,359,MILESTONE 1
BI-1245.110,LB,BI-1245.110-BRA_SITE01-0020,36,ALT,Alanine Aminotransferase,CHEMISTRY,22.37,U/L,7,56,22.37,22.37,U/L,7,56,NORMAL,,,,,7.0,MONTH 18,TREATMENT,551,MILESTONE 1
BI-1245.110,LB,BI-1245.110-BRA_SITE01-0020,37,AST,Aspartate Aminotransferase,CHEMISTRY,17.83,U/L,10,40,17.83,17.83,U/L,10,40,NORMAL,,,,,7.0,MONTH 18,TREATMENT,551,MILESTONE 1
BI-1245.110,LB,BI-1245.110-BRA_SITE01-0020,38,CREAT,Creatinine,CHEMISTRY,78.25,umol/L,62,106,78.25,78.25,umol/L,62,106,NORMAL,,,,,7.0,MONTH 18,TREATMENT,551,MILESTONE 1
BI-1245.110,LB,BI-1245.110-BRA_SITE01-0020,39,GLUC,Glucose,CHEMISTRY,5.78,mmol/L,3.9,5.6,5.78,5.78,mmol/L,3.9,5.6,HIGH,,,,1,7.0,MONTH 18,TREATMENT,551,MILESTONE 1
BI-1245.110,LB,BI-1245.110-BRA_SITE01-0020,40,HGB,Hemoglobin,HEMATOLOGY,125.51,g/L,130,175,125.51,125.51,g/L,130,175,LOW,,,,1,7.0,MONTH 18,TREATMENT,551,MILESTONE 1
BI-1245.110,LB,BI-1245.110-BRA_SITE01-0020,41,PLAT,Platelets,HEMATOLOGY,299.84,10^9/L,150,400,299.84,299.84,10^9/L,150,400,NORMAL,,,,,7.0,MONTH 18,TREATMENT,551,MILESTONE 1
BI-1245.110,LB,BI-1245.110-BRA_SITE01-0020,42,WBC,Leukocytes,HEMATOLOGY,6.55,10^9/L,4.0,11.0,6.55,6.55,10^9/L,4.0,11.0,NORMAL,,,,,7.0,MONTH 18,TREATMENT,551,MILESTONE 1
BI-1245.110,LB,BI-1245.110-BRA_SITE01-0020,43,ALT,Alanine Aminotransferase,CHEMISTRY,23.56,U/L,7,56,23.56,23.56,U/L,7,56,NORMAL,,,,,8.0,MONTH 24,TREATMENT,721,MILESTONE 1
BI-1245.110,LB,BI-1245.110-BRA_SITE01-0020,44,AST,Aspartate Aminotransferase,CHEMISTRY,20.7,U/L,10,40,20.7,20.7,U/L,10,40,NORMAL,,,,,8.0,MONTH 24,TREATMENT,721,MILESTONE 1
BI-1245.110,LB,BI-1245.110-BRA_SITE01-0020,45,CREAT,Creatinine,CHEMISTRY,74.21,umol/L,62,106,74.21,74.21,umol/L,62,106,NORMAL,,,,,8.0,MONTH 24,TREATMENT,721,MILESTONE 1
BI-1245.110,LB,BI-1245.110-BRA_SITE01-0020,46,GLUC,Glucose,CHEMISTRY,5.64,mmol/L,3.9,5.6,5.64,5.64,mmol/L,3.9,5.6,HIGH,,,,1,8.0,MONTH 24,TREATMENT,721,MILESTONE 1
BI-1245.110,LB,BI-1245.110-BRA_SITE01-0020,47,HGB,Hemoglobin,HEMATOLOGY,126.35,g/L,130,175,126.35,126.35,g/L,130,175,LOW,,,,1,8.0,MONTH 24,TREATMENT,721,MILESTONE 1
BI-1245.110,LB,BI-1245.110-BRA_SITE01-0020,48,PLAT,Platelets,HEMATOLOGY,293.06,10^9/L,150,400,293.06,293.06,10^9/L,150,400,NORMAL,,,,,8.0,MONTH 24,TREATMENT,721,MILESTONE 1
BI-1245.110,LB,BI-1245.110-BRA_SITE01-0020,49,WBC,Leukocytes,HEMATOLOGY,6.36,10^9/L,4.0,11.0,6.36,6.36,10^9/L,4.0,11.0,NORMAL,,,,,8.0,MONTH 24,TREATMENT,721,MILESTONE 1
BI-1245.110,LB,BI-1245.110-BRA_SITE01-0020,50,ALT,Alanine Aminotransferase,CHEMISTRY,22.53,U/L,7,56,22.53,22.53,U/L,7,56,NORMAL,,,,,10.0,SAFETY FU,FOLLOW-UP,838,MILESTONE 1
BI-1245.110,LB,BI-1245.110-BRA_SITE01-0020,51,AST,Aspartate Aminotransferase,CHEMISTRY,22.27,U/L,10,40,22.27,22.27,U/L,10,40,NORMAL,,,,,10.0,SAFETY FU,FOLLOW-UP,838,MILESTONE 1
BI-1245.110,LB,BI-1245.110-BRA_SITE01-0020,52,CREAT,Creatinine,CHEMISTRY,71.29,umol/L,62,106,71.29,71.29,umol/L,62,106,NORMAL,,,,,10.0,SAFETY FU,FOLLOW-UP,838,MILESTONE 1
BI-1245.110,LB,BI-1245.110-BRA_SITE01-0020,53,GLUC,Glucose,CHEMISTRY,5.6,mmol/L,3.9,5.6,5.6,5.6,mmol/L,3.9,5.6,NORMAL,,,,,10.0,SAFETY FU,FOLLOW-UP,838,MILESTONE 1
BI-1245.110,LB,BI-1245.110-BRA_SITE01-0020,54,HGB,Hemoglobin,HEMATOLOGY,128.01,g/L,130,175,128.01,128.01,g/L,130,175,LOW,,,,1,10.0,SAFETY FU,FOLLOW-UP,838,MILESTONE 1
BI-1245.110,LB,BI-1245.110-BRA_SITE01-0020,55,PLAT,Platelets,HEMATOLOGY,283.02,10^9/L,150,400,283.02,283.02,10^9/L,150,400,NORMAL,,,,,10.0,SAFETY FU,FOLLOW-UP,838,MILESTONE 1
BI-1245.110,LB,BI-1245.110-BRA_SITE01-0020,56,WBC,Leukocytes,HEMATOLOGY,6.63,10^9/L,4.0,11.0,6.63,6.63,10^9/L,4.0,11.0,NORMAL,,,,,10.0,SAFETY FU,FOLLOW-UP,838,MILESTONE 1
BI-1245.110,LB,BI-1245.110-CAN_SITE01-0008,1,ALT,Alanine Aminotransferase,CHEMISTRY,34.68,U/L,7,56,34.68,34.68,U/L,7,56,NORMAL,,,,,1.0,SCREENING,SCREENING,-37,MILESTONE 1
BI-1245.110,LB,BI-1245.110-CAN_SITE01-0008,2,AST,Aspartate Aminotransferase,CHEMISTRY,22.91,U/L,10,40,22.91,22.91,U/L,10,40,NORMAL,,,,,1.0,SCREENING,SCREENING,-37,MILESTONE 1
BI-1245.110,LB,BI-1245.110-CAN_SITE01-0008,3,CREAT,Creatinine,CHEMISTRY,90.08,umol/L,62,106,90.08,90.08,umol/L,62,106,NORMAL,,,,,1.0,SCREENING,SCREENING,-37,MILESTONE 1
BI-1245.110,LB,BI-1245.110-CAN_SITE01-0008,4,GLUC,Glucose,CHEMISTRY,5.49,mmol/L,3.9,5.6,5.49,5.49,mmol/L,3.9,5.6,NORMAL,,,,,1.0,SCREENING,SCREENING,-37,MILESTONE 1
BI-1245.110,LB,BI-1245.110-CAN_SITE01-0008,5,HGB,Hemoglobin,HEMATOLOGY,147.28,g/L,130,175,147.28,147.28,g/L,130,175,NORMAL,,,,,1.0,SCREENING,SCREENING,-37,MILESTONE 1
BI-1245.110,LB,BI-1245.110-CAN_SITE01-0008,6,PLAT,Platelets,HEMATOLOGY,97.15,10^9/L,150,400,97.15,97.15,10^9/L,150,400,LOW,,,,2,1.0,SCREENING,SCREENING,-37,MILESTONE 1
BI-1245.110,LB,BI-1245.110-CAN_SITE01-0008,7,WBC,Leukocytes,HEMATOLOGY,,,,,,,,,,,NOT DONE,,,,1.0,SCREENING,SCREENING,-37,MILESTONE 1
BI-1245.110,LB,BI-1245.110-CAN_SITE01-0008,8,ALT,Alanine Aminotransferase,CHEMISTRY,34.99,U/L,7,56,34.99,34.99,U/L,7,56,NORMAL,,Y,Y,,2.0,BASELINE,TREATMENT,1,MILESTONE 1
BI-1245.110,LB,BI-1245.110-CAN_SITE01-0008,9,AST,Aspartate Aminotransferase,CHEMISTRY,22.26,U/L,10,40,22.26,22.26,U/L,10,40,NORMAL,,Y,Y,,2.0,BASELINE,TREATMENT,1,MILESTONE 1
BI-1245.110,LB,BI-1245.110-CAN_SITE01-0008,10,CREAT,Creatinine,CHEMISTRY,88.53,umol/L,62,106,88.53,88.53,umol/L,62,106,NORMAL,,Y,Y,,2.0,BASELINE,TREATMENT,1,MILESTONE 1
BI-1245.110,LB,BI-1245.110-CAN_SITE01-0008,11,GLUC,Glucose,CHEMISTRY,5.47,mmol/L,3.9,5.6,5.47,5.47,mmol/L,3.9,5.6,NORMAL,,Y,Y,,2.0,BASELINE,TREATMENT,1,MILESTONE 1
BI-1245.110,LB,BI-1245.110-CAN_SITE01-0008,12,HGB,Hemoglobin,HEMATOLOGY,146.14,g/L,130,175,146.14,146.14,g/L,130,175,NORMAL,,Y,Y,,2.0,BASELINE,TREATMENT,1,MILESTONE 1
BI-1245.110,LB,BI-1245.110-CAN_SITE01-0008,13,PLAT,Platelets,HEMATOLOGY,102.44,10^9/L,150,400,102.44,102.44,10^9/L,150,400,LOW,,Y,Y,1,2.0,BASELINE,TREATMENT,1,MILESTONE 1
BI-1245.110,LB,BI-1245.110-CAN_SITE01-0008,14,WBC,Leukocytes,HEMATOLOGY,8.31,10^9/L,4.0,11.0,8.31,8.31,10^9/L,4.0,11.0,NORMAL,,Y,Y,,2.0,BASELINE,TREATMENT,1,MILESTONE 1
BI-1245.110,LB,BI-1245.110-CAN_SITE01-0008,15,ALT,Alanine Aminotransferase,CHEMISTRY,37.18,U/L,7,56,37.18,37.18,U/L,7,56,NORMAL,,,,,3.0,WEEK 4,TREATMENT,25,MILESTONE 1
BI-1245.110,LB,BI-1245.110-CAN_SITE01-0008,16,AST,Aspartate Aminotransferase,CHEMISTRY,23.81,U/L,10,40,23.81,23.81,U/L,10,40,NORMAL,,,,,3.0,WEEK 4,TREATMENT,25,MILESTONE 1
BI-1245.110,LB,BI-1245.110-CAN_SITE01-0008,17,CREAT,Creatinine,CHEMISTRY,102.9,umol/L,62,106,102.9,102.9,umol/L,62,106,NORMAL,,,,,3.0,WEEK 4,TREATMENT,25,MILESTONE 1
BI-1245.110,LB,BI-1245.110-CAN_SITE01-0008,18,GLUC,Glucose,CHEMISTRY,5.54,mmol/L,3.9,5.6,5.54,5.54,mmol/L,3.9,5.6,NORMAL,,,,,3.0,WEEK 4,TREATMENT,25,MILESTONE 1
BI-1245.110,LB,BI-1245.110-CAN_SITE01-0008,19,HGB,Hemoglobin,HEMATOLOGY,147.32,g/L,130,175,147.32,147.32,g/L,130,175,NORMAL,,,,,3.0,WEEK 4,TREATMENT,25,MILESTONE 1
BI-1245.110,LB,BI-1245.110-CAN_SITE01-0008,20,PLAT,Platelets,HEMATOLOGY,102.6,10^9/L,150,400,102.6,102.6,10^9/L,150,400,LOW,,,,1,3.0,WEEK 4,TREATMENT,25,MILESTONE 1
BI-1245.110,LB,BI-1245.110-CAN_SITE01-0008,21,WBC,Leukocytes,HEMATOLOGY,8.05,10^9/L,4.0,11.0,8.05,8.05,10^9/L,4.0,11.0,NORMAL,,,,,3.0,WEEK 4,TREATMENT,25,MILESTONE 1
BI-1245.110,LB,BI-1245.110-CAN_SITE01-0008,22,ALT,Alanine Aminotransferase,CHEMISTRY,38.72,U/L,7,56,38.72,38.72,U/L,7,56,NORMAL,,,,,4.0,WEEK 12,TREATMENT,90,MILESTONE 1
BI-1245.110,LB,BI-1245.110-CAN_SITE01-0008,23,AST,Aspartate Aminotransferase,CHEMISTRY,23.29,U/L,10,40,23.29,23.29,U/L,10,40,NORMAL,,,,,4.0,WEEK 12,TREATMENT,90,MILESTONE 1
BI-1245.110,LB,BI-1245.110-CAN_SITE01-0008,24,CREAT,Creatinine,CHEMISTRY,85.88,umol/L,62,106,85.88,85.88,umol/L,62,106,NORMAL,,,,,4.0,WEEK 12,TREATMENT,90,MILESTONE 1
BI-1245.110,LB,BI-1245.110-CAN_SITE01-0008,25,GLUC,Glucose,CHEMISTRY,5.56,mmol/L,3.9,5.6,5.56,5.56,mmol/L,3.9,5.6,NORMAL,,,,,4.0,WEEK 12,TREATMENT,90,MILESTONE 1
BI-1245.110,LB,BI-1245.110-CAN_SITE01-0008,26,HGB,Hemoglobin,HEMATOLOGY,146.64,g/L,130,175,146.64,146.64,g/L,130,175,NORMAL,,,,,4.0,WEEK 12,TREATMENT,90,MILESTONE 1
BI-1245.110,LB,BI-1245.110-CAN_SITE01-0008,27,PLAT,Platelets,HEMATOLOGY,109.23,10^9/L,150,400,109.23,109.23,10^9/L,150,400,LOW,,,,1,4.0,WEEK 12,TREATMENT,90,MILESTONE 1
BI-1245.110,LB,BI-1245.110-CAN_SITE01-0008,28,WBC,Leukocytes,HEMATOLOGY,7.62,10^9/L,4.0,11.0,7.62,7.62,10^9/L,4.0,11.0,NORMAL,,,,,4.0,WEEK 12,TREATMENT,90,MILESTONE 1
BI-1245.110,LB,BI-1245.110-CAN_SITE01-0008,29,ALT,Alanine Aminotransferase,CHEMISTRY,36.74,U/L,7,56,36.74,36.74,U/L,7,56,NORMAL,,,,,5.0,MONTH 6,TREATMENT,186,MILESTONE 1
BI-1245.110,LB,BI-1245.110-CAN_SITE01-0008,30,AST,Aspartate Aminotransferase,CHEMISTRY,23.99,U/L,10,40,23.99,23.99,U/L,10,40,NORMAL,,,,,5.0,MONTH 6,TREATMENT,186,MILESTONE 1
BI-1245.110,LB,BI-1245.110-CAN_SITE01-0008,31,CREAT,Creatinine,CHEMISTRY,86.57,umol/L,62,106,86.57,86.57,umol/L,62,106,NORMAL,,,,,5.0,MONTH 6,TREATMENT,186,MILESTONE 1
BI-1245.110,LB,BI-1245.110-CAN_SITE01-0008,32,GLUC,Glucose,CHEMISTRY,5.37,mmol/L,3.9,5.6,5.37,5.37,mmol/L,3.9,5.6,NORMAL,,,,,5.0,MONTH 6,TREATMENT,186,MILESTONE 1
BI-1245.110,LB,BI-1245.110-CAN_SITE01-0008,33,HGB,Hemoglobin,HEMATOLOGY,147.62,g/L,130,175,147.62,147.62,g/L,130,175,NORMAL,,,,,5.0,MONTH 6,TREATMENT,186,MILESTONE 1
BI-1245.110,LB,BI-1245.110-CAN_SITE01-0008,34,PLAT,Platelets,HEMATOLOGY,98.44,10^9/L,150,400,98.44,98.44,10^9/L,150,400,LOW,,,,2,5.0,MONTH 6,TREATMENT,186,MILESTONE 1
BI-1245.110,LB,BI-1245.110-CAN_SITE01-0008,35,WBC,Leukocytes,HEMATOLOGY,8.07,10^9/L,4.0,11.0,8.07,8.07,10^9/L,4.0,11.0,NORMAL,,,,,5.0,MONTH 6,TREATMENT,186,MILESTONE 1
BI-1245.110,LB,BI-1245.110-CAN_SITE01-0008,36,ALT,Alanine Aminotransferase,CHEMISTRY,37.9,U/L,7,56,37.9,37.9,U/L,7,56,NORMAL,,,,,6.0,MONTH 12,TREATMENT,367,MILESTONE 1
BI-1245.110,LB,BI-1245.110-CAN_SITE01-0008,37,AST,Aspartate Aminotransferase,CHEMISTRY,23.87,U/L,10,40,23.87,23.87,U/L,10,40,NORMAL,,,,,6.0,MONTH 12,TREATMENT,367,MILESTONE 1
BI-1245.110,LB,BI-1245.110-CAN_SITE01-0008,38,CREAT,Creatinine,CHEMISTRY,86.85,umol/L,62,106,86.85,86.85,umol/L,62,106,NORMAL,,,,,6.0,MONTH 12,TREATMENT,367,MILESTONE 1
BI-1245.110,LB,BI-1245.110-CAN_SITE01-0008,39,GLUC,Glucose,CHEMISTRY,5.61,mmol/L,3.9,5.6,5.61,5.61,mmol/L,3.9,5.6,HIGH,,,,1,6.0,MONTH 12,TREATMENT,367,MILESTONE 1
BI-1245.110,LB,BI-1245.110-CAN_SITE01-0008,40,HGB,Hemoglobin,HEMATOLOGY,148.48,g/L,130,175,148.48,148.48,g/L,130,175,NORMAL,,,,,6.0,MONTH 12,TREATMENT,367,MILESTONE 1
BI-1245.110,LB,BI-1245.110-CAN_SITE01-0008,41,PLAT,Platelets,HEMATOLOGY,114.32,10^9/L,150,400,114.32,114.32,10^9/L,150,400,LOW,,,,1,6.0,MONTH 12,TREATMENT,367,MILESTONE 1
BI-1245.110,LB,BI-1245.110-CAN_SITE01-0008,42,WBC,Leukocytes,HEMATOLOGY,10.4,10^9/L,4.0,11.0,10.4,10.4,10^9/L,4.0,11.0,NORMAL,,,,,6.0,MONTH 12,TREATMENT,367,MILESTONE 1
BI-1245.110,LB,BI-1245.110-CAN_SITE01-0015,1,ALT,Alanine Aminotransferase,CHEMISTRY,35.91,U/L,7,56,35.91,35.91,U/L,7,56,NORMAL,,,,,1.0,SCREENING,SCREENING,-39,MILESTONE 1
BI-1245.110,LB,BI-1245.110-CAN_SITE01-0015,2,AST,Aspartate Aminotransferase,CHEMISTRY,5.0,U/L,10,40,5.0,5.0,U/L,10,40,LOW,,,,3,1.0,SCREENING,SCREENING,-39,MILESTONE 1
BI-1245.110,LB,BI-1245.110-CAN_SITE01-0015,3,CREAT,Creatinine,CHEMISTRY,51.94,umol/L,44,80,51.94,51.94,umol/L,44,80,NORMAL,,,,,1.0,SCREENING,SCREENING,-39,MILESTONE 1
BI-1245.110,LB,BI-1245.110-CAN_SITE01-0015,4,GLUC,Glucose,CHEMISTRY,5.64,mmol/L,3.9,5.6,5.64,5.64,mmol/L,3.9,5.6,HIGH,,,,1,1.0,SCREENING,SCREENING,-39,MILESTONE 1
BI-1245.110,LB,BI-1245.110-CAN_SITE01-0015,5,HGB,Hemoglobin,HEMATOLOGY,119.28,g/L,120,155,119.28,119.28,g/L,120,155,LOW,,,,1,1.0,SCREENING,SCREENING,-39,MILESTONE 1
BI-1245.110,LB,BI-1245.110-CAN_SITE01-0015,6,PLAT,Platelets,HEMATOLOGY,,,,,,,,,,,NOT DONE,,,,1.0,SCREENING,SCREENING,-39,MILESTONE 1
BI-1245.110,LB,BI-1245.110-CAN_SITE01-0015,7,WBC,Leukocytes,HEMATOLOGY,4.49,10^9/L,4.0,11.0,4.49,4.49,10^9/L,4.0,11.0,NORMAL,,,,,1.0,SCREENING,SCREENING,-39,MILESTONE 1
BI-1245.110,LB,BI-1245.110-CAN_SITE01-0015,8,ALT,Alanine Aminotransferase,CHEMISTRY,34.19,U/L,7,56,34.19,34.19,U/L,7,56,NORMAL,,Y,Y,,2.0,BASELINE,TREATMENT,1,MILESTONE 1
BI-1245.110,LB,BI-1245.110-CAN_SITE01-0015,9,AST,Aspartate Aminotransferase,CHEMISTRY,5.52,U/L,10,40,5.52,5.52,U/L,10,40,LOW,,Y,Y,2,2.0,BASELINE,TREATMENT,1,MILESTONE 1
BI-1245.110,LB,BI-1245.110-CAN_SITE01-0015,10,CREAT,Creatinine,CHEMISTRY,49.95,umol/L,44,80,49.95,49.95,umol/L,44,80,NORMAL,,Y,Y,,2.0,BASELINE,TREATMENT,1,MILESTONE 1
BI-1245.110,LB,BI-1245.110-CAN_SITE01-0015,11,GLUC,Glucose,CHEMISTRY,5.53,mmol/L,3.9,5.6,5.53,5.53,mmol/L,3.9,5.6,NORMAL,,Y,Y,,2.0,BASELINE,TREATMENT,1,MILESTONE 1
BI-1245.110,LB,BI-1245.110-CAN_SITE01-0015,12,HGB,Hemoglobin,HEMATOLOGY,119.06,g/L,120,155,119.06,119.06,g/L,120,155,LOW,,Y,Y,1,2.0,BASELINE,TREATMENT,1,MILESTONE 1
BI-1245.110,LB,BI-1245.110-CAN_SITE01-0015,13,PLAT,Platelets,HEMATOLOGY,231.67,10^9/L,150,400,231.67,231.67,10^9/L,150,400,NORMAL,,Y,Y,,2.0,BASELINE,TREATMENT,1,MILESTONE 1
BI-1245.110,LB,BI-1245.110-CAN_SITE01-0015,14,WBC,Leukocytes,HEMATOLOGY,4.64,10^9/L,4.0,11.0,4.64,4.64,10^9/L,4.0,11.0,NORMAL,,Y,Y,,2.0,BASELINE,TREATMENT,1,MILESTONE 1
BI-1245.110,LB,BI-1245.110-CAN_SITE01-0015,15,ALT,Alanine Aminotransferase,CHEMISTRY,35.67,U/L,7,56,35.67,35.67,U/L,7,56,NORMAL,,,,,3.0,WEEK 4,TREATMENT,31,MILESTONE 1
BI-1245.110,LB,BI-1245.110-CAN_SITE01-0015,16,AST,Aspartate Aminotransferase,CHEMISTRY,6.39,U/L,10,40,6.39,6.39,U/L,10,40,LOW,,,,2,3.0,WEEK 4,TREATMENT,31,MILESTONE 1
BI-1245.110,LB,BI-1245.110-CAN_SITE01-0015,17,CREAT,Creatinine,CHEMISTRY,51.66,umol/L,44,80,51.66,51.66,umol/L,44,80,NORMAL,,,,,3.0,WEEK 4,TREATMENT,31,MILESTONE 1
BI-1245.110,LB,BI-1245.110-CAN_SITE01-0015,18,GLUC,Glucose,CHEMISTRY,5.48,mmol/L,3.9,5.6,5.48,5.48,mmol/L,3.9,5.6,NORMAL,,,,,3.0,WEEK 4,TREATMENT,31,MILESTONE 1
BI-1245.110,LB,BI-1245.110-CAN_SITE01-0015,19,HGB,Hemoglobin,HEMATOLOGY,119.5,g/L,120,155,119.5,119.5,g/L,120,155,LOW,,,,1,3.0,WEEK 4,TREATMENT,31,MILESTONE 1
BI-1245.110,LB,BI-1245.110-CAN_SITE01-0015,20,PLAT,Platelets,HEMATOLOGY,231.98,10^9/L,150,400,231.98,231.98,10^9/L,150,400,NORMAL,,,,,3.0,WEEK 4,TREATMENT,31,MILESTONE 1
BI-1245.110,LB,BI-1245.110-CAN_SITE01-0015,21,WBC,Leukocytes,HEMATOLOGY,4.76,10^9/L,4.0,11.0,4.76,4.76,10^9/L,4.0,11.0,NORMAL,,,,,3.0,WEEK 4,TREATMENT,31,MILESTONE 1
BI-1245.110,LB,BI-1245.110-CAN_SITE01-0015,22,ALT,Alanine Aminotransferase,CHEMISTRY,34.13,U/L,7,56,34.13,34.13,U/L,7,56,NORMAL,,,,,4.0,WEEK 12,TREATMENT,85,MILESTONE 1
BI-1245.110,LB,BI-1245.110-CAN_SITE01-0015,23,AST,Aspartate Aminotransferase,CHEMISTRY,5.0,U/L,10,40,5.0,5.0,U/L,10,40,LOW,,,,3,4.0,WEEK 12,TREATMENT,85,MILESTONE 1
BI-1245.110,LB,BI-1245.110-CAN_SITE01-0015,24,CREAT,Creatinine,CHEMISTRY,49.93,umol/L,44,80,49.93,49.93,umol/L,44,80,NORMAL,,,,,4.0,WEEK 12,TREATMENT,85,MILESTONE 1
BI-1245.110,LB,BI-1245.110-CAN_SITE01-0015,25,GLUC,Glucose,CHEMISTRY,5.65,mmol/L,3.9,5.6,5.65,5.65,mmol/L,3.9,5.6,HIGH,,,,1,4.0,WEEK 12,TREATMENT,85,MILESTONE 1
BI-1245.110,LB,BI-1245.110-CAN_SITE01-0015,26,HGB,Hemoglobin,HEMATOLOGY,118.87,g/L,120,155,118.87,118.87,g/L,120,155,LOW,,,,1,4.0,WEEK 12,TREATMENT,85,MILESTONE 1
BI-1245.110,LB,BI-1245.110-CAN_SITE01-0015,27,PLAT,Platelets,HEMATOLOGY,241.43,10^9/L,150,400,241.43,241.43,10^9/L,150,400,NORMAL,,,,,4.0,WEEK 12,TREATMENT,85,MILESTONE 1
BI-1245.110,LB,BI-1245.110-CAN_SITE01-0015,28,WBC,Leukocytes,HEMATOLOGY,8.68,10^9/L,4.0,11.0,8.68,8.68,10^9/L,4.0,11.0,NORMAL,,,,,4.0,WEEK 12,TREATMENT,85,MILESTONE 1
BI-1245.110,LB,BI-1245.110-CAN_SITE01-0015,29,ALT,Alanine Aminotransferase,CHEMISTRY,33.59,U/L,7,56,33.59,33.59,U/L,7,56,NORMAL,,,,,6.0,MONTH 12,TREATMENT,356,MILESTONE 1
BI-1245.110,LB,BI-1245.110-CAN_SITE01-0015,30,AST,Aspartate Aminotransferase,CHEMISTRY,5.25,U/L,10,40,5.25,5.25,U/L,10,40,LOW,,,,2,6.0,MONTH 12,TREATMENT,356,MILESTONE 1
BI-1245.110,LB,BI-1245.110-CAN_SITE01-0015,31,CREAT,Creatinine,CHEMISTRY,51.26,umol/L,44,80,51.26,51.26,umol/L,44,80,NORMAL,,,,,6.0,MONTH 12,TREATMENT,356,MILESTONE 1
BI-1245.110,LB,BI-1245.110-CAN_SITE01-0015,32,GLUC,Glucose,CHEMISTRY,4.37,mmol/L,3.9,5.6,4.37,4.37,mmol/L,3.9,5.6,NORMAL,,,,,6.0,MONTH 12,TREATMENT,356,MILESTONE 1
BI-1245.110,LB,BI-1245.110-CAN_SITE01-0015,33,HGB,Hemoglobin,HEMATOLOGY,119.37,g/L,120,155,119.37,119.37,g/L,120,155,LOW,,,,1,6.0,MONTH 12,TREATMENT,356,MILESTONE 1
BI-1245.110,LB,BI-1245.110-CAN_SITE01-0015,34,PLAT,Platelets,HEMATOLOGY,228.09,10^9/L,150,400,228.09,228.09,10^9/L,150,400,NORMAL,,,,,6.0,MONTH 12,TREATMENT,356,MILESTONE 1
BI-1245.110,LB,BI-1245.110-CAN_SITE01-0015,35,WBC,Leukocytes,HEMATOLOGY,4.18,10^9/L,4.0,11.0,4.18,4.18,10^9/L,4.0,11.0,NORMAL,,,,,6.0,MONTH 12,TREATMENT,356,MILESTONE 1
BI-1245.110,LB,BI-1245.110-JPN_SITE01-0003,1,ALT,Alanine Aminotransferase,CHEMISTRY,19.09,U/L,7,56,19.09,19.09,U/L,7,56,NORMAL,,,,,1.0,SCREENING,SCREENING,-32,MILESTONE 1
BI-1245.110,LB,BI-1245.110-JPN_SITE01-0003,2,AST,Aspartate Aminotransferase,CHEMISTRY,16.73,U/L,10,40,16.73,16.73,U/L,10,40,NORMAL,,,,,1.0,SCREENING,SCREENING,-32,MILESTONE 1
BI-1245.110,LB,BI-1245.110-JPN_SITE01-0003,3,CREAT,Creatinine,CHEMISTRY,59.79,umol/L,62,106,59.79,59.79,umol/L,62,106,LOW,,,,1,1.0,SCREENING,SCREENING,-32,MILESTONE 1
BI-1245.110,LB,BI-1245.110-JPN_SITE01-0003,4,GLUC,Glucose,CHEMISTRY,5.14,mmol/L,3.9,5.6,5.14,5.14,mmol/L,3.9,5.6,NORMAL,,,,,1.0,SCREENING,SCREENING,-32,MILESTONE 1
BI-1245.110,LB,BI-1245.110-JPN_SITE01-0003,5,HGB,Hemoglobin,HEMATOLOGY,,,,,,,,,,,NOT DONE,,,,1.0,SCREENING,SCREENING,-32,MILESTONE 1
BI-1245.110,LB,BI-1245.110-JPN_SITE01-0003,6,PLAT,Platelets,HEMATOLOGY,259.22,10^9/L,150,400,259.22,259.22,10^9/L,150,400,NORMAL,,,,,1.0,SCREENING,SCREENING,-32,MILESTONE 1
BI-1245.110,LB,BI-1245.110-JPN_SITE01-0003,7,WBC,Leukocytes,HEMATOLOGY,7.23,10^9/L,4.0,11.0,7.23,7.23,10^9/L,4.0,11.0,NORMAL,,,,,1.0,SCREENING,SCREENING,-32,MILESTONE 1
BI-1245.110,LB,BI-1245.110-JPN_SITE01-0003,8,ALT,Alanine Aminotransferase,CHEMISTRY,19.82,U/L,7,56,19.82,19.82,U/L,7,56,NORMAL,,Y,Y,,2.0,BASELINE,TREATMENT,1,MILESTONE 1
BI-1245.110,LB,BI-1245.110-JPN_SITE01-0003,9,AST,Aspartate Aminotransferase,CHEMISTRY,16.59,U/L,10,40,16.59,16.59,U/L,10,40,NORMAL,,Y,Y,,2.0,BASELINE,TREATMENT,1,MILESTONE 1
BI-1245.110,LB,BI-1245.110-JPN_SITE01-0003,10,CREAT,Creatinine,CHEMISTRY,55.89,umol/L,62,106,55.89,55.89,umol/L,62,106,LOW,,Y,Y,1,2.0,BASELINE,TREATMENT,1,MILESTONE 1
BI-1245.110,LB,BI-1245.110-JPN_SITE01-0003,11,GLUC,Glucose,CHEMISTRY,3.79,mmol/L,3.9,5.6,3.79,3.79,mmol/L,3.9,5.6,LOW,,Y,Y,1,2.0,BASELINE,TREATMENT,1,MILESTONE 1
BI-1245.110,LB,BI-1245.110-JPN_SITE01-0003,12,HGB,Hemoglobin,HEMATOLOGY,153.22,g/L,130,175,153.22,153.22,g/L,130,175,NORMAL,,Y,Y,,2.0,BASELINE,TREATMENT,1,MILESTONE 1
BI-1245.110,LB,BI-1245.110-JPN_SITE01-0003,13,PLAT,Platelets,HEMATOLOGY,268.83,10^9/L,150,400,268.83,268.83,10^9/L,150,400,NORMAL,,Y,Y,,2.0,BASELINE,TREATMENT,1,MILESTONE 1
BI-1245.110,LB,BI-1245.110-JPN_SITE01-0003,14,WBC,Leukocytes,HEMATOLOGY,6.79,10^9/L,4.0,11.0,6.79,6.79,10^9/L,4.0,11.0,NORMAL,,Y,Y,,2.0,BASELINE,TREATMENT,1,MILESTONE 1
BI-1245.110,LB,BI-1245.110-JPN_SITE01-0003,15,ALT,Alanine Aminotransferase,CHEMISTRY,18.19,U/L,7,56,18.19,18.19,U/L,7,56,NORMAL,,,,,3.0,WEEK 4,TREATMENT,25,MILESTONE 1
BI-1245.110,LB,BI-1245.110-JPN_SITE01-0003,16,AST,Aspartate Aminotransferase,CHEMISTRY,15.92,U/L,10,40,15.92,15.92,U/L,10,40,NORMAL,,,,,3.0,WEEK 4,TREATMENT,25,MILESTONE 1
BI-1245.110,LB,BI-1245.110-JPN_SITE01-0003,17,CREAT,Creatinine,CHEMISTRY,59.88,umol/L,62,106,59.88,59.88,umol/L,62,106,LOW,,,,1,3.0,WEEK 4,TREATMENT,25,MILESTONE 1
BI-1245.110,LB,BI-1245.110-JPN_SITE01-0003,18,GLUC,Glucose,CHEMISTRY,4.94,mmol/L,3.9,5.6,4.94,4.94,mmol/L,3.9,5.6,NORMAL,,,,,3.0,WEEK 4,TREATMENT,25,MILESTONE 1
BI-1245.110,LB,BI-1245.110-JPN_SITE01-0003,19,HGB,Hemoglobin,HEMATOLOGY,151.53,g/L,130,175,151.53,151.53,g/L,130,175,NORMAL,,,,,3.0,WEEK 4,TREATMENT,25,MILESTONE 1
BI-1245.110,LB,BI-1245.110-JPN_SITE01-0003,20,PLAT,Platelets,HEMATOLOGY,273.05,10^9/L,150,400,273.05,273.05,10^9/L,150,400,NORMAL,,,,,3.0,WEEK 4,TREATMENT,25,MILESTONE 1
BI-1245.110,LB,BI-1245.110-JPN_SITE01-0003,21,WBC,Leukocytes,HEMATOLOGY,7.04,10^9/L,4.0,11.0,7.04,7.04,10^9/L,4.0,11.0,NORMAL,,,,,3.0,WEEK 4,TREATMENT,25,MILESTONE 1
BI-1245.110,LB,BI-1245.110-JPN_SITE01-0003,22,ALT,Alanine Aminotransferase,CHEMISTRY,17.94,U/L,7,56,17.94,17.94,U/L,7,56,NORMAL,,,,,4.0,WEEK 12,TREATMENT,92,MILESTONE 1
BI-1245.110,LB,BI-1245.110-JPN_SITE01-0003,23,AST,Aspartate Aminotransferase,CHEMISTRY,16.33,U/L,10,40,16.33,16.33,U/L,10,40,NORMAL,,,,,4.0,WEEK 12,TREATMENT,92,MILESTONE 1
BI-1245.110,LB,BI-1245.110-JPN_SITE01-0003,24,CREAT,Creatinine,CHEMISTRY,62.82,umol/L,62,106,62.82,62.82,umol/L,62,106,NORMAL,,,,,4.0,WEEK 12,TREATMENT,92,MILESTONE 1
BI-1245.110,LB,BI-1245.110-JPN_SITE01-0003,25,GLUC,Glucose,CHEMISTRY,4.94,mmol/L,3.9,5.6,4.94,4.94,mmol/L,3.9,5.6,NORMAL,,,,,4.0,WEEK 12,TREATMENT,92,MILESTONE 1
BI-1245.110,LB,BI-1245.110-JPN_SITE01-0003,26,HGB,Hemoglobin,HEMATOLOGY,152.58,g/L,130,175,152.58,152.58,g/L,130,175,NORMAL,,,,,4.0,WEEK 12,TREATMENT,92,MILESTONE 1
BI-1245.110,LB,BI-1245.110-JPN_SITE01-0003,27,PLAT,Platelets,HEMATOLOGY,275.08,10^9/L,150,400,275.08,275.08,10^9/L,150,400,NORMAL,,,,,4.0,WEEK 12,TREATMENT,92,MILESTONE 1
BI-1245.110,LB,BI-1245.110-JPN_SITE01-0003,28,WBC,Leukocytes,HEMATOLOGY,6.72,10^9/L,4.0,11.0,6.72,6.72,10^9/L,4.0,11.0,NORMAL,,,,,4.0,WEEK 12,TREATMENT,92,MILESTONE 1
BI-1245.110,LB,BI-1245.110-JPN_SITE01-0003,29,ALT,Alanine Aminotransferase,CHEMISTRY,17.93,U/L,7,56,17.93,17.93,U/L,7,56,NORMAL,,,,,5.0,MONTH 6,TREATMENT,169,MILESTONE 1
BI-1245.110,LB,BI-1245.110-JPN_SITE01-0003,30,AST,Aspartate Aminotransferase,CHEMISTRY,13.96,U/L,10,40,13.96,13.96,U/L,10,40,NORMAL,,,,,5.0,MONTH 6,TREATMENT,169,MILESTONE 1
BI-1245.110,LB,BI-1245.110-JPN_SITE01-0003,31,CREAT,Creatinine,CHEMISTRY,64.41,umol/L,62,106,64.41,64.41,umol/L,62,106,NORMAL,,,,,5.0,MONTH 6,TREATMENT,169,MILESTONE 1
BI-1245.110,LB,BI-1245.110-JPN_SITE01-0003,32,GLUC,Glucose,CHEMISTRY,5.02,mmol/L,3.9,5.6,5.02,5.02,mmol/L,3.9,5.6,NORMAL,,,,,5.0,MONTH 6,TREATMENT,169,MILESTONE 1
BI-1245.110,LB,BI-1245.110-JPN_SITE01-0003,33,HGB,Hemoglobin,HEMATOLOGY,153.06,g/L,130,175,153.06,153.06,g/L,130,175,NORMAL,,,,,5.0,MONTH 6,TREATMENT,169,MILESTONE 1
BI-1245.110,LB,BI-1245.110-JPN_SITE01-0003,34,PLAT,Platelets,HEMATOLOGY,270.4,10^9/L,150,400,270.4,270.4,10^9/L,150,400,NORMAL,,,,,5.0,MONTH 6,TREATMENT,169,MILESTONE 1
BI-1245.110,LB,BI-1245.110-JPN_SITE01-0003,35,WBC,Leukocytes,HEMATOLOGY,6.83,10^9/L,4.0,11.0,6.83,6.83,10^9/L,4.0,11.0,NORMAL,,,,,5.0,MONTH 6,TREATMENT,169,MILESTONE 1
BI-1245.110,LB,BI-1245.110-JPN_SITE01-0003,36,ALT,Alanine Aminotransferase,CHEMISTRY,16.11,U/L,7,56,16.11,16.11,U/L,7,56,NORMAL,,,,,6.0,MONTH 12,TREATMENT,368,MILESTONE 1
BI-1245.110,LB,BI-1245.110-JPN_SITE01-0003,37,AST,Aspartate Aminotransferase,CHEMISTRY,13.7,U/L,10,40,13.7,13.7,U/L,10,40,NORMAL,,,,,6.0,MONTH 12,TREATMENT,368,MILESTONE 1
BI-1245.110,LB,BI-1245.110-JPN_SITE01-0003,38,CREAT,Creatinine,CHEMISTRY,60.84,umol/L,62,106,60.84,60.84,umol/L,62,106,LOW,,,,1,6.0,MONTH 12,TREATMENT,368,MILESTONE 1
BI-1245.110,LB,BI-1245.110-JPN_SITE01-0003,39,GLUC,Glucose,CHEMISTRY,4.86,mmol/L,3.9,5.6,4.86,4.86,mmol/L,3.9,5.6,NORMAL,,,,,6.0,MONTH 12,TREATMENT,368,MILESTONE 1
BI-1245.110,LB,BI-1245.110-JPN_SITE01-0003,40,HGB,Hemoglobin,HEMATOLOGY,151.08,g/L,130,175,151.08,151.08,g/L,130,175,NORMAL,,,,,6.0,MONTH 12,TREATMENT,368,MILESTONE 1
BI-1245.110,LB,BI-1245.110-JPN_SITE01-0003,41,PLAT,Platelets,HEMATOLOGY,,,,,,,,,,,NOT DONE,,,,6.0,MONTH 12,TREATMENT,368,MILESTONE 1
BI-1245.110,LB,BI-1245.110-JPN_SITE01-0003,42,WBC,Leukocytes,HEMATOLOGY,6.0,10^9/L,4.0,11.0,6.0,6.0,10^9/L,4.0,11.0,NORMAL,,,,,6.0,MONTH 12,TREATMENT,368,MILESTONE 1
BI-1245.110,LB,BI-1245.110-JPN_SITE01-0003,43,ALT,Alanine Aminotransferase,CHEMISTRY,17.04,U/L,7,56,17.04,17.04,U/L,7,56,NORMAL,,,,,7.0,MONTH 18,TREATMENT,540,MILESTONE 1
BI-1245.110,LB,BI-1245.110-JPN_SITE01-0003,44,AST,Aspartate Aminotransferase,CHEMISTRY,12.6,U/L,10,40,12.6,12.6,U/L,10,40,NORMAL,,,,,7.0,MONTH 18,TREATMENT,540,MILESTONE 1
BI-1245.110,LB,BI-1245.110-JPN_SITE01-0003,45,CREAT,Creatinine,CHEMISTRY,61.52,umol/L,62,106,61.52,61.52,umol/L,62,106,LOW,,,,1,7.0,MONTH 18,TREATMENT,540,MILESTONE 1
BI-1245.110,LB,BI-1245.110-JPN_SITE01-0003,46,GLUC,Glucose,CHEMISTRY,5.01,mmol/L,3.9,5.6,5.01,5.01,mmol/L,3.9,5.6,NORMAL,,,,,7.0,MONTH 18,TREATMENT,540,MILESTONE 1
BI-1245.110,LB,BI-1245.110-JPN_SITE01-0003,47,HGB,Hemoglobin,HEMATOLOGY,153.58,g/L,130,175,153.58,153.58,g/L,130,175,NORMAL,,,,,7.0,MONTH 18,TREATMENT,540,MILESTONE 1
BI-1245.110,LB,BI-1245.110-JPN_SITE01-0003,48,PLAT,Platelets,HEMATOLOGY,270.75,10^9/L,150,400,270.75,270.75,10^9/L,150,400,NORMAL,,,,,7.0,MONTH 18,TREATMENT,540,MILESTONE 1
BI-1245.110,LB,BI-1245.110-JPN_SITE01-0003,49,WBC,Leukocytes,HEMATOLOGY,6.2,10^9/L,4.0,11.0,6.2,6.2,10^9/L,4.0,11.0,NORMAL,,,,,7.0,MONTH 18,TREATMENT,540,MILESTONE 1
BI-1245.110,LB,BI-1245.110-JPN_SITE01-0003,50,ALT,Alanine Aminotransferase,CHEMISTRY,16.92,U/L,7,56,16.92,16.92,U/L,7,56,NORMAL,,,,,8.0,MONTH 24,TREATMENT,729,MILESTONE 1
BI-1245.110,LB,BI-1245.110-JPN_SITE01-0003,51,AST,Aspartate Aminotransferase,CHEMISTRY,12.48,U/L,10,40,12.48,12.48,U/L,10,40,NORMAL,,,,,8.0,MONTH 24,TREATMENT,729,MILESTONE 1
BI-1245.110,LB,BI-1245.110-JPN_SITE01-0003,52,CREAT,Creatinine,CHEMISTRY,60.1,umol/L,62,106,60.1,60.1,umol/L,62,106,LOW,,,,1,8.0,MONTH 24,TREATMENT,729,MILESTONE 1
BI-1245.110,LB,BI-1245.110-JPN_SITE01-0003,53,GLUC,Glucose,CHEMISTRY,5.27,mmol/L,3.9,5.6,5.27,5.27,mmol/L,3.9,5.6,NORMAL,,,,,8.0,MONTH 24,TREATMENT,729,MILESTONE 1
BI-1245.110,LB,BI-1245.110-JPN_SITE01-0003,54,HGB,Hemoglobin,HEMATOLOGY,153.55,g/L,130,175,153.55,153.55,g/L,130,175,NORMAL,,,,,8.0,MONTH 24,TREATMENT,729,MILESTONE 1
BI-1245.110,LB,BI-1245.110-JPN_SITE01-0003,55,PLAT,Platelets,HEMATOLOGY,284.97,10^9/L,150,400,284.97,284.97,10^9/L,150,400,NORMAL,,,,,8.0,MONTH 24,TREATMENT,729,MILESTONE 1
BI-1245.110,LB,BI-1245.110-JPN_SITE01-0003,56,WBC,Leukocytes,HEMATOLOGY,7.06,10^9/L,4.0,11.0,7.06,7.06,10^9/L,4.0,11.0,NORMAL,,,,,8.0,MONTH 24,TREATMENT,729,MILESTONE 1
BI-1245.110,LB,BI-1245.110-JPN_SITE01-0003,57,ALT,Alanine Aminotransferase,CHEMISTRY,18.93,U/L,7,56,18.93,18.93,U/L,7,56,NORMAL,,,,,10.0,SAFETY FU,FOLLOW-UP,837,MILESTONE 1
BI-1245.110,LB,BI-1245.110-JPN_SITE01-0003,58,AST,Aspartate Aminotransferase,CHEMISTRY,12.25,U/L,10,40,12.25,12.25,U/L,10,40,NORMAL,,,,,10.0,SAFETY FU,FOLLOW-UP,837,MILESTONE 1
BI-1245.110,LB,BI-1245.110-JPN_SITE01-0003,59,CREAT,Creatinine,CHEMISTRY,61.79,umol/L,62,106,61.79,61.79,umol/L,62,106,LOW,,,,1,10.0,SAFETY FU,FOLLOW-UP,837,MILESTONE 1
BI-1245.110,LB,BI-1245.110-JPN_SITE01-0003,60,GLUC,Glucose,CHEMISTRY,5.43,mmol/L,3.9,5.6,5.43,5.43,mmol/L,3.9,5.6,NORMAL,,,,,10.0,SAFETY FU,FOLLOW-UP,837,MILESTONE 1
BI-1245.110,LB,BI-1245.110-JPN_SITE01-0003,61,HGB,Hemoglobin,HEMATOLOGY,150.89,g/L,130,175,150.89,150.89,g/L,130,175,NORMAL,,,,,10.0,SAFETY FU,FOLLOW-UP,837,MILESTONE 1
BI-1245.110,LB,BI-1245.110-JPN_SITE01-0003,62,PLAT,Platelets,HEMATOLOGY,281.24,10^9/L,150,400,281.24,281.24,10^9/L,150,400,NORMAL,,,,,10.0,SAFETY FU,FOLLOW-UP,837,MILESTONE 1
BI-1245.110,LB,BI-1245.110-JPN_SITE01-0003,63,WBC,Leukocytes,HEMATOLOGY,6.91,10^9/L,4.0,11.0,6.91,6.91,10^9/L,4.0,11.0,NORMAL,,,,,10.0,SAFETY FU,FOLLOW-UP,837,MILESTONE 1
BI-1245.110,LB,BI-1245.110-JPN_SITE01-0013,1,ALT,Alanine Aminotransferase,CHEMISTRY,16.89,U/L,7,56,16.89,16.89,U/L,7,56,NORMAL,,,,,1.0,SCREENING,SCREENING,-34,MILESTONE 1
BI-1245.110,LB,BI-1245.110-JPN_SITE01-0013,2,AST,Aspartate Aminotransferase,CHEMISTRY,16.38,U/L,10,40,16.38,16.38,U/L,10,40,NORMAL,,,,,1.0,SCREENING,SCREENING,-34,MILESTONE 1
BI-1245.110,LB,BI-1245.110-JPN_SITE01-0013,3,CREAT,Creatinine,CHEMISTRY,41.62,umol/L,44,80,41.62,41.62,umol/L,44,80,LOW,,Y,Y,1,1.0,SCREENING,SCREENING,-34,MILESTONE 1
BI-1245.110,LB,BI-1245.110-JPN_SITE01-0013,4,GLUC,Glucose,CHEMISTRY,6.07,mmol/L,3.9,5.6,6.07,6.07,mmol/L,3.9,5.6,HIGH,,,,1,1.0,SCREENING,SCREENING,-34,MILESTONE 1
BI-1245.110,LB,BI-1245.110-JPN_SITE01-0013,5,HGB,Hemoglobin,HEMATOLOGY,122.71,g/L,120,155,122.71,122.71,g/L,120,155,NORMAL,,,,,1.0,SCREENING,SCREENING,-34,MILESTONE 1
BI-1245.110,LB,BI-1245.110-JPN_SITE01-0013,6,PLAT,Platelets,HEMATOLOGY,327.26,10^9/L,150,400,327.26,327.26,10^9/L,150,400,NORMAL,,,,,1.0,SCREENING,SCREENING,-34,MILESTONE 1
BI-1245.110,LB,BI-1245.110-JPN_SITE01-0013,7,WBC,Leukocytes,HEMATOLOGY,9.25,10^9/L,4.0,11.0,9.25,9.25,10^9/L,4.0,11.0,NORMAL,,,,,1.0,SCREENING,SCREENING,-34,MILESTONE 1
BI-1245.110,LB,BI-1245.110-JPN_SITE01-0013,8,ALT,Alanine Aminotransferase,CHEMISTRY,17.48,U/L,7,56,17.48,17.48,U/L,7,56,NORMAL,,Y,Y,,2.0,BASELINE,TREATMENT,1,MILESTONE 1
BI-1245.110,LB,BI-1245.110-JPN_SITE01-0013,9,AST,Aspartate Aminotransferase,CHEMISTRY,14.7,U/L,10,40,14.7,14.7,U/L,10,40,NORMAL,,Y,Y,,2.0,BASELINE,TREATMENT,1,MILESTONE 1
BI-1245.110,LB,BI-1245.110-JPN_SITE01-0013,10,CREAT,Creatinine,CHEMISTRY,,,,,,,,,,,NOT DONE,,,,2.0,BASELINE,TREATMENT,1,MILESTONE 1
BI-1245.110,LB,BI-1245.110-JPN_SITE01-0013,11,GLUC,Glucose,CHEMISTRY,5.98,mmol/L,3.9,5.6,5.98,5.98,mmol/L,3.9,5.6,HIGH,,Y,Y,1,2.0,BASELINE,TREATMENT,1,MILESTONE 1
BI-1245.110,LB,BI-1245.110-JPN_SITE01-0013,12,HGB,Hemoglobin,HEMATOLOGY,122.97,g/L,120,155,122.97,122.97,g/L,120,155,NORMAL,,Y,Y,,2.0,BASELINE,TREATMENT,1,MILESTONE 1
BI-1245.110,LB,BI-1245.110-JPN_SITE01-0013,13,PLAT,Platelets,HEMATOLOGY,323.81,10^9/L,150,400,323.81,323.81,10^9/L,150,400,NORMAL,,Y,Y,,2.0,BASELINE,TREATMENT,1,MILESTONE 1
BI-1245.110,LB,BI-1245.110-JPN_SITE01-0013,14,WBC,Leukocytes,HEMATOLOGY,8.25,10^9/L,4.0,11.0,8.25,8.25,10^9/L,4.0,11.0,NORMAL,,Y,Y,,2.0,BASELINE,TREATMENT,1,MILESTONE 1
BI-1245.110,LB,BI-1245.110-JPN_SITE01-0013,15,ALT,Alanine Aminotransferase,CHEMISTRY,17.59,U/L,7,56,17.59,17.59,U/L,7,56,NORMAL,,,,,5.0,MONTH 6,TREATMENT,189,MILESTONE 1
BI-1245.110,LB,BI-1245.110-JPN_SITE01-0013,16,AST,Aspartate Aminotransferase,CHEMISTRY,13.53,U/L,10,40,13.53,13.53,U/L,10,40,NORMAL,,,,,5.0,MONTH 6,TREATMENT,189,MILESTONE 1
BI-1245.110,LB,BI-1245.110-JPN_SITE01-0013,17,CREAT,Creatinine,CHEMISTRY,44.83,umol/L,44,80,44.83,44.83,umol/L,44,80,NORMAL,,,,,5.0,MONTH 6,TREATMENT,189,MILESTONE 1
BI-1245.110,LB,BI-1245.110-JPN_SITE01-0013,18,GLUC,Glucose,CHEMISTRY,6.0,mmol/L,3.9,5.6,6.0,6.0,mmol/L,3.9,5.6,HIGH,,,,1,5.0,MONTH 6,TREATMENT,189,MILESTONE 1
BI-1245.110,LB,BI-1245.110-JPN_SITE01-0013,19,HGB,Hemoglobin,HEMATOLOGY,121.16,g/L,120,155,121.16,121.16,g/L,120,155,NORMAL,,,,,5.0,MONTH 6,TREATMENT,189,MILESTONE 1
BI-1245.110,LB,BI-1245.110-JPN_SITE01-0013,20,PLAT,Platelets,HEMATOLOGY,320.66,10^9/L,150,400,320.66,320.66,10^9/L,150,400,NORMAL,,,,,5.0,MONTH 6,TREATMENT,189,MILESTONE 1
BI-1245.110,LB,BI-1245.110-JPN_SITE01-0013,21,WBC,Leukocytes,HEMATOLOGY,7.64,10^9/L,4.0,11.0,7.64,7.64,10^9/L,4.0,11.0,NORMAL,,,,,5.0,MONTH 6,TREATMENT,189,MILESTONE 1
BI-1245.110,LB,BI-1245.110-JPN_SITE01-0013,22,ALT,Alanine Aminotransferase,CHEMISTRY,18.05,U/L,7,56,18.05,18.05,U/L,7,56,NORMAL,,,,,6.0,MONTH 12,TREATMENT,368,MILESTONE 1
BI-1245.110,LB,BI-1245.110-JPN_SITE01-0013,23,AST,Aspartate Aminotransferase,CHEMISTRY,11.54,U/L,10,40,11.54,11.54,U/L,10,40,NORMAL,,,,,6.0,MONTH 12,TREATMENT,368,MILESTONE 1
BI-1245.110,LB,BI-1245.110-JPN_SITE01-0013,24,CREAT,Creatinine,CHEMISTRY,43.74,umol/L,44,80,43.74,43.74,umol/L,44,80,LOW,,,,1,6.0,MONTH 12,TREATMENT,368,MILESTONE 1
BI-1245.110,LB,BI-1245.110-JPN_SITE01-0013,25,GLUC,Glucose,CHEMISTRY,5.89,mmol/L,3.9,5.6,5.89,5.89,mmol/L,3.9,5.6,HIGH,,,,1,6.0,MONTH 12,TREATMENT,368,MILESTONE 1
BI-1245.110,LB,BI-1245.110-JPN_SITE01-0013,26,HGB,Hemoglobin,HEMATOLOGY,121.71,g/L,120,155,121.71,121.71,g/L,120,155,NORMAL,,,,,6.0,MONTH 12,TREATMENT,368,MILESTONE 1
BI-1245.110,LB,BI-1245.110-JPN_SITE01-0013,27,PLAT,Platelets,HEMATOLOGY,301.61,10^9/L,150,400,301.61,301.61,10^9/L,150,400,NORMAL,,,,,6.0,MONTH 12,TREATMENT,368,MILESTONE 1
BI-1245.110,LB,BI-1245.110-JPN_SITE01-0013,28,WBC,Leukocytes,HEMATOLOGY,8.49,10^9/L,4.0,11.0,8.49,8.49,10^9/L,4.0,11.0,NORMAL,,,,,6.0,MONTH 12,TREATMENT,368,MILESTONE 1
BI-1245.110,LB,BI-1245.110-JPN_SITE02-0007,1,ALT,Alanine Aminotransferase,CHEMISTRY,21.52,U/L,7,56,21.52,21.52,U/L,7,56,NORMAL,,,,,1.0,SCREENING,SCREENING,-51,MILESTONE 1
BI-1245.110,LB,BI-1245.110-JPN_SITE02-0007,2,AST,Aspartate Aminotransferase,CHEMISTRY,16.26,U/L,10,40,16.26,16.26,U/L,10,40,NORMAL,,,,,1.0,SCREENING,SCREENING,-51,MILESTONE 1
BI-1245.110,LB,BI-1245.110-JPN_SITE02-0007,3,CREAT,Creatinine,CHEMISTRY,81.02,umol/L,62,106,81.02,81.02,umol/L,62,106,NORMAL,,,,,1.0,SCREENING,SCREENING,-51,MILESTONE 1
BI-1245.110,LB,BI-1245.110-JPN_SITE02-0007,4,GLUC,Glucose,CHEMISTRY,5.9,mmol/L,3.9,5.6,5.9,5.9,mmol/L,3.9,5.6,HIGH,,,,1,1.0,SCREENING,SCREENING,-51,MILESTONE 1
BI-1245.110,LB,BI-1245.110-JPN_SITE02-0007,5,HGB,Hemoglobin,HEMATOLOGY,,,,,,,,,,,NOT DONE,,,,1.0,SCREENING,SCREENING,-51,MILESTONE 1
BI-1245.110,LB,BI-1245.110-JPN_SITE02-0007,6,PLAT,Platelets,HEMATOLOGY,202.05,10^9/L,150,400,202.05,202.05,10^9/L,150,400,NORMAL,,,,,1.0,SCREENING,SCREENING,-51,MILESTONE 1
BI-1245.110,LB,BI-1245.110-JPN_SITE02-0007,7,WBC,Leukocytes,HEMATOLOGY,9.01,10^9/L,4.0,11.0,9.01,9.01,10^9/L,4.0,11.0,NORMAL,,,,,1.0,SCREENING,SCREENING,-51,MILESTONE 1
BI-1245.110,LB,BI-1245.110-JPN_SITE02-0007,8,ALT,Alanine Aminotransferase,CHEMISTRY,20.37,U/L,7,56,20.37,20.37,U/L,7,56,NORMAL,,Y,Y,,2.0,BASELINE,TREATMENT,1,MILESTONE 1
BI-1245.110,LB,BI-1245.110-JPN_SITE02-0007,9,AST,Aspartate Aminotransferase,CHEMISTRY,17.54,U/L,10,40,17.54,17.54,U/L,10,40,NORMAL,,Y,Y,,2.0,BASELINE,TREATMENT,1,MILESTONE 1
BI-1245.110,LB,BI-1245.110-JPN_SITE02-0007,10,CREAT,Creatinine,CHEMISTRY,77.17,umol/L,62,106,77.17,77.17,umol/L,62,106,NORMAL,,Y,Y,,2.0,BASELINE,TREATMENT,1,MILESTONE 1
BI-1245.110,LB,BI-1245.110-JPN_SITE02-0007,11,GLUC,Glucose,CHEMISTRY,5.86,mmol/L,3.9,5.6,5.86,5.86,mmol/L,3.9,5.6,HIGH,,Y,Y,1,2.0,BASELINE,TREATMENT,1,MILESTONE 1
BI-1245.110,LB,BI-1245.110-JPN_SITE02-0007,12,HGB,Hemoglobin,HEMATOLOGY,131.44,g/L,130,175,131.44,131.44,g/L,130,175,NORMAL,,Y,Y,,2.0,BASELINE,TREATMENT,1,MILESTONE 1
BI-1245.110,LB,BI-1245.110-JPN_SITE02-0007,13,PLAT,Platelets,HEMATOLOGY,199.17,10^9/L,150,400,199.17,199.17,10^9/L,150,400,NORMAL,,Y,Y,,2.0,BASELINE,TREATMENT,1,MILESTONE 1
BI-1245.110,LB,BI-1245.110-JPN_SITE02-0007,14,WBC,Leukocytes,HEMATOLOGY,7.87,10^9/L,4.0,11.0,7.87,7.87,10^9/L,4.0,11.0,NORMAL,,Y,Y,,2.0,BASELINE,TREATMENT,1,MILESTONE 1
BI-1245.110,LB,BI-1245.110-JPN_SITE02-0007,15,ALT,Alanine Aminotransferase,CHEMISTRY,19.36,U/L,7,56,19.36,19.36,U/L,7,56,NORMAL,,,,,3.0,WEEK 4,TREATMENT,24,MILESTONE 1
BI-1245.110,LB,BI-1245.110-JPN_SITE02-0007,16,AST,Aspartate Aminotransferase,CHEMISTRY,17.38,U/L,10,40,17.38,17.38,U/L,10,40,NORMAL,,,,,3.0,WEEK 4,TREATMENT,24,MILESTONE 1
BI-1245.110,LB,BI-1245.110-JPN_SITE02-0007,17,CREAT,Creatinine,CHEMISTRY,78.65,umol/L,62,106,78.65,78.65,umol/L,62,106,NORMAL,,,,,3.0,WEEK 4,TREATMENT,24,MILESTONE 1
BI-1245.110,LB,BI-1245.110-JPN_SITE02-0007,18,GLUC,Glucose,CHEMISTRY,5.98,mmol/L,3.9,5.6,5.98,5.98,mmol/L,3.9,5.6,HIGH,,,,1,3.0,WEEK 4,TREATMENT,24,MILESTONE 1
BI-1245.110,LB,BI-1245.110-JPN_SITE02-0007,19,HGB,Hemoglobin,HEMATOLOGY,131.6,g/L,130,175,131.6,131.6,g/L,130,175,NORMAL,,,,,3.0,WEEK 4,TREATMENT,24,MILESTONE 1
BI-1245.110,LB,BI-1245.110-JPN_SITE02-0007,20,PLAT,Platelets,HEMATOLOGY,182.64,10^9/L,150,400,182.64,182.64,10^9/L,150,400,NORMAL,,,,,3.0,WEEK 4,TREATMENT,24,MILESTONE 1
BI-1245.110,LB,BI-1245.110-JPN_SITE02-0007,21,WBC,Leukocytes,HEMATOLOGY,,,,,,,,,,,NOT DONE,,,,3.0,WEEK 4,TREATMENT,24,MILESTONE 1
BI-1245.110,LB,BI-1245.110-JPN_SITE02-0007,22,ALT,Alanine Aminotransferase,CHEMISTRY,18.01,U/L,7,56,18.01,18.01,U/L,7,56,NORMAL,,,,,4.0,WEEK 12,TREATMENT,85,MILESTONE 1
BI-1245.110,LB,BI-1245.110-JPN_SITE02-0007,23,AST,Aspartate Aminotransferase,CHEMISTRY,18.0,U/L,10,40,18.0,18.0,U/L,10,40,NORMAL,,,,,4.0,WEEK 12,TREATMENT,85,MILESTONE 1
BI-1245.110,LB,BI-1245.110-JPN_SITE02-0007,24,CREAT,Creatinine,CHEMISTRY,80.12,umol/L,62,106,80.12,80.12,umol/L,62,106,NORMAL,,,,,4.0,WEEK 12,TREATMENT,85,MILESTONE 1
BI-1245.110,LB,BI-1245.110-JPN_SITE02-0007,25,GLUC,Glucose,CHEMISTRY,6.16,mmol/L,3.9,5.6,6.16,6.16,mmol/L,3.9,5.6,HIGH,,,,1,4.0,WEEK 12,TREATMENT,85,MILESTONE 1
BI-1245.110,LB,BI-1245.110-JPN_SITE02-0007,26,HGB,Hemoglobin,HEMATOLOGY,133.38,g/L,130,175,133.38,133.38,g/L,130,175,NORMAL,,,,,4.0,WEEK 12,TREATMENT,85,MILESTONE 1
BI-1245.110,LB,BI-1245.110-JPN_SITE02-0007,27,PLAT,Platelets,HEMATOLOGY,196.07,10^9/L,150,400,196.07,196.07,10^9/L,150,400,NORMAL,,,,,4.0,WEEK 12,TREATMENT,85,MILESTONE 1
BI-1245.110,LB,BI-1245.110-JPN_SITE02-0007,28,WBC,Leukocytes,HEMATOLOGY,8.41,10^9/L,4.0,11.0,8.41,8.41,10^9/L,4.0,11.0,NORMAL,,,,,4.0,WEEK 12,TREATMENT,85,MILESTONE 1
BI-1245.110,LB,BI-1245.110-JPN_SITE02-0007,29,ALT,Alanine Aminotransferase,CHEMISTRY,18.8,U/L,7,56,18.8,18.8,U/L,7,56,NORMAL,,,,,5.0,MONTH 6,TREATMENT,193,MILESTONE 1
BI-1245.110,LB,BI-1245.110-JPN_SITE02-0007,30,AST,Aspartate Aminotransferase,CHEMISTRY,19.04,U/L,10,40,19.04,19.04,U/L,10,40,NORMAL,,,,,5.0,MONTH 6,TREATMENT,193,MILESTONE 1
BI-1245.110,LB,BI-1245.110-JPN_SITE02-0007,31,CREAT,Creatinine,CHEMISTRY,78.09,umol/L,62,106,78.09,78.09,umol/L,62,106,NORMAL,,,,,5.0,MONTH 6,TREATMENT,193,MILESTONE 1
BI-1245.110,LB,BI-1245.110-JPN_SITE02-0007,32,GLUC,Glucose,CHEMISTRY,6.17,mmol/L,3.9,5.6,6.17,6.17,mmol/L,3.9,5.6,HIGH,,,,1,5.0,MONTH 6,TREATMENT,193,MILESTONE 1
BI-1245.110,LB,BI-1245.110-JPN_SITE02-0007,33,HGB,Hemoglobin,HEMATOLOGY,132.47,g/L,130,175,132.47,132.47,g/L,130,175,NORMAL,,,,,5.0,MONTH 6,TREATMENT,193,MILESTONE 1
BI-1245.110,LB,BI-1245.110-JPN_SITE02-0007,34,PLAT,Platelets,HEMATOLOGY,187.98,10^9/L,150,400,187.98,187.98,10^9/L,150,400,NORMAL,,,,,5.0,MONTH 6,TREATMENT,193,MILESTONE 1
BI-1245.110,LB,BI-1245.110-JPN_SITE02-0007,35,WBC,Leukocytes,HEMATOLOGY,8.14,10^9/L,4.0,11.0,8.14,8.14,10^9/L,4.0,11.0,NORMAL,,,,,5.0,MONTH 6,TREATMENT,193,MILESTONE 1
BI-1245.110,LB,BI-1245.110-JPN_SITE02-0007,36,ALT,Alanine Aminotransferase,CHEMISTRY,18.97,U/L,7,56,18.97,18.97,U/L,7,56,NORMAL,,,,,6.0,MONTH 12,TREATMENT,369,MILESTONE 1
BI-1245.110,LB,BI-1245.110-JPN_SITE02-0007,37,AST,Aspartate Aminotransferase,CHEMISTRY,19.29,U/L,10,40,19.29,19.29,U/L,10,40,NORMAL,,,,,6.0,MONTH 12,TREATMENT,369,MILESTONE 1
BI-1245.110,LB,BI-1245.110-JPN_SITE02-0007,38,CREAT,Creatinine,CHEMISTRY,80.98,umol/L,62,106,80.98,80.98,umol/L,62,106,NORMAL,,,,,6.0,MONTH 12,TREATMENT,369,MILESTONE 1
BI-1245.110,LB,BI-1245.110-JPN_SITE02-0007,39,GLUC,Glucose,CHEMISTRY,6.29,mmol/L,3.9,5.6,6.29,6.29,mmol/L,3.9,5.6,HIGH,,,,1,6.0,MONTH 12,TREATMENT,369,MILESTONE 1
BI-1245.110,LB,BI-1245.110-JPN_SITE02-0007,40,HGB,Hemoglobin,HEMATOLOGY,133.46,g/L,130,175,133.46,133.46,g/L,130,175,NORMAL,,,,,6.0,MONTH 12,TREATMENT,369,MILESTONE 1
BI-1245.110,LB,BI-1245.110-JPN_SITE02-0007,41,PLAT,Platelets,HEMATOLOGY,195.92,10^9/L,150,400,195.92,195.92,10^9/L,150,400,NORMAL,,,,,6.0,MONTH 12,TREATMENT,369,MILESTONE 1
BI-1245.110,LB,BI-1245.110-JPN_SITE02-0007,42,WBC,Leukocytes,HEMATOLOGY,10.81,10^9/L,4.0,11.0,10.81,10.81,10^9/L,4.0,11.0,NORMAL,,,,,6.0,MONTH 12,TREATMENT,369,MILESTONE 1
BI-1245.110,LB,BI-1245.110-JPN_SITE02-0007,43,ALT,Alanine Aminotransferase,CHEMISTRY,20.31,U/L,7,56,20.31,20.31,U/L,7,56,NORMAL,,,,,7.0,MONTH 18,TREATMENT,537,MILESTONE 1
BI-1245.110,LB,BI-1245.110-JPN_SITE02-0007,44,AST,Aspartate Aminotransferase,CHEMISTRY,18.42,U/L,10,40,18.42,18.42,U/L,10,40,NORMAL,,,,,7.0,MONTH 18,TREATMENT,537,MILESTONE 1
BI-1245.110,LB,BI-1245.110-JPN_SITE02-0007,45,CREAT,Creatinine,CHEMISTRY,82.11,umol/L,62,106,82.11,82.11,umol/L,62,106,NORMAL,,,,,7.0,MONTH 18,TREATMENT,537,MILESTONE 1
BI-1245.110,LB,BI-1245.110-JPN_SITE02-0007,46,GLUC,Glucose,CHEMISTRY,6.27,mmol/L,3.9,5.6,6.27,6.27,mmol/L,3.9,5.6,HIGH,,,,1,7.0,MONTH 18,TREATMENT,537,MILESTONE 1
BI-1245.110,LB,BI-1245.110-JPN_SITE02-0007,47,HGB,Hemoglobin,HEMATOLOGY,135.43,g/L,130,175,135.43,135.43,g/L,130,175,NORMAL,,,,,7.0,MONTH 18,TREATMENT,537,MILESTONE 1
BI-1245.110,LB,BI-1245.110-JPN_SITE02-0007,48,PLAT,Platelets,HEMATOLOGY,193.6,10^9/L,150,400,193.6,193.6,10^9/L,150,400,NORMAL,,,,,7.0,MONTH 18,TREATMENT,537,MILESTONE 1
BI-1245.110,LB,BI-1245.110-JPN_SITE02-0007,49,WBC,Leukocytes,HEMATOLOGY,7.62,10^9/L,4.0,11.0,7.62,7.62,10^9/L,4.0,11.0,NORMAL,,,,,7.0,MONTH 18,TREATMENT,537,MILESTONE 1
BI-1245.110,LB,BI-1245.110-JPN_SITE02-0007,50,ALT,Alanine Aminotransferase,CHEMISTRY,19.66,U/L,7,56,19.66,19.66,U/L,7,56,NORMAL,,,,,8.0,MONTH 24,TREATMENT,743,MILESTONE 1
BI-1245.110,LB,BI-1245.110-JPN_SITE02-0007,51,AST,Aspartate Aminotransferase,CHEMISTRY,18.79,U/L,10,40,18.79,18.79,U/L,10,40,NORMAL,,,,,8.0,MONTH 24,TREATMENT,743,MILESTONE 1
BI-1245.110,LB,BI-1245.110-JPN_SITE02-0007,52,CREAT,Creatinine,CHEMISTRY,85.66,umol/L,62,106,85.66,85.66,umol/L,62,106,NORMAL,,,,,8.0,MONTH 24,TREATMENT,743,MILESTONE 1
BI-1245.110,LB,BI-1245.110-JPN_SITE02-0007,53,GLUC,Glucose,CHEMISTRY,6.29,mmol/L,3.9,5.6,6.29,6.29,mmol/L,3.9,5.6,HIGH,,,,1,8.0,MONTH 24,TREATMENT,743,MILESTONE 1
BI-1245.110,LB,BI-1245.110-JPN_SITE02-0007,54,HGB,Hemoglobin,HEMATOLOGY,135.01,g/L,130,175,135.01,135.01,g/L,130,175,NORMAL,,,,,8.0,MONTH 24,TREATMENT,743,MILESTONE 1
BI-1245.110,LB,BI-1245.110-JPN_SITE02-0007,55,PLAT,Platelets,HEMATOLOGY,205.65,10^9/L,150,400,205.65,205.65,10^9/L,150,400,NORMAL,,,,,8.0,MONTH 24,TREATMENT,743,MILESTONE 1
BI-1245.110,LB,BI-1245.110-JPN_SITE02-0007,56,WBC,Leukocytes,HEMATOLOGY,8.17,10^9/L,4.0,11.0,8.17,8.17,10^9/L,4.0,11.0,NORMAL,,,,,8.0,MONTH 24,TREATMENT,743,MILESTONE 1
BI-1245.110,LB,BI-1245.110-JPN_SITE02-0007,57,ALT,Alanine Aminotransferase,CHEMISTRY,20.96,U/L,7,56,20.96,20.96,U/L,7,56,NORMAL,,,,,9.0,EOT,TREATMENT,799,MILESTONE 1
BI-1245.110,LB,BI-1245.110-JPN_SITE02-0007,58,AST,Aspartate Aminotransferase,CHEMISTRY,18.46,U/L,10,40,18.46,18.46,U/L,10,40,NORMAL,,,,,9.0,EOT,TREATMENT,799,MILESTONE 1
BI-1245.110,LB,BI-1245.110-JPN_SITE02-0007,59,CREAT,Creatinine,CHEMISTRY,81.35,umol/L,62,106,81.35,81.35,umol/L,62,106,NORMAL,,,,,9.0,EOT,TREATMENT,799,MILESTONE 1
BI-1245.110,LB,BI-1245.110-JPN_SITE02-0007,60,GLUC,Glucose,CHEMISTRY,,,,,,,,,,,NOT DONE,,,,9.0,EOT,TREATMENT,799,MILESTONE 1
BI-1245.110,LB,BI-1245.110-JPN_SITE02-0007,61,HGB,Hemoglobin,HEMATOLOGY,136.42,g/L,130,175,136.42,136.42,g/L,130,175,NORMAL,,,,,9.0,EOT,TREATMENT,799,MILESTONE 1
BI-1245.110,LB,BI-1245.110-JPN_SITE02-0007,62,PLAT,Platelets,HEMATOLOGY,207.99,10^9/L,150,400,207.99,207.99,10^9/L,150,400,NORMAL,,,,,9.0,EOT,TREATMENT,799,MILESTONE 1
BI-1245.110,LB,BI-1245.110-JPN_SITE02-0007,63,WBC,Leukocytes,HEMATOLOGY,8.09,10^9/L,4.0,11.0,8.09,8.09,10^9/L,4.0,11.0,NORMAL,,,,,9.0,EOT,TREATMENT,799,MILESTONE 1
BI-1245.110,LB,BI-1245.110-JPN_SITE02-0014,1,ALT,Alanine Aminotransferase,CHEMISTRY,44.3,U/L,7,56,44.3,44.3,U/L,7,56,NORMAL,,,,,1.0,SCREENING,SCREENING,-49,MILESTONE 1
BI-1245.110,LB,BI-1245.110-JPN_SITE02-0014,2,AST,Aspartate Aminotransferase,CHEMISTRY,16.87,U/L,10,40,16.87,16.87,U/L,10,40,NORMAL,,,,,1.0,SCREENING,SCREENING,-49,MILESTONE 1
BI-1245.110,LB,BI-1245.110-JPN_SITE02-0014,3,CREAT,Creatinine,CHEMISTRY,90.28,umol/L,62,106,90.28,90.28,umol/L,62,106,NORMAL,,,,,1.0,SCREENING,SCREENING,-49,MILESTONE 1
BI-1245.110,LB,BI-1245.110-JPN_SITE02-0014,4,GLUC,Glucose,CHEMISTRY,5.43,mmol/L,3.9,5.6,5.43,5.43,mmol/L,3.9,5.6,NORMAL,,,,,1.0,SCREENING,SCREENING,-49,MILESTONE 1
BI-1245.110,LB,BI-1245.110-JPN_SITE02-0014,5,HGB,Hemoglobin,HEMATOLOGY,139.91,g/L,130,175,139.91,139.91,g/L,130,175,NORMAL,,,,,1.0,SCREENING,SCREENING,-49,MILESTONE 1
BI-1245.110,LB,BI-1245.110-JPN_SITE02-0014,6,PLAT,Platelets,HEMATOLOGY,279.7,10^9/L,150,400,279.7,279.7,10^9/L,150,400,NORMAL,,,,,1.0,SCREENING,SCREENING,-49,MILESTONE 1
BI-1245.110,LB,BI-1245.110-JPN_SITE02-0014,7,WBC,Leukocytes,HEMATOLOGY,8.41,10^9/L,4.0,11.0,8.41,8.41,10^9/L,4.0,11.0,NORMAL,,,,,1.0,SCREENING,SCREENING,-49,MILESTONE 1
BI-1245.110,LB,BI-1245.110-JPN_SITE02-0014,8,ALT,Alanine Aminotransferase,CHEMISTRY,44.92,U/L,7,56,44.92,44.92,U/L,7,56,NORMAL,,Y,Y,,2.0,BASELINE,TREATMENT,1,MILESTONE 1
BI-1245.110,LB,BI-1245.110-JPN_SITE02-0014,9,AST,Aspartate Aminotransferase,CHEMISTRY,14.89,U/L,10,40,14.89,14.89,U/L,10,40,NORMAL,,Y,Y,,2.0,BASELINE,TREATMENT,1,MILESTONE 1
BI-1245.110,LB,BI-1245.110-JPN_SITE02-0014,10,CREAT,Creatinine,CHEMISTRY,88.9,umol/L,62,106,88.9,88.9,umol/L,62,106,NORMAL,,Y,Y,,2.0,BASELINE,TREATMENT,1,MILESTONE 1
BI-1245.110,LB,BI-1245.110-JPN_SITE02-0014,11,GLUC,Glucose,CHEMISTRY,5.63,mmol/L,3.9,5.6,5.63,5.63,mmol/L,3.9,5.6,HIGH,,Y,Y,1,2.0,BASELINE,TREATMENT,1,MILESTONE 1
BI-1245.110,LB,BI-1245.110-JPN_SITE02-0014,12,HGB,Hemoglobin,HEMATOLOGY,137.62,g/L,130,175,137.62,137.62,g/L,130,175,NORMAL,,Y,Y,,2.0,BASELINE,TREATMENT,1,MILESTONE 1
BI-1245.110,LB,BI-1245.110-JPN_SITE02-0014,13,PLAT,Platelets,HEMATOLOGY,281.91,10^9/L,150,400,281.91,281.91,10^9/L,150,400,NORMAL,,Y,Y,,2.0,BASELINE,TREATMENT,1,MILESTONE 1
BI-1245.110,LB,BI-1245.110-JPN_SITE02-0014,14,WBC,Leukocytes,HEMATOLOGY,8.33,10^9/L,4.0,11.0,8.33,8.33,10^9/L,4.0,11.0,NORMAL,,Y,Y,,2.0,BASELINE,TREATMENT,1,MILESTONE 1
BI-1245.110,LB,BI-1245.110-JPN_SITE02-0014,15,ALT,Alanine Aminotransferase,CHEMISTRY,45.19,U/L,7,56,45.19,45.19,U/L,7,56,NORMAL,,,,,3.0,WEEK 4,TREATMENT,34,MILESTONE 1
BI-1245.110,LB,BI-1245.110-JPN_SITE02-0014,16,AST,Aspartate Aminotransferase,CHEMISTRY,15.92,U/L,10,40,15.92,15.92,U/L,10,40,NORMAL,,,,,3.0,WEEK 4,TREATMENT,34,MILESTONE 1
BI-1245.110,LB,BI-1245.110-JPN_SITE02-0014,17,CREAT,Creatinine,CHEMISTRY,89.38,umol/L,62,106,89.38,89.38,umol/L,62,106,NORMAL,,,,,3.0,WEEK 4,TREATMENT,34,MILESTONE 1
BI-1245.110,LB,BI-1245.110-JPN_SITE02-0014,18,GLUC,Glucose,CHEMISTRY,5.56,mmol/L,3.9,5.6,5.56,5.56,mmol/L,3.9,5.6,NORMAL,,,,,3.0,WEEK 4,TREATMENT,34,MILESTONE 1
BI-1245.110,LB,BI-1245.110-JPN_SITE02-0014,19,HGB,Hemoglobin,HEMATOLOGY,139.09,g/L,130,175,139.09,139.09,g/L,130,175,NORMAL,,,,,3.0,WEEK 4,TREATMENT,34,MILESTONE 1
BI-1245.110,LB,BI-1245.110-JPN_SITE02-0014,20,PLAT,Platelets,HEMATOLOGY,282.72,10^9/L,150,400,282.72,282.72,10^9/L,150,400,NORMAL,,,,,3.0,WEEK 4,TREATMENT,34,MILESTONE 1
BI-1245.110,LB,BI-1245.110-JPN_SITE02-0014,21,WBC,Leukocytes,HEMATOLOGY,8.63,10^9/L,4.0,11.0,8.63,8.63,10^9/L,4.0,11.0,NORMAL,,,,,3.0,WEEK 4,TREATMENT,34,MILESTONE 1
BI-1245.110,LB,BI-1245.110-JPN_SITE02-0014,22,ALT,Alanine Aminotransferase,CHEMISTRY,43.29,U/L,7,56,43.29,43.29,U/L,7,56,NORMAL,,,,,4.0,WEEK 12,TREATMENT,83,MILESTONE 1
BI-1245.110,LB,BI-1245.110-JPN_SITE02-0014,23,AST,Aspartate Aminotransferase,CHEMISTRY,17.03,U/L,10,40,17.03,17.03,U/L,10,40,NORMAL,,,,,4.0,WEEK 12,TREATMENT,83,MILESTONE 1
BI-1245.110,LB,BI-1245.110-JPN_SITE02-0014,24,CREAT,Creatinine,CHEMISTRY,86.65,umol/L,62,106,86.65,86.65,umol/L,62,106,NORMAL,,,,,4.0,WEEK 12,TREATMENT,83,MILESTONE 1
BI-1245.110,LB,BI-1245.110-JPN_SITE02-0014,25,GLUC,Glucose,CHEMISTRY,5.47,mmol/L,3.9,5.6,5.47,5.47,mmol/L,3.9,5.6,NORMAL,,,,,4.0,WEEK 12,TREATMENT,83,MILESTONE 1
BI-1245.110,LB,BI-1245.110-JPN_SITE02-0014,26,HGB,Hemoglobin,HEMATOLOGY,138.27,g/L,130,175,138.27,138.27,g/L,130,175,NORMAL,,,,,4.0,WEEK 12,TREATMENT,83,MILESTONE 1
BI-1245.110,LB,BI-1245.110-JPN_SITE02-0014,27,PLAT,Platelets,HEMATOLOGY,282.02,10^9/L,150,400,282.02,282.02,10^9/L,150,400,NORMAL,,,,,4.0,WEEK 12,TREATMENT,83,MILESTONE 1
BI-1245.110,LB,BI-1245.110-JPN_SITE02-0014,28,WBC,Leukocytes,HEMATOLOGY,8.1,10^9/L,4.0,11.0,8.1,8.1,10^9/L,4.0,11.0,NORMAL,,,,,4.0,WEEK 12,TREATMENT,83,MILESTONE 1
BI-1245.110,LB,BI-1245.110-JPN_SITE02-0014,29,ALT,Alanine Aminotransferase,CHEMISTRY,42.32,U/L,7,56,42.32,42.32,U/L,7,56,NORMAL,,,,,5.0,MONTH 6,TREATMENT,182,MILESTONE 1
BI-1245.110,LB,BI-1245.110-JPN_SITE02-0014,30,AST,Aspartate Aminotransferase,CHEMISTRY,17.38,U/L,10,40,17.38,17.38,U/L,10,40,NORMAL,,,,,5.0,MONTH 6,TREATMENT,182,MILESTONE 1
BI-1245.110,LB,BI-1245.110-JPN_SITE02-0014,31,CREAT,Creatinine,CHEMISTRY,91.06,umol/L,62,106,91.06,91.06,umol/L,62,106,NORMAL,,,,,5.0,MONTH 6,TREATMENT,182,MILESTONE 1
BI-1245.110,LB,BI-1245.110-JPN_SITE02-0014,32,GLUC,Glucose,CHEMISTRY,5.63,mmol/L,3.9,5.6,5.63,5.63,mmol/L,3.9,5.6,HIGH,,,,1,5.0,MONTH 6,TREATMENT,182,MILESTONE 1
BI-1245.110,LB,BI-1245.110-JPN_SITE02-0014,33,HGB,Hemoglobin,HEMATOLOGY,139.86,g/L,130,175,139.86,139.86,g/L,130,175,NORMAL,,,,,5.0,MONTH 6,TREATMENT,182,MILESTONE 1
BI-1245.110,LB,BI-1245.110-JPN_SITE02-0014,34,PLAT,Platelets,HEMATOLOGY,259.32,10^9/L,150,400,259.32,259.32,10^9/L,150,400,NORMAL,,,,,5.0,MONTH 6,TREATMENT,182,MILESTONE 1
BI-1245.110,LB,BI-1245.110-JPN_SITE02-0014,35,WBC,Leukocytes,HEMATOLOGY,8.05,10^9/L,4.0,11.0,8.05,8.05,10^9/L,4.0,11.0,NORMAL,,,,,5.0,MONTH 6,TREATMENT,182,MILESTONE 1
BI-1245.110,LB,BI-1245.110-JPN_SITE02-0014,36,ALT,Alanine Aminotransferase,CHEMISTRY,42.33,U/L,7,56,42.33,42.33,U/L,7,56,NORMAL,,,,,6.0,MONTH 12,TREATMENT,379,MILESTONE 1
BI-1245.110,LB,BI-1245.110-JPN_SITE02-0014,37,AST,Aspartate Aminotransferase,CHEMISTRY,18.35,U/L,10,40,18.35,18.35,U/L,10,40,NORMAL,,,,,6.0,MONTH 12,TREATMENT,379,MILESTONE 1
BI-1245.110,LB,BI-1245.110-JPN_SITE02-0014,38,CREAT,Creatinine,CHEMISTRY,89.94,umol/L,62,106,89.94,89.94,umol/L,62,106,NORMAL,,,,,6.0,MONTH 12,TREATMENT,379,MILESTONE 1
BI-1245.110,LB,BI-1245.110-JPN_SITE02-0014,39,GLUC,Glucose,CHEMISTRY,5.67,mmol/L,3.9,5.6,5.67,5.67,mmol/L,3.9,5.6,HIGH,,,,1,6.0,MONTH 12,TREATMENT,379,MILESTONE 1
BI-1245.110,LB,BI-1245.110-JPN_SITE02-0014,40,HGB,Hemoglobin,HEMATOLOGY,139.77,g/L,130,175,139.77,139.77,g/L,130,175,NORMAL,,,,,6.0,MONTH 12,TREATMENT,379,MILESTONE 1
BI-1245.110,LB,BI-1245.110-JPN_SITE02-0014,41,PLAT,Platelets,HEMATOLOGY,276.79,10^9/L,150,400,276.79,276.79,10^9/L,150,400,NORMAL,,,,,6.0,MONTH 12,TREATMENT,379,MILESTONE 1
BI-1245.110,LB,BI-1245.110-JPN_SITE02-0014,42,WBC,Leukocytes,HEMATOLOGY,12.59,10^9/L,4.0,11.0,12.59,12.59,10^9/L,4.0,11.0,HIGH,,,,1,6.0,MONTH 12,TREATMENT,379,MILESTONE 1
BI-1245.110,LB,BI-1245.110-JPN_SITE02-0014,43,ALT,Alanine Aminotransferase,CHEMISTRY,41.21,U/L,7,56,41.21,41.21,U/L,7,56,NORMAL,,,,,7.0,MONTH 18,TREATMENT,546,MILESTONE 1
BI-1245.110,LB,BI-1245.110-JPN_SITE02-0014,44,AST,Aspartate Aminotransferase,CHEMISTRY,19.2,U/L,10,40,19.2,19.2,U/L,10,40,NORMAL,,,,,7.0,MONTH 18,TREATMENT,546,MILESTONE 1
BI-1245.110,LB,BI-1245.110-JPN_SITE02-0014,45,CREAT,Creatinine,CHEMISTRY,139.81,umol/L,62,106,139.81,139.81,umol/L,62,106,HIGH,,,,1,7.0,MONTH 18,TREATMENT,546,MILESTONE 1
BI-1245.110,LB,BI-1245.110-JPN_SITE02-0014,46,GLUC,Glucose,CHEMISTRY,5.45,mmol/L,3.9,5.6,5.45,5.45,mmol/L,3.9,5.6,NORMAL,,,,,7.0,MONTH 18,TREATMENT,546,MILESTONE 1
BI-1245.110,LB,BI-1245.110-JPN_SITE02-0014,47,HGB,Hemoglobin,HEMATOLOGY,140.58,g/L,130,175,140.58,140.58,g/L,130,175,NORMAL,,,,,7.0,MONTH 18,TREATMENT,546,MILESTONE 1
BI-1245.110,LB,BI-1245.110-JPN_SITE02-0014,48,PLAT,Platelets,HEMATOLOGY,302.95,10^9/L,150,400,302.95,302.95,10^9/L,150,400,NORMAL,,,,,7.0,MONTH 18,TREATMENT,546,MILESTONE 1
BI-1245.110,LB,BI-1245.110-JPN_SITE02-0014,49,WBC,Leukocytes,HEMATOLOGY,7.88,10^9/L,4.0,11.0,7.88,7.88,10^9/L,4.0,11.0,NORMAL,,,,,7.0,MONTH 18,TREATMENT,546,MILESTONE 1
BI-1245.110,LB,BI-1245.110-JPN_SITE02-0014,50,ALT,Alanine Aminotransferase,CHEMISTRY,44.83,U/L,7,56,44.83,44.83,U/L,7,56,NORMAL,,,,,8.0,MONTH 24,TREATMENT,730,MILESTONE 1
BI-1245.110,LB,BI-1245.110-JPN_SITE02-0014,51,AST,Aspartate Aminotransferase,CHEMISTRY,16.9,U/L,10,40,16.9,16.9,U/L,10,40,NORMAL,,,,,8.0,MONTH 24,TREATMENT,730,MILESTONE 1
BI-1245.110,LB,BI-1245.110-JPN_SITE02-0014,52,CREAT,Creatinine,CHEMISTRY,94.03,umol/L,62,106,94.03,94.03,umol/L,62,106,NORMAL,,,,,8.0,MONTH 24,TREATMENT,730,MILESTONE 1
BI-1245.110,LB,BI-1245.110-JPN_SITE02-0014,53,GLUC,Glucose,CHEMISTRY,5.5,mmol/L,3.9,5.6,5.5,5.5,mmol/L,3.9,5.6,NORMAL,,,,,8.0,MONTH 24,TREATMENT,730,MILESTONE 1
BI-1245.110,LB,BI-1245.110-JPN_SITE02-0014,54,HGB,Hemoglobin,HEMATOLOGY,140.9,g/L,130,175,140.9,140.9,g/L,130,175,NORMAL,,,,,8.0,MONTH 24,TREATMENT,730,MILESTONE 1
BI-1245.110,LB,BI-1245.110-JPN_SITE02-0014,55,PLAT,Platelets,HEMATOLOGY,303.35,10^9/L,150,400,303.35,303.35,10^9/L,150,400,NORMAL,,,,,8.0,MONTH 24,TREATMENT,730,MILESTONE 1
BI-1245.110,LB,BI-1245.110-JPN_SITE02-0014,56,WBC,Leukocytes,HEMATOLOGY,,,,,,,,,,,NOT DONE,,,,8.0,MONTH 24,TREATMENT,730,MILESTONE 1
BI-1245.110,LB,BI-1245.110-JPN_SITE02-0014,57,ALT,Alanine Aminotransferase,CHEMISTRY,44.31,U/L,7,56,44.31,44.31,U/L,7,56,NORMAL,,,,,9.0,EOT,TREATMENT,802,MILESTONE 1
BI-1245.110,LB,BI-1245.110-JPN_SITE02-0014,58,AST,Aspartate Aminotransferase,CHEMISTRY,16.81,U/L,10,40,16.81,16.81,U/L,10,40,NORMAL,,,,,9.0,EOT,TREATMENT,802,MILESTONE 1
BI-1245.110,LB,BI-1245.110-JPN_SITE02-0014,59,CREAT,Creatinine,CHEMISTRY,89.87,umol/L,62,106,89.87,89.87,umol/L,62,106,NORMAL,,,,,9.0,EOT,TREATMENT,802,MILESTONE 1
BI-1245.110,LB,BI-1245.110-JPN_SITE02-0014,60,GLUC,Glucose,CHEMISTRY,5.61,mmol/L,3.9,5.6,5.61,5.61,mmol/L,3.9,5.6,HIGH,,,,1,9.0,EOT,TREATMENT,802,MILESTONE 1
BI-1245.110,LB,BI-1245.110-JPN_SITE02-0014,61,HGB,Hemoglobin,HEMATOLOGY,142.47,g/L,130,175,142.47,142.47,g/L,130,175,NORMAL,,,,,9.0,EOT,TREATMENT,802,MILESTONE 1
BI-1245.110,LB,BI-1245.110-JPN_SITE02-0014,62,PLAT,Platelets,HEMATOLOGY,285.16,10^9/L,150,400,285.16,285.16,10^9/L,150,400,NORMAL,,,,,9.0,EOT,TREATMENT,802,MILESTONE 1
BI-1245.110,LB,BI-1245.110-JPN_SITE02-0014,63,WBC,Leukocytes,HEMATOLOGY,7.99,10^9/L,4.0,11.0,7.99,7.99,10^9/L,4.0,11.0,NORMAL,,,,,9.0,EOT,TREATMENT,802,MILESTONE 1
BI-1245.110,LB,BI-1245.110-JPN_SITE02-0014,64,ALT,Alanine Aminotransferase,CHEMISTRY,46.3,U/L,7,56,46.3,46.3,U/L,7,56,NORMAL,,,,,10.0,SAFETY FU,FOLLOW-UP,838,MILESTONE 1
BI-1245.110,LB,BI-1245.110-JPN_SITE02-0014,65,AST,Aspartate Aminotransferase,CHEMISTRY,19.5,U/L,10,40,19.5,19.5,U/L,10,40,NORMAL,,,,,10.0,SAFETY FU,FOLLOW-UP,838,MILESTONE 1
BI-1245.110,LB,BI-1245.110-JPN_SITE02-0014,66,CREAT,Creatinine,CHEMISTRY,95.23,umol/L,62,106,95.23,95.23,umol/L,62,106,NORMAL,,,,,10.0,SAFETY FU,FOLLOW-UP,838,MILESTONE 1
BI-1245.110,LB,BI-1245.110-JPN_SITE02-0014,67,GLUC,Glucose,CHEMISTRY,5.63,mmol/L,3.9,5.6,5.63,5.63,mmol/L,3.9,5.6,HIGH,,,,1,10.0,SAFETY FU,FOLLOW-UP,838,MILESTONE 1
BI-1245.110,LB,BI-1245.110-JPN_SITE02-0014,68,HGB,Hemoglobin,HEMATOLOGY,139.68,g/L,130,175,139.68,139.68,g/L,130,175,NORMAL,,,,,10.0,SAFETY FU,FOLLOW-UP,838,MILESTONE 1
BI-1245.110,LB,BI-1245.110-JPN_SITE02-0014,69,PLAT,Platelets,HEMATOLOGY,285.03,10^9/L,150,400,285.03,285.03,10^9/L,150,400,NORMAL,,,,,10.0,SAFETY FU,FOLLOW-UP,838,MILESTONE 1
BI-1245.110,LB,BI-1245.110-JPN_SITE02-0014,70,WBC,Leukocytes,HEMATOLOGY,,,,,,,,,,,NOT DONE,,,,10.0,SAFETY FU,FOLLOW-UP,838,MILESTONE 1
BI-1245.110,LB,BI-1245.110-KOR_SITE01-0012,1,ALT,Alanine Aminotransferase,CHEMISTRY,19.06,U/L,7,56,19.06,19.06,U/L,7,56,NORMAL,,,,,1.0,SCREENING,SCREENING,-35,MILESTONE 1
BI-1245.110,LB,BI-1245.110-KOR_SITE01-0012,2,AST,Aspartate Aminotransferase,CHEMISTRY,14.65,U/L,10,40,14.65,14.65,U/L,10,40,NORMAL,,,,,1.0,SCREENING,SCREENING,-35,MILESTONE 1
BI-1245.110,LB,BI-1245.110-KOR_SITE01-0012,3,CREAT,Creatinine,CHEMISTRY,78.1,umol/L,62,106,78.1,78.1,umol/L,62,106,NORMAL,,,,,1.0,SCREENING,SCREENING,-35,MILESTONE 1
BI-1245.110,LB,BI-1245.110-KOR_SITE01-0012,4,GLUC,Glucose,CHEMISTRY,6.0,mmol/L,3.9,5.6,6.0,6.0,mmol/L,3.9,5.6,HIGH,,,,1,1.0,SCREENING,SCREENING,-35,MILESTONE 1
BI-1245.110,LB,BI-1245.110-KOR_SITE01-0012,5,HGB,Hemoglobin,HEMATOLOGY,141.61,g/L,130,175,141.61,141.61,g/L,130,175,NORMAL,,,,,1.0,SCREENING,SCREENING,-35,MILESTONE 1
BI-1245.110,LB,BI-1245.110-KOR_SITE01-0012,6,PLAT,Platelets,HEMATOLOGY,304.46,10^9/L,150,400,304.46,304.46,10^9/L,150,400,NORMAL,,,,,1.0,SCREENING,SCREENING,-35,MILESTONE 1
BI-1245.110,LB,BI-1245.110-KOR_SITE01-0012,7,WBC,Leukocytes,HEMATOLOGY,7.46,10^9/L,4.0,11.0,7.46,7.46,10^9/L,4.0,11.0,NORMAL,,,,,1.0,SCREENING,SCREENING,-35,MILESTONE 1
BI-1245.110,LB,BI-1245.110-KOR_SITE01-0012,8,ALT,Alanine Aminotransferase,CHEMISTRY,19.27,U/L,7,56,19.27,19.27,U/L,7,56,NORMAL,,Y,Y,,2.0,BASELINE,TREATMENT,1,MILESTONE 1
BI-1245.110,LB,BI-1245.110-KOR_SITE01-0012,9,AST,Aspartate Aminotransferase,CHEMISTRY,14.8,U/L,10,40,14.8,14.8,U/L,10,40,NORMAL,,Y,Y,,2.0,BASELINE,TREATMENT,1,MILESTONE 1
BI-1245.110,LB,BI-1245.110-KOR_SITE01-0012,10,CREAT,Creatinine,CHEMISTRY,76.42,umol/L,62,106,76.42,76.42,umol/L,62,106,NORMAL,,Y,Y,,2.0,BASELINE,TREATMENT,1,MILESTONE 1
BI-1245.110,LB,BI-1245.110-KOR_SITE01-0012,11,GLUC,Glucose,CHEMISTRY,6.08,mmol/L,3.9,5.6,6.08,6.08,mmol/L,3.9,5.6,HIGH,,Y,Y,1,2.0,BASELINE,TREATMENT,1,MILESTONE 1
BI-1245.110,LB,BI-1245.110-KOR_SITE01-0012,12,HGB,Hemoglobin,HEMATOLOGY,141.89,g/L,130,175,141.89,141.89,g/L,130,175,NORMAL,,Y,Y,,2.0,BASELINE,TREATMENT,1,MILESTONE 1
BI-1245.110,LB,BI-1245.110-KOR_SITE01-0012,13,PLAT,Platelets,HEMATOLOGY,307.44,10^9/L,150,400,307.44,307.44,10^9/L,150,400,NORMAL,,Y,Y,,2.0,BASELINE,TREATMENT,1,MILESTONE 1
BI-1245.110,LB,BI-1245.110-KOR_SITE01-0012,14,WBC,Leukocytes,HEMATOLOGY,6.83,10^9/L,4.0,11.0,6.83,6.83,10^9/L,4.0,11.0,NORMAL,,Y,Y,,2.0,BASELINE,TREATMENT,1,MILESTONE 1
BI-1245.110,LB,BI-1245.110-MEX_SITE01-0016,1,ALT,Alanine Aminotransferase,CHEMISTRY,25.4,U/L,7,56,25.4,25.4,U/L,7,56,NORMAL,,,,,1.0,SCREENING,SCREENING,-35,MILESTONE 1
BI-1245.110,LB,BI-1245.110-MEX_SITE01-0016,2,AST,Aspartate Aminotransferase,CHEMISTRY,17.57,U/L,10,40,17.57,17.57,U/L,10,40,NORMAL,,,,,1.0,SCREENING,SCREENING,-35,MILESTONE 1
BI-1245.110,LB,BI-1245.110-MEX_SITE01-0016,3,CREAT,Creatinine,CHEMISTRY,54.32,umol/L,44,80,54.32,54.32,umol/L,44,80,NORMAL,,,,,1.0,SCREENING,SCREENING,-35,MILESTONE 1
BI-1245.110,LB,BI-1245.110-MEX_SITE01-0016,4,GLUC,Glucose,CHEMISTRY,4.54,mmol/L,3.9,5.6,4.54,4.54,mmol/L,3.9,5.6,NORMAL,,,,,1.0,SCREENING,SCREENING,-35,MILESTONE 1
BI-1245.110,LB,BI-1245.110-MEX_SITE01-0016,5,HGB,Hemoglobin,HEMATOLOGY,129.41,g/L,120,155,129.41,129.41,g/L,120,155,NORMAL,,,,,1.0,SCREENING,SCREENING,-35,MILESTONE 1
BI-1245.110,LB,BI-1245.110-MEX_SITE01-0016,6,PLAT,Platelets,HEMATOLOGY,250.53,10^9/L,150,400,250.53,250.53,10^9/L,150,400,NORMAL,,,,,1.0,SCREENING,SCREENING,-35,MILESTONE 1
BI-1245.110,LB,BI-1245.110-MEX_SITE01-0016,7,WBC,Leukocytes,HEMATOLOGY,9.73,10^9/L,4.0,11.0,9.73,9.73,10^9/L,4.0,11.0,NORMAL,,,,,1.0,SCREENING,SCREENING,-35,MILESTONE 1
BI-1245.110,LB,BI-1245.110-MEX_SITE01-0016,8,ALT,Alanine Aminotransferase,CHEMISTRY,23.77,U/L,7,56,23.77,23.77,U/L,7,56,NORMAL,,Y,Y,,2.0,BASELINE,TREATMENT,1,MILESTONE 1
BI-1245.110,LB,BI-1245.110-MEX_SITE01-0016,9,AST,Aspartate Aminotransferase,CHEMISTRY,17.29,U/L,10,40,17.29,17.29,U/L,10,40,NORMAL,,Y,Y,,2.0,BASELINE,TREATMENT,1,MILESTONE 1
BI-1245.110,LB,BI-1245.110-MEX_SITE01-0016,10,CREAT,Creatinine,CHEMISTRY,51.84,umol/L,44,80,51.84,51.84,umol/L,44,80,NORMAL,,Y,Y,,2.0,BASELINE,TREATMENT,1,MILESTONE 1
BI-1245.110,LB,BI-1245.110-MEX_SITE01-0016,11,GLUC,Glucose,CHEMISTRY,4.41,mmol/L,3.9,5.6,4.41,4.41,mmol/L,3.9,5.6,NORMAL,,Y,Y,,2.0,BASELINE,TREATMENT,1,MILESTONE 1
BI-1245.110,LB,BI-1245.110-MEX_SITE01-0016,12,HGB,Hemoglobin,HEMATOLOGY,129.41,g/L,120,155,129.41,129.41,g/L,120,155,NORMAL,,Y,Y,,2.0,BASELINE,TREATMENT,1,MILESTONE 1
BI-1245.110,LB,BI-1245.110-MEX_SITE01-0016,13,PLAT,Platelets,HEMATOLOGY,245.3,10^9/L,150,400,245.3,245.3,10^9/L,150,400,NORMAL,,Y,Y,,2.0,BASELINE,TREATMENT,1,MILESTONE 1
BI-1245.110,LB,BI-1245.110-MEX_SITE01-0016,14,WBC,Leukocytes,HEMATOLOGY,9.81,10^9/L,4.0,11.0,9.81,9.81,10^9/L,4.0,11.0,NORMAL,,Y,Y,,2.0,BASELINE,TREATMENT,1,MILESTONE 1
BI-1245.110,LB,BI-1245.110-MEX_SITE01-0016,15,ALT,Alanine Aminotransferase,CHEMISTRY,23.55,U/L,7,56,23.55,23.55,U/L,7,56,NORMAL,,,,,3.0,WEEK 4,TREATMENT,24,MILESTONE 1
BI-1245.110,LB,BI-1245.110-MEX_SITE01-0016,16,AST,Aspartate Aminotransferase,CHEMISTRY,19.73,U/L,10,40,19.73,19.73,U/L,10,40,NORMAL,,,,,3.0,WEEK 4,TREATMENT,24,MILESTONE 1
BI-1245.110,LB,BI-1245.110-MEX_SITE01-0016,17,CREAT,Creatinine,CHEMISTRY,57.85,umol/L,44,80,57.85,57.85,umol/L,44,80,NORMAL,,,,,3.0,WEEK 4,TREATMENT,24,MILESTONE 1
BI-1245.110,LB,BI-1245.110-MEX_SITE01-0016,18,GLUC,Glucose,CHEMISTRY,4.33,mmol/L,3.9,5.6,4.33,4.33,mmol/L,3.9,5.6,NORMAL,,,,,3.0,WEEK 4,TREATMENT,24,MILESTONE 1
BI-1245.110,LB,BI-1245.110-MEX_SITE01-0016,19,HGB,Hemoglobin,HEMATOLOGY,129.56,g/L,120,155,129.56,129.56,g/L,120,155,NORMAL,,,,,3.0,WEEK 4,TREATMENT,24,MILESTONE 1
BI-1245.110,LB,BI-1245.110-MEX_SITE01-0016,20,PLAT,Platelets,HEMATOLOGY,239.71,10^9/L,150,400,239.71,239.71,10^9/L,150,400,NORMAL,,,,,3.0,WEEK 4,TREATMENT,24,MILESTONE 1
BI-1245.110,LB,BI-1245.110-MEX_SITE01-0016,21,WBC,Leukocytes,HEMATOLOGY,14.95,10^9/L,4.0,11.0,14.95,14.95,10^9/L,4.0,11.0,HIGH,,,,1,3.0,WEEK 4,TREATMENT,24,MILESTONE 1
BI-1245.110,LB,BI-1245.110-MEX_SITE01-0016,22,ALT,Alanine Aminotransferase,CHEMISTRY,25.98,U/L,7,56,25.98,25.98,U/L,7,56,NORMAL,,,,,4.0,WEEK 12,TREATMENT,79,MILESTONE 1
BI-1245.110,LB,BI-1245.110-MEX_SITE01-0016,23,AST,Aspartate Aminotransferase,CHEMISTRY,19.51,U/L,10,40,19.51,19.51,U/L,10,40,NORMAL,,,,,4.0,WEEK 12,TREATMENT,79,MILESTONE 1
BI-1245.110,LB,BI-1245.110-MEX_SITE01-0016,24,CREAT,Creatinine,CHEMISTRY,60.38,umol/L,44,80,60.38,60.38,umol/L,44,80,NORMAL,,,,,4.0,WEEK 12,TREATMENT,79,MILESTONE 1
BI-1245.110,LB,BI-1245.110-MEX_SITE01-0016,25,GLUC,Glucose,CHEMISTRY,4.49,mmol/L,3.9,5.6,4.49,4.49,mmol/L,3.9,5.6,NORMAL,,,,,4.0,WEEK 12,TREATMENT,79,MILESTONE 1
BI-1245.110,LB,BI-1245.110-MEX_SITE01-0016,26,HGB,Hemoglobin,HEMATOLOGY,130.33,g/L,120,155,130.33,130.33,g/L,120,155,NORMAL,,,,,4.0,WEEK 12,TREATMENT,79,MILESTONE 1
BI-1245.110,LB,BI-1245.110-MEX_SITE01-0016,27,PLAT,Platelets,HEMATOLOGY,251.12,10^9/L,150,400,251.12,251.12,10^9/L,150,400,NORMAL,,,,,4.0,WEEK 12,TREATMENT,79,MILESTONE 1
BI-1245.110,LB,BI-1245.110-MEX_SITE01-0016,28,WBC,Leukocytes,HEMATOLOGY,9.85,10^9/L,4.0,11.0,9.85,9.85,10^9/L,4.0,11.0,NORMAL,,,,,4.0,WEEK 12,TREATMENT,79,MILESTONE 1
BI-1245.110,LB,BI-1245.110-MEX_SITE01-0016,29,ALT,Alanine Aminotransferase,CHEMISTRY,28.61,U/L,7,56,28.61,28.61,U/L,7,56,NORMAL,,,,,5.0,MONTH 6,TREATMENT,196,MILESTONE 1
BI-1245.110,LB,BI-1245.110-MEX_SITE01-0016,30,AST,Aspartate Aminotransferase,CHEMISTRY,,,,,,,,,,,NOT DONE,,,,5.0,MONTH 6,TREATMENT,196,MILESTONE 1
BI-1245.110,LB,BI-1245.110-MEX_SITE01-0016,31,CREAT,Creatinine,CHEMISTRY,57.14,umol/L,44,80,57.14,57.14,umol/L,44,80,NORMAL,,,,,5.0,MONTH 6,TREATMENT,196,MILESTONE 1
BI-1245.110,LB,BI-1245.110-MEX_SITE01-0016,32,GLUC,Glucose,CHEMISTRY,4.68,mmol/L,3.9,5.6,4.68,4.68,mmol/L,3.9,5.6,NORMAL,,,,,5.0,MONTH 6,TREATMENT,196,MILESTONE 1
BI-1245.110,LB,BI-1245.110-MEX_SITE01-0016,33,HGB,Hemoglobin,HEMATOLOGY,129.72,g/L,120,155,129.72,129.72,g/L,120,155,NORMAL,,,,,5.0,MONTH 6,TREATMENT,196,MILESTONE 1
BI-1245.110,LB,BI-1245.110-MEX_SITE01-0016,34,PLAT,Platelets,HEMATOLOGY,251.71,10^9/L,150,400,251.71,251.71,10^9/L,150,400,NORMAL,,,,,5.0,MONTH 6,TREATMENT,196,MILESTONE 1
BI-1245.110,LB,BI-1245.110-MEX_SITE01-0016,35,WBC,Leukocytes,HEMATOLOGY,9.68,10^9/L,4.0,11.0,9.68,9.68,10^9/L,4.0,11.0,NORMAL,,,,,5.0,MONTH 6,TREATMENT,196,MILESTONE 1
BI-1245.110,LB,BI-1245.110-MEX_SITE01-0016,36,ALT,Alanine Aminotransferase,CHEMISTRY,28.21,U/L,7,56,28.21,28.21,U/L,7,56,NORMAL,,,,,7.0,MONTH 18,TREATMENT,537,MILESTONE 1
BI-1245.110,LB,BI-1245.110-MEX_SITE01-0016,37,AST,Aspartate Aminotransferase,CHEMISTRY,17.85,U/L,10,40,17.85,17.85,U/L,10,40,NORMAL,,,,,7.0,MONTH 18,TREATMENT,537,MILESTONE 1
BI-1245.110,LB,BI-1245.110-MEX_SITE01-0016,38,CREAT,Creatinine,CHEMISTRY,49.95,umol/L,44,80,49.95,49.95,umol/L,44,80,NORMAL,,,,,7.0,MONTH 18,TREATMENT,537,MILESTONE 1
BI-1245.110,LB,BI-1245.110-MEX_SITE01-0016,39,GLUC,Glucose,CHEMISTRY,4.4,mmol/L,3.9,5.6,4.4,4.4,mmol/L,3.9,5.6,NORMAL,,,,,7.0,MONTH 18,TREATMENT,537,MILESTONE 1
BI-1245.110,LB,BI-1245.110-MEX_SITE01-0016,40,HGB,Hemoglobin,HEMATOLOGY,,,,,,,,,,,NOT DONE,,,,7.0,MONTH 18,TREATMENT,537,MILESTONE 1
BI-1245.110,LB,BI-1245.110-MEX_SITE01-0016,41,PLAT,Platelets,HEMATOLOGY,261.65,10^9/L,150,400,261.65,261.65,10^9/L,150,400,NORMAL,,,,,7.0,MONTH 18,TREATMENT,537,MILESTONE 1
BI-1245.110,LB,BI-1245.110-MEX_SITE01-0016,42,WBC,Leukocytes,HEMATOLOGY,10.17,10^9/L,4.0,11.0,10.17,10.17,10^9/L,4.0,11.0,NORMAL,,,,,7.0,MONTH 18,TREATMENT,537,MILESTONE 1
BI-1245.110,LB,BI-1245.110-MEX_SITE01-0019,1,ALT,Alanine Aminotransferase,CHEMISTRY,18.6,U/L,7,56,18.6,18.6,U/L,7,56,NORMAL,,,,,1.0,SCREENING,SCREENING,-47,MILESTONE 1
BI-1245.110,LB,BI-1245.110-MEX_SITE01-0019,2,AST,Aspartate Aminotransferase,CHEMISTRY,40.15,U/L,10,40,40.15,40.15,U/L,10,40,HIGH,,,,1,1.0,SCREENING,SCREENING,-47,MILESTONE 1
BI-1245.110,LB,BI-1245.110-MEX_SITE01-0019,3,CREAT,Creatinine,CHEMISTRY,104.66,umol/L,62,106,104.66,104.66,umol/L,62,106,NORMAL,,,,,1.0,SCREENING,SCREENING,-47,MILESTONE 1
BI-1245.110,LB,BI-1245.110-MEX_SITE01-0019,4,GLUC,Glucose,CHEMISTRY,6.88,mmol/L,3.9,5.6,6.88,6.88,mmol/L,3.9,5.6,HIGH,,,,1,1.0,SCREENING,SCREENING,-47,MILESTONE 1
BI-1245.110,LB,BI-1245.110-MEX_SITE01-0019,5,HGB,Hemoglobin,HEMATOLOGY,132.4,g/L,130,175,132.4,132.4,g/L,130,175,NORMAL,,,,,1.0,SCREENING,SCREENING,-47,MILESTONE 1
BI-1245.110,LB,BI-1245.110-MEX_SITE01-0019,6,PLAT,Platelets,HEMATOLOGY,202.94,10^9/L,150,400,202.94,202.94,10^9/L,150,400,NORMAL,,,,,1.0,SCREENING,SCREENING,-47,MILESTONE 1
BI-1245.110,LB,BI-1245.110-MEX_SITE01-0019,7,WBC,Leukocytes,HEMATOLOGY,5.91,10^9/L,4.0,11.0,5.91,5.91,10^9/L,4.0,11.0,NORMAL,,,,,1.0,SCREENING,SCREENING,-47,MILESTONE 1
BI-1245.110,LB,BI-1245.110-MEX_SITE01-0019,8,ALT,Alanine Aminotransferase,CHEMISTRY,18.79,U/L,7,56,18.79,18.79,U/L,7,56,NORMAL,,Y,Y,,2.0,BASELINE,TREATMENT,1,MILESTONE 1
BI-1245.110,LB,BI-1245.110-MEX_SITE01-0019,9,AST,Aspartate Aminotransferase,CHEMISTRY,38.6,U/L,10,40,38.6,38.6,U/L,10,40,NORMAL,,Y,Y,,2.0,BASELINE,TREATMENT,1,MILESTONE 1
BI-1245.110,LB,BI-1245.110-MEX_SITE01-0019,10,CREAT,Creatinine,CHEMISTRY,105.82,umol/L,62,106,105.82,105.82,umol/L,62,106,NORMAL,,Y,Y,,2.0,BASELINE,TREATMENT,1,MILESTONE 1
BI-1245.110,LB,BI-1245.110-MEX_SITE01-0019,11,GLUC,Glucose,CHEMISTRY,6.88,mmol/L,3.9,5.6,6.88,6.88,mmol/L,3.9,5.6,HIGH,,Y,Y,1,2.0,BASELINE,TREATMENT,1,MILESTONE 1
BI-1245.110,LB,BI-1245.110-MEX_SITE01-0019,12,HGB,Hemoglobin,HEMATOLOGY,130.38,g/L,130,175,130.38,130.38,g/L,130,175,NORMAL,,Y,Y,,2.0,BASELINE,TREATMENT,1,MILESTONE 1
BI-1245.110,LB,BI-1245.110-MEX_SITE01-0019,13,PLAT,Platelets,HEMATOLOGY,185.63,10^9/L,150,400,185.63,185.63,10^9/L,150,400,NORMAL,,Y,Y,,2.0,BASELINE,TREATMENT,1,MILESTONE 1
BI-1245.110,LB,BI-1245.110-MEX_SITE01-0019,14,WBC,Leukocytes,HEMATOLOGY,6.08,10^9/L,4.0,11.0,6.08,6.08,10^9/L,4.0,11.0,NORMAL,,Y,Y,,2.0,BASELINE,TREATMENT,1,MILESTONE 1
BI-1245.110,LB,BI-1245.110-MEX_SITE01-0019,15,ALT,Alanine Aminotransferase,CHEMISTRY,19.58,U/L,7,56,19.58,19.58,U/L,7,56,NORMAL,,,,,3.0,WEEK 4,TREATMENT,26,MILESTONE 1
BI-1245.110,LB,BI-1245.110-MEX_SITE01-0019,16,AST,Aspartate Aminotransferase,CHEMISTRY,37.02,U/L,10,40,37.02,37.02,U/L,10,40,NORMAL,,,,,3.0,WEEK 4,TREATMENT,26,MILESTONE 1
BI-1245.110,LB,BI-1245.110-MEX_SITE01-0019,17,CREAT,Creatinine,CHEMISTRY,109.24,umol/L,62,106,109.24,109.24,umol/L,62,106,HIGH,,,,1,3.0,WEEK 4,TREATMENT,26,MILESTONE 1
BI-1245.110,LB,BI-1245.110-MEX_SITE01-0019,18,GLUC,Glucose,CHEMISTRY,6.7,mmol/L,3.9,5.6,6.7,6.7,mmol/L,3.9,5.6,HIGH,,,,1,3.0,WEEK 4,TREATMENT,26,MILESTONE 1
BI-1245.110,LB,BI-1245.110-MEX_SITE01-0019,19,HGB,Hemoglobin,HEMATOLOGY,129.98,g/L,130,175,129.98,129.98,g/L,130,175,LOW,,,,1,3.0,WEEK 4,TREATMENT,26,MILESTONE 1
BI-1245.110,LB,BI-1245.110-MEX_SITE01-0019,20,PLAT,Platelets,HEMATOLOGY,,,,,,,,,,,NOT DONE,,,,3.0,WEEK 4,TREATMENT,26,MILESTONE 1
BI-1245.110,LB,BI-1245.110-MEX_SITE01-0019,21,WBC,Leukocytes,HEMATOLOGY,5.86,10^9/L,4.0,11.0,5.86,5.86,10^9/L,4.0,11.0,NORMAL,,,,,3.0,WEEK 4,TREATMENT,26,MILESTONE 1
BI-1245.110,LB,BI-1245.110-MEX_SITE01-0019,22,ALT,Alanine Aminotransferase,CHEMISTRY,21.37,U/L,7,56,21.37,21.37,U/L,7,56,NORMAL,,,,,4.0,WEEK 12,TREATMENT,84,MILESTONE 1
BI-1245.110,LB,BI-1245.110-MEX_SITE01-0019,23,AST,Aspartate Aminotransferase,CHEMISTRY,36.5,U/L,10,40,36.5,36.5,U/L,10,40,NORMAL,,,,,4.0,WEEK 12,TREATMENT,84,MILESTONE 1
BI-1245.110,LB,BI-1245.110-MEX_SITE01-0019,24,CREAT,Creatinine,CHEMISTRY,104.09,umol/L,62,106,104.09,104.09,umol/L,62,106,NORMAL,,,,,4.0,WEEK 12,TREATMENT,84,MILESTONE 1
BI-1245.110,LB,BI-1245.110-MEX_SITE01-0019,25,GLUC,Glucose,CHEMISTRY,6.69,mmol/L,3.9,5.6,6.69,6.69,mmol/L,3.9,5.6,HIGH,,,,1,4.0,WEEK 12,TREATMENT,84,MILESTONE 1
BI-1245.110,LB,BI-1245.110-MEX_SITE01-0019,26,HGB,Hemoglobin,HEMATOLOGY,130.07,g/L,130,175,130.07,130.07,g/L,130,175,NORMAL,,,,,4.0,WEEK 12,TREATMENT,84,MILESTONE 1
BI-1245.110,LB,BI-1245.110-MEX_SITE01-0019,27,PLAT,Platelets,HEMATOLOGY,163.28,10^9/L,150,400,163.28,163.28,10^9/L,150,400,NORMAL,,,,,4.0,WEEK 12,TREATMENT,84,MILESTONE 1
BI-1245.110,LB,BI-1245.110-MEX_SITE01-0019,28,WBC,Leukocytes,HEMATOLOGY,6.63,10^9/L,4.0,11.0,6.63,6.63,10^9/L,4.0,11.0,NORMAL,,,,,4.0,WEEK 12,TREATMENT,84,MILESTONE 1
BI-1245.110,LB,BI-1245.110-MEX_SITE01-0019,29,ALT,Alanine Aminotransferase,CHEMISTRY,22.86,U/L,7,56,22.86,22.86,U/L,7,56,NORMAL,,,,,5.0,MONTH 6,TREATMENT,185,MILESTONE 1
BI-1245.110,LB,BI-1245.110-MEX_SITE01-0019,30,AST,Aspartate Aminotransferase,CHEMISTRY,38.51,U/L,10,40,38.51,38.51,U/L,10,40,NORMAL,,,,,5.0,MONTH 6,TREATMENT,185,MILESTONE 1
BI-1245.110,LB,BI-1245.110-MEX_SITE01-0019,31,CREAT,Creatinine,CHEMISTRY,106.13,umol/L,62,106,106.13,106.13,umol/L,62,106,HIGH,,,,1,5.0,MONTH 6,TREATMENT,185,MILESTONE 1
BI-1245.110,LB,BI-1245.110-MEX_SITE01-0019,32,GLUC,Glucose,CHEMISTRY,6.72,mmol/L,3.9,5.6,6.72,6.72,mmol/L,3.9,5.6,HIGH,,,,1,5.0,MONTH 6,TREATMENT,185,MILESTONE 1
BI-1245.110,LB,BI-1245.110-MEX_SITE01-0019,33,HGB,Hemoglobin,HEMATOLOGY,129.98,g/L,130,175,129.98,129.98,g/L,130,175,LOW,,,,1,5.0,MONTH 6,TREATMENT,185,MILESTONE 1
BI-1245.110,LB,BI-1245.110-MEX_SITE01-0019,34,PLAT,Platelets,HEMATOLOGY,181.17,10^9/L,150,400,181.17,181.17,10^9/L,150,400,NORMAL,,,,,5.0,MONTH 6,TREATMENT,185,MILESTONE 1
BI-1245.110,LB,BI-1245.110-MEX_SITE01-0019,35,WBC,Leukocytes,HEMATOLOGY,7.21,10^9/L,4.0,11.0,7.21,7.21,10^9/L,4.0,11.0,NORMAL,,,,,5.0,MONTH 6,TREATMENT,185,MILESTONE 1
BI-1245.110,LB,BI-1245.110-MEX_SITE01-0019,36,ALT,Alanine Aminotransferase,CHEMISTRY,23.08,U/L,7,56,23.08,23.08,U/L,7,56,NORMAL,,,,,6.0,MONTH 12,TREATMENT,377,MILESTONE 1
BI-1245.110,LB,BI-1245.110-MEX_SITE01-0019,37,AST,Aspartate Aminotransferase,CHEMISTRY,39.6,U/L,10,40,39.6,39.6,U/L,10,40,NORMAL,,,,,6.0,MONTH 12,TREATMENT,377,MILESTONE 1
BI-1245.110,LB,BI-1245.110-MEX_SITE01-0019,38,CREAT,Creatinine,CHEMISTRY,105.61,umol/L,62,106,105.61,105.61,umol/L,62,106,NORMAL,,,,,6.0,MONTH 12,TREATMENT,377,MILESTONE 1
BI-1245.110,LB,BI-1245.110-MEX_SITE01-0019,39,GLUC,Glucose,CHEMISTRY,6.69,mmol/L,3.9,5.6,6.69,6.69,mmol/L,3.9,5.6,HIGH,,,,1,6.0,MONTH 12,TREATMENT,377,MILESTONE 1
BI-1245.110,LB,BI-1245.110-MEX_SITE01-0019,40,HGB,Hemoglobin,HEMATOLOGY,129.53,g/L,130,175,129.53,129.53,g/L,130,175,LOW,,,,1,6.0,MONTH 12,TREATMENT,377,MILESTONE 1
BI-1245.110,LB,BI-1245.110-MEX_SITE01-0019,41,PLAT,Platelets,HEMATOLOGY,200.0,10^9/L,150,400,200.0,200.0,10^9/L,150,400,NORMAL,,,,,6.0,MONTH 12,TREATMENT,377,MILESTONE 1
BI-1245.110,LB,BI-1245.110-MEX_SITE01-0019,42,WBC,Leukocytes,HEMATOLOGY,8.62,10^9/L,4.0,11.0,8.62,8.62,10^9/L,4.0,11.0,NORMAL,,,,,6.0,MONTH 12,TREATMENT,377,MILESTONE 1
BI-1245.110,LB,BI-1245.110-MEX_SITE01-0019,43,ALT,Alanine Aminotransferase,CHEMISTRY,23.58,U/L,7,56,23.58,23.58,U/L,7,56,NORMAL,,,,,7.0,MONTH 18,TREATMENT,536,MILESTONE 1
BI-1245.110,LB,BI-1245.110-MEX_SITE01-0019,44,AST,Aspartate Aminotransferase,CHEMISTRY,38.4,U/L,10,40,38.4,38.4,U/L,10,40,NORMAL,,,,,7.0,MONTH 18,TREATMENT,536,MILESTONE 1
BI-1245.110,LB,BI-1245.110-MEX_SITE01-0019,45,CREAT,Creatinine,CHEMISTRY,106.01,umol/L,62,106,106.01,106.01,umol/L,62,106,HIGH,,,,1,7.0,MONTH 18,TREATMENT,536,MILESTONE 1
BI-1245.110,LB,BI-1245.110-MEX_SITE01-0019,46,GLUC,Glucose,CHEMISTRY,6.98,mmol/L,3.9,5.6,6.98,6.98,mmol/L,3.9,5.6,HIGH,,,,1,7.0,MONTH 18,TREATMENT,536,MILESTONE 1
BI-1245.110,LB,BI-1245.110-MEX_SITE01-0019,47,HGB,Hemoglobin,HEMATOLOGY,128.86,g/L,130,175,128.86,128.86,g/L,130,175,LOW,,,,1,7.0,MONTH 18,TREATMENT,536,MILESTONE 1
BI-1245.110,LB,BI-1245.110-MEX_SITE01-0019,48,PLAT,Platelets,HEMATOLOGY,198.74,10^9/L,150,400,198.74,198.74,10^9/L,150,400,NORMAL,,,,,7.0,MONTH 18,TREATMENT,536,MILESTONE 1
BI-1245.110,LB,BI-1245.110-MEX_SITE01-0019,49,WBC,Leukocytes,HEMATOLOGY,6.25,10^9/L,4.0,11.0,6.25,6.25,10^9/L,4.0,11.0,NORMAL,,,,,7.0,MONTH 18,TREATMENT,536,MILESTONE 1
BI-1245.110,LB,BI-1245.110-MEX_SITE01-0019,50,ALT,Alanine Aminotransferase,CHEMISTRY,21.07,U/L,7,56,21.07,21.07,U/L,7,56,NORMAL,,,,,8.0,MONTH 24,TREATMENT,719,MILESTONE 1
BI-1245.110,LB,BI-1245.110-MEX_SITE01-0019,51,AST,Aspartate Aminotransferase,CHEMISTRY,38.52,U/L,10,40,38.52,38.52,U/L,10,40,NORMAL,,,,,8.0,MONTH 24,TREATMENT,719,MILESTONE 1
BI-1245.110,LB,BI-1245.110-MEX_SITE01-0019,52,CREAT,Creatinine,CHEMISTRY,103.9,umol/L,62,106,103.9,103.9,umol/L,62,106,NORMAL,,,,,8.0,MONTH 24,TREATMENT,719,MILESTONE 1
BI-1245.110,LB,BI-1245.110-MEX_SITE01-0019,53,GLUC,Glucose,CHEMISTRY,6.97,mmol/L,3.9,5.6,6.97,6.97,mmol/L,3.9,5.6,HIGH,,,,1,8.0,MONTH 24,TREATMENT,719,MILESTONE 1
BI-1245.110,LB,BI-1245.110-MEX_SITE01-0019,54,HGB,Hemoglobin,HEMATOLOGY,130.26,g/L,130,175,130.26,130.26,g/L,130,175,NORMAL,,,,,8.0,MONTH 24,TREATMENT,719,MILESTONE 1
BI-1245.110,LB,BI-1245.110-MEX_SITE01-0019,55,PLAT,Platelets,HEMATOLOGY,200.23,10^9/L,150,400,200.23,200.23,10^9/L,150,400,NORMAL,,,,,8.0,MONTH 24,TREATMENT,719,MILESTONE 1
BI-1245.110,LB,BI-1245.110-MEX_SITE01-0019,56,WBC,Leukocytes,HEMATOLOGY,8.17,10^9/L,4.0,11.0,8.17,8.17,10^9/L,4.0,11.0,NORMAL,,,,,8.0,MONTH 24,TREATMENT,719,MILESTONE 1
BI-1245.110,LB,BI-1245.110-MEX_SITE01-0019,57,ALT,Alanine Aminotransferase,CHEMISTRY,,,,,,,,,,,NOT DONE,,,,9.0,EOT,TREATMENT,819,MILESTONE 1
BI-1245.110,LB,BI-1245.110-MEX_SITE01-0019,58,AST,Aspartate Aminotransferase,CHEMISTRY,39.59,U/L,10,40,39.59,39.59,U/L,10,40,NORMAL,,,,,9.0,EOT,TREATMENT,819,MILESTONE 1
BI-1245.110,LB,BI-1245.110-MEX_SITE01-0019,59,CREAT,Creatinine,CHEMISTRY,98.51,umol/L,62,106,98.51,98.51,umol/L,62,106,NORMAL,,,,,9.0,EOT,TREATMENT,819,MILESTONE 1
BI-1245.110,LB,BI-1245.110-MEX_SITE01-0019,60,GLUC,Glucose,CHEMISTRY,6.89,mmol/L,3.9,5.6,6.89,6.89,mmol/L,3.9,5.6,HIGH,,,,1,9.0,EOT,TREATMENT,819,MILESTONE 1
BI-1245.110,LB,BI-1245.110-MEX_SITE01-0019,61,HGB,Hemoglobin,HEMATOLOGY,129.94,g/L,130,175,129.94,129.94,g/L,130,175,LOW,,,,1,9.0,EOT,TREATMENT,819,MILESTONE 1
BI-1245.110,LB,BI-1245.110-MEX_SITE01-0019,62,PLAT,Platelets,HEMATOLOGY,191.23,10^9/L,150,400,191.23,191.23,10^9/L,150,400,NORMAL,,,,,9.0,EOT,TREATMENT,819,MILESTONE 1
BI-1245.110,LB,BI-1245.110-MEX_SITE01-0019,63,WBC,Leukocytes,HEMATOLOGY,6.85,10^9/L,4.0,11.0,6.85,6.85,10^9/L,4.0,11.0,NORMAL,,,,,9.0,EOT,TREATMENT,819,MILESTONE 1
BI-1245.110,LB,BI-1245.110-POL_SITE01-0004,1,ALT,Alanine Aminotransferase,CHEMISTRY,19.54,U/L,7,56,19.54,19.54,U/L,7,56,NORMAL,,,,,1.0,SCREENING,SCREENING,-39,MILESTONE 1
BI-1245.110,LB,BI-1245.110-POL_SITE01-0004,2,AST,Aspartate Aminotransferase,CHEMISTRY,16.12,U/L,10,40,16.12,16.12,U/L,10,40,NORMAL,,,,,1.0,SCREENING,SCREENING,-39,MILESTONE 1
BI-1245.110,LB,BI-1245.110-POL_SITE01-0004,3,CREAT,Creatinine,CHEMISTRY,61.06,umol/L,62,106,61.06,61.06,umol/L,62,106,LOW,,,,1,1.0,SCREENING,SCREENING,-39,MILESTONE 1
BI-1245.110,LB,BI-1245.110-POL_SITE01-0004,4,GLUC,Glucose,CHEMISTRY,7.37,mmol/L,3.9,5.6,7.37,7.37,mmol/L,3.9,5.6,HIGH,,,,1,1.0,SCREENING,SCREENING,-39,MILESTONE 1
BI-1245.110,LB,BI-1245.110-POL_SITE01-0004,5,HGB,Hemoglobin,HEMATOLOGY,129.97,g/L,130,175,129.97,129.97,g/L,130,175,LOW,,,,1,1.0,SCREENING,SCREENING,-39,MILESTONE 1
BI-1245.110,LB,BI-1245.110-POL_SITE01-0004,6,PLAT,Platelets,HEMATOLOGY,367.41,10^9/L,150,400,367.41,367.41,10^9/L,150,400,NORMAL,,,,,1.0,SCREENING,SCREENING,-39,MILESTONE 1
BI-1245.110,LB,BI-1245.110-POL_SITE01-0004,7,WBC,Leukocytes,HEMATOLOGY,3.43,10^9/L,4.0,11.0,3.43,3.43,10^9/L,4.0,11.0,LOW,,,,1,1.0,SCREENING,SCREENING,-39,MILESTONE 1
BI-1245.110,LB,BI-1245.110-POL_SITE01-0004,8,ALT,Alanine Aminotransferase,CHEMISTRY,20.9,U/L,7,56,20.9,20.9,U/L,7,56,NORMAL,,Y,Y,,2.0,BASELINE,TREATMENT,1,MILESTONE 1
BI-1245.110,LB,BI-1245.110-POL_SITE01-0004,9,AST,Aspartate Aminotransferase,CHEMISTRY,16.62,U/L,10,40,16.62,16.62,U/L,10,40,NORMAL,,Y,Y,,2.0,BASELINE,TREATMENT,1,MILESTONE 1
BI-1245.110,LB,BI-1245.110-POL_SITE01-0004,10,CREAT,Creatinine,CHEMISTRY,75.14,umol/L,62,106,75.14,75.14,umol/L,62,106,NORMAL,,Y,Y,,2.0,BASELINE,TREATMENT,1,MILESTONE 1
BI-1245.110,LB,BI-1245.110-POL_SITE01-0004,11,GLUC,Glucose,CHEMISTRY,7.4,mmol/L,3.9,5.6,7.4,7.4,mmol/L,3.9,5.6,HIGH,,Y,Y,1,2.0,BASELINE,TREATMENT,1,MILESTONE 1
BI-1245.110,LB,BI-1245.110-POL_SITE01-0004,12,HGB,Hemoglobin,HEMATOLOGY,128.17,g/L,130,175,128.17,128.17,g/L,130,175,LOW,,Y,Y,1,2.0,BASELINE,TREATMENT,1,MILESTONE 1
BI-1245.110,LB,BI-1245.110-POL_SITE01-0004,13,PLAT,Platelets,HEMATOLOGY,337.64,10^9/L,150,400,337.64,337.64,10^9/L,150,400,NORMAL,,Y,Y,,2.0,BASELINE,TREATMENT,1,MILESTONE 1
BI-1245.110,LB,BI-1245.110-POL_SITE01-0004,14,WBC,Leukocytes,HEMATOLOGY,3.17,10^9/L,4.0,11.0,3.17,3.17,10^9/L,4.0,11.0,LOW,,Y,Y,1,2.0,BASELINE,TREATMENT,1,MILESTONE 1
BI-1245.110,LB,BI-1245.110-POL_SITE01-0004,15,ALT,Alanine Aminotransferase,CHEMISTRY,22.05,U/L,7,56,22.05,22.05,U/L,7,56,NORMAL,,,,,3.0,WEEK 4,TREATMENT,30,MILESTONE 1
BI-1245.110,LB,BI-1245.110-POL_SITE01-0004,16,AST,Aspartate Aminotransferase,CHEMISTRY,,,,,,,,,,,NOT DONE,,,,3.0,WEEK 4,TREATMENT,30,MILESTONE 1
BI-1245.110,LB,BI-1245.110-POL_SITE01-0004,17,CREAT,Creatinine,CHEMISTRY,56.79,umol/L,62,106,56.79,56.79,umol/L,62,106,LOW,,,,1,3.0,WEEK 4,TREATMENT,30,MILESTONE 1
BI-1245.110,LB,BI-1245.110-POL_SITE01-0004,18,GLUC,Glucose,CHEMISTRY,7.39,mmol/L,3.9,5.6,7.39,7.39,mmol/L,3.9,5.6,HIGH,,,,1,3.0,WEEK 4,TREATMENT,30,MILESTONE 1
BI-1245.110,LB,BI-1245.110-POL_SITE01-0004,19,HGB,Hemoglobin,HEMATOLOGY,128.37,g/L,130,175,128.37,128.37,g/L,130,175,LOW,,,,1,3.0,WEEK 4,TREATMENT,30,MILESTONE 1
BI-1245.110,LB,BI-1245.110-POL_SITE01-0004,20,PLAT,Platelets,HEMATOLOGY,345.36,10^9/L,150,400,345.36,345.36,10^9/L,150,400,NORMAL,,,,,3.0,WEEK 4,TREATMENT,30,MILESTONE 1
BI-1245.110,LB,BI-1245.110-POL_SITE01-0004,21,WBC,Leukocytes,HEMATOLOGY,7.83,10^9/L,4.0,11.0,7.83,7.83,10^9/L,4.0,11.0,NORMAL,,,,,3.0,WEEK 4,TREATMENT,30,MILESTONE 1
BI-1245.110,LB,BI-1245.110-POL_SITE01-0004,22,ALT,Alanine Aminotransferase,CHEMISTRY,21.93,U/L,7,56,21.93,21.93,U/L,7,56,NORMAL,,,,,4.0,WEEK 12,TREATMENT,82,MILESTONE 1
BI-1245.110,LB,BI-1245.110-POL_SITE01-0004,23,AST,Aspartate Aminotransferase,CHEMISTRY,16.65,U/L,10,40,16.65,16.65,U/L,10,40,NORMAL,,,,,4.0,WEEK 12,TREATMENT,82,MILESTONE 1
BI-1245.110,LB,BI-1245.110-POL_SITE01-0004,24,CREAT,Creatinine,CHEMISTRY,55.89,umol/L,62,106,55.89,55.89,umol/L,62,106,LOW,,,,1,4.0,WEEK 12,TREATMENT,82,MILESTONE 1
BI-1245.110,LB,BI-1245.110-POL_SITE01-0004,25,GLUC,Glucose,CHEMISTRY,7.38,mmol/L,3.9,5.6,7.38,7.38,mmol/L,3.9,5.6,HIGH,,,,1,4.0,WEEK 12,TREATMENT,82,MILESTONE 1
BI-1245.110,LB,BI-1245.110-POL_SITE01-0004,26,HGB,Hemoglobin,HEMATOLOGY,128.25,g/L,130,175,128.25,128.25,g/L,130,175,LOW,,,,1,4.0,WEEK 12,TREATMENT,82,MILESTONE 1
BI-1245.110,LB,BI-1245.110-POL_SITE01-0004,27,PLAT,Platelets,HEMATOLOGY,353.82,10^9/L,150,400,353.82,353.82,10^9/L,150,400,NORMAL,,,,,4.0,WEEK 12,TREATMENT,82,MILESTONE 1
BI-1245.110,LB,BI-1245.110-POL_SITE01-0004,28,WBC,Leukocytes,HEMATOLOGY,3.49,10^9/L,4.0,11.0,3.49,3.49,10^9/L,4.0,11.0,LOW,,,,1,4.0,WEEK 12,TREATMENT,82,MILESTONE 1
BI-1245.110,LB,BI-1245.110-POL_SITE01-0004,29,ALT,Alanine Aminotransferase,CHEMISTRY,21.83,U/L,7,56,21.83,21.83,U/L,7,56,NORMAL,,,,,5.0,MONTH 6,TREATMENT,173,MILESTONE 1
BI-1245.110,LB,BI-1245.110-POL_SITE01-0004,30,AST,Aspartate Aminotransferase,CHEMISTRY,17.5,U/L,10,40,17.5,17.5,U/L,10,40,NORMAL,,,,,5.0,MONTH 6,TREATMENT,173,MILESTONE 1
BI-1245.110,LB,BI-1245.110-POL_SITE01-0004,31,CREAT,Creatinine,CHEMISTRY,54.5,umol/L,62,106,54.5,54.5,umol/L,62,106,LOW,,,,1,5.0,MONTH 6,TREATMENT,173,MILESTONE 1
BI-1245.110,LB,BI-1245.110-POL_SITE01-0004,32,GLUC,Glucose,CHEMISTRY,7.38,mmol/L,3.9,5.6,7.38,7.38,mmol/L,3.9,5.6,HIGH,,,,1,5.0,MONTH 6,TREATMENT,173,MILESTONE 1
BI-1245.110,LB,BI-1245.110-POL_SITE01-0004,33,HGB,Hemoglobin,HEMATOLOGY,127.15,g/L,130,175,127.15,127.15,g/L,130,175,LOW,,,,1,5.0,MONTH 6,TREATMENT,173,MILESTONE 1
BI-1245.110,LB,BI-1245.110-POL_SITE01-0004,34,PLAT,Platelets,HEMATOLOGY,352.43,10^9/L,150,400,352.43,352.43,10^9/L,150,400,NORMAL,,,,,5.0,MONTH 6,TREATMENT,173,MILESTONE 1
BI-1245.110,LB,BI-1245.110-POL_SITE01-0004,35,WBC,Leukocytes,HEMATOLOGY,3.11,10^9/L,4.0,11.0,3.11,3.11,10^9/L,4.0,11.0,LOW,,,,1,5.0,MONTH 6,TREATMENT,173,MILESTONE 1
BI-1245.110,LB,BI-1245.110-POL_SITE01-0004,36,ALT,Alanine Aminotransferase,CHEMISTRY,22.34,U/L,7,56,22.34,22.34,U/L,7,56,NORMAL,,,,,7.0,MONTH 18,TREATMENT,553,MILESTONE 1
BI-1245.110,LB,BI-1245.110-POL_SITE01-0004,37,AST,Aspartate Aminotransferase,CHEMISTRY,16.36,U/L,10,40,16.36,16.36,U/L,10,40,NORMAL,,,,,7.0,MONTH 18,TREATMENT,553,MILESTONE 1
BI-1245.110,LB,BI-1245.110-POL_SITE01-0004,38,CREAT,Creatinine,CHEMISTRY,54.53,umol/L,62,106,54.53,54.53,umol/L,62,106,LOW,,,,1,7.0,MONTH 18,TREATMENT,553,MILESTONE 1
BI-1245.110,LB,BI-1245.110-POL_SITE01-0004,39,GLUC,Glucose,CHEMISTRY,7.39,mmol/L,3.9,5.6,7.39,7.39,mmol/L,3.9,5.6,HIGH,,,,1,7.0,MONTH 18,TREATMENT,553,MILESTONE 1
BI-1245.110,LB,BI-1245.110-POL_SITE01-0004,40,HGB,Hemoglobin,HEMATOLOGY,127.38,g/L,130,175,127.38,127.38,g/L,130,175,LOW,,,,1,7.0,MONTH 18,TREATMENT,553,MILESTONE 1
BI-1245.110,LB,BI-1245.110-POL_SITE01-0004,41,PLAT,Platelets,HEMATOLOGY,378.18,10^9/L,150,400,378.18,378.18,10^9/L,150,400,NORMAL,,,,,7.0,MONTH 18,TREATMENT,553,MILESTONE 1
BI-1245.110,LB,BI-1245.110-POL_SITE01-0004,42,WBC,Leukocytes,HEMATOLOGY,7.56,10^9/L,4.0,11.0,7.56,7.56,10^9/L,4.0,11.0,NORMAL,,,,,7.0,MONTH 18,TREATMENT,553,MILESTONE 1
BI-1245.110,LB,BI-1245.110-POL_SITE01-0004,43,ALT,Alanine Aminotransferase,CHEMISTRY,20.3,U/L,7,56,20.3,20.3,U/L,7,56,NORMAL,,,,,8.0,MONTH 24,TREATMENT,744,MILESTONE 1
BI-1245.110,LB,BI-1245.110-POL_SITE01-0004,44,AST,Aspartate Aminotransferase,CHEMISTRY,17.45,U/L,10,40,17.45,17.45,U/L,10,40,NORMAL,,,,,8.0,MONTH 24,TREATMENT,744,MILESTONE 1
BI-1245.110,LB,BI-1245.110-POL_SITE01-0004,45,CREAT,Creatinine,CHEMISTRY,53.91,umol/L,62,106,53.91,53.91,umol/L,62,106,LOW,,,,1,8.0,MONTH 24,TREATMENT,744,MILESTONE 1
BI-1245.110,LB,BI-1245.110-POL_SITE01-0004,46,GLUC,Glucose,CHEMISTRY,7.53,mmol/L,3.9,5.6,7.53,7.53,mmol/L,3.9,5.6,HIGH,,,,1,8.0,MONTH 24,TREATMENT,744,MILESTONE 1
BI-1245.110,LB,BI-1245.110-POL_SITE01-0004,47,HGB,Hemoglobin,HEMATOLOGY,127.47,g/L,130,175,127.47,127.47,g/L,130,175,LOW,,,,1,8.0,MONTH 24,TREATMENT,744,MILESTONE 1
BI-1245.110,LB,BI-1245.110-POL_SITE01-0004,48,PLAT,Platelets,HEMATOLOGY,354.17,10^9/L,150,400,354.17,354.17,10^9/L,150,400,NORMAL,,,,,8.0,MONTH 24,TREATMENT,744,MILESTONE 1
BI-1245.110,LB,BI-1245.110-POL_SITE01-0004,49,WBC,Leukocytes,HEMATOLOGY,3.29,10^9/L,4.0,11.0,3.29,3.29,10^9/L,4.0,11.0,LOW,,,,1,8.0,MONTH 24,TREATMENT,744,MILESTONE 1
BI-1245.110,LB,BI-1245.110-POL_SITE01-0004,50,ALT,Alanine Aminotransferase,CHEMISTRY,19.96,U/L,7,56,19.96,19.96,U/L,7,56,NORMAL,,,,,9.0,EOT,TREATMENT,798,MILESTONE 1
BI-1245.110,LB,BI-1245.110-POL_SITE01-0004,51,AST,Aspartate Aminotransferase,CHEMISTRY,16.87,U/L,10,40,16.87,16.87,U/L,10,40,NORMAL,,,,,9.0,EOT,TREATMENT,798,MILESTONE 1
BI-1245.110,LB,BI-1245.110-POL_SITE01-0004,52,CREAT,Creatinine,CHEMISTRY,56.36,umol/L,62,106,56.36,56.36,umol/L,62,106,LOW,,,,1,9.0,EOT,TREATMENT,798,MILESTONE 1
BI-1245.110,LB,BI-1245.110-POL_SITE01-0004,53,GLUC,Glucose,CHEMISTRY,7.41,mmol/L,3.9,5.6,7.41,7.41,mmol/L,3.9,5.6,HIGH,,,,1,9.0,EOT,TREATMENT,798,MILESTONE 1
BI-1245.110,LB,BI-1245.110-POL_SITE01-0004,54,HGB,Hemoglobin,HEMATOLOGY,127.95,g/L,130,175,127.95,127.95,g/L,130,175,LOW,,,,1,9.0,EOT,TREATMENT,798,MILESTONE 1
BI-1245.110,LB,BI-1245.110-POL_SITE01-0004,55,PLAT,Platelets,HEMATOLOGY,357.91,10^9/L,150,400,357.91,357.91,10^9/L,150,400,NORMAL,,,,,9.0,EOT,TREATMENT,798,MILESTONE 1
BI-1245.110,LB,BI-1245.110-POL_SITE01-0004,56,WBC,Leukocytes,HEMATOLOGY,2.74,10^9/L,4.0,11.0,2.74,2.74,10^9/L,4.0,11.0,LOW,,,,1,9.0,EOT,TREATMENT,798,MILESTONE 1
BI-1245.110,LB,BI-1245.110-POL_SITE01-0006,1,ALT,Alanine Aminotransferase,CHEMISTRY,25.65,U/L,7,56,25.65,25.65,U/L,7,56,NORMAL,,,,,1.0,SCREENING,SCREENING,-36,MILESTONE 1
BI-1245.110,LB,BI-1245.110-POL_SITE01-0006,2,AST,Aspartate Aminotransferase,CHEMISTRY,25.93,U/L,10,40,25.93,25.93,U/L,10,40,NORMAL,,,,,1.0,SCREENING,SCREENING,-36,MILESTONE 1
BI-1245.110,LB,BI-1245.110-POL_SITE01-0006,3,CREAT,Creatinine,CHEMISTRY,91.59,umol/L,62,106,91.59,91.59,umol/L,62,106,NORMAL,,,,,1.0,SCREENING,SCREENING,-36,MILESTONE 1
BI-1245.110,LB,BI-1245.110-POL_SITE01-0006,4,GLUC,Glucose,CHEMISTRY,,,,,,,,,,,NOT DONE,,,,1.0,SCREENING,SCREENING,-36,MILESTONE 1
BI-1245.110,LB,BI-1245.110-POL_SITE01-0006,5,HGB,Hemoglobin,HEMATOLOGY,135.82,g/L,130,175,135.82,135.82,g/L,130,175,NORMAL,,,,,1.0,SCREENING,SCREENING,-36,MILESTONE 1
BI-1245.110,LB,BI-1245.110-POL_SITE01-0006,6,PLAT,Platelets,HEMATOLOGY,232.57,10^9/L,150,400,232.57,232.57,10^9/L,150,400,NORMAL,,,,,1.0,SCREENING,SCREENING,-36,MILESTONE 1
BI-1245.110,LB,BI-1245.110-POL_SITE01-0006,7,WBC,Leukocytes,HEMATOLOGY,6.96,10^9/L,4.0,11.0,6.96,6.96,10^9/L,4.0,11.0,NORMAL,,,,,1.0,SCREENING,SCREENING,-36,MILESTONE 1
BI-1245.110,LB,BI-1245.110-POL_SITE01-0006,8,ALT,Alanine Aminotransferase,CHEMISTRY,26.61,U/L,7,56,26.61,26.61,U/L,7,56,NORMAL,,Y,Y,,2.0,BASELINE,TREATMENT,1,MILESTONE 1
BI-1245.110,LB,BI-1245.110-POL_SITE01-0006,9,AST,Aspartate Aminotransferase,CHEMISTRY,28.52,U/L,10,40,28.52,28.52,U/L,10,40,NORMAL,,Y,Y,,2.0,BASELINE,TREATMENT,1,MILESTONE 1
BI-1245.110,LB,BI-1245.110-POL_SITE01-0006,10,CREAT,Creatinine,CHEMISTRY,95.61,umol/L,62,106,95.61,95.61,umol/L,62,106,NORMAL,,Y,Y,,2.0,BASELINE,TREATMENT,1,MILESTONE 1
BI-1245.110,LB,BI-1245.110-POL_SITE01-0006,11,GLUC,Glucose,CHEMISTRY,4.51,mmol/L,3.9,5.6,4.51,4.51,mmol/L,3.9,5.6,NORMAL,,Y,Y,,2.0,BASELINE,TREATMENT,1,MILESTONE 1
BI-1245.110,LB,BI-1245.110-POL_SITE01-0006,12,HGB,Hemoglobin,HEMATOLOGY,134.87,g/L,130,175,134.87,134.87,g/L,130,175,NORMAL,,Y,Y,,2.0,BASELINE,TREATMENT,1,MILESTONE 1
BI-1245.110,LB,BI-1245.110-POL_SITE01-0006,13,PLAT,Platelets,HEMATOLOGY,243.47,10^9/L,150,400,243.47,243.47,10^9/L,150,400,NORMAL,,Y,Y,,2.0,BASELINE,TREATMENT,1,MILESTONE 1
BI-1245.110,LB,BI-1245.110-POL_SITE01-0006,14,WBC,Leukocytes,HEMATOLOGY,7.43,10^9/L,4.0,11.0,7.43,7.43,10^9/L,4.0,11.0,NORMAL,,Y,Y,,2.0,BASELINE,TREATMENT,1,MILESTONE 1
BI-1245.110,LB,BI-1245.110-POL_SITE01-0006,15,ALT,Alanine Aminotransferase,CHEMISTRY,28.67,U/L,7,56,28.67,28.67,U/L,7,56,NORMAL,,,,,3.0,WEEK 4,TREATMENT,31,MILESTONE 1
BI-1245.110,LB,BI-1245.110-POL_SITE01-0006,16,AST,Aspartate Aminotransferase,CHEMISTRY,,,,,,,,,,,NOT DONE,,,,3.0,WEEK 4,TREATMENT,31,MILESTONE 1
BI-1245.110,LB,BI-1245.110-POL_SITE01-0006,17,CREAT,Creatinine,CHEMISTRY,97.61,umol/L,62,106,97.61,97.61,umol/L,62,106,NORMAL,,,,,3.0,WEEK 4,TREATMENT,31,MILESTONE 1
BI-1245.110,LB,BI-1245.110-POL_SITE01-0006,18,GLUC,Glucose,CHEMISTRY,4.59,mmol/L,3.9,5.6,4.59,4.59,mmol/L,3.9,5.6,NORMAL,,,,,3.0,WEEK 4,TREATMENT,31,MILESTONE 1
BI-1245.110,LB,BI-1245.110-POL_SITE01-0006,19,HGB,Hemoglobin,HEMATOLOGY,134.73,g/L,130,175,134.73,134.73,g/L,130,175,NORMAL,,,,,3.0,WEEK 4,TREATMENT,31,MILESTONE 1
BI-1245.110,LB,BI-1245.110-POL_SITE01-0006,20,PLAT,Platelets,HEMATOLOGY,235.42,10^9/L,150,400,235.42,235.42,10^9/L,150,400,NORMAL,,,,,3.0,WEEK 4,TREATMENT,31,MILESTONE 1
BI-1245.110,LB,BI-1245.110-POL_SITE01-0006,21,WBC,Leukocytes,HEMATOLOGY,7.84,10^9/L,4.0,11.0,7.84,7.84,10^9/L,4.0,11.0,NORMAL,,,,,3.0,WEEK 4,TREATMENT,31,MILESTONE 1
BI-1245.110,LB,BI-1245.110-POL_SITE01-0006,22,ALT,Alanine Aminotransferase,CHEMISTRY,27.18,U/L,7,56,27.18,27.18,U/L,7,56,NORMAL,,,,,4.0,WEEK 12,TREATMENT,78,MILESTONE 1
BI-1245.110,LB,BI-1245.110-POL_SITE01-0006,23,AST,Aspartate Aminotransferase,CHEMISTRY,27.04,U/L,10,40,27.04,27.04,U/L,10,40,NORMAL,,,,,4.0,WEEK 12,TREATMENT,78,MILESTONE 1
BI-1245.110,LB,BI-1245.110-POL_SITE01-0006,24,CREAT,Creatinine,CHEMISTRY,184.29,umol/L,62,106,184.29,184.29,umol/L,62,106,HIGH,,,,2,4.0,WEEK 12,TREATMENT,78,MILESTONE 1
BI-1245.110,LB,BI-1245.110-POL_SITE01-0006,25,GLUC,Glucose,CHEMISTRY,4.55,mmol/L,3.9,5.6,4.55,4.55,mmol/L,3.9,5.6,NORMAL,,,,,4.0,WEEK 12,TREATMENT,78,MILESTONE 1
BI-1245.110,LB,BI-1245.110-POL_SITE01-0006,26,HGB,Hemoglobin,HEMATOLOGY,135.23,g/L,130,175,135.23,135.23,g/L,130,175,NORMAL,,,,,4.0,WEEK 12,TREATMENT,78,MILESTONE 1
BI-1245.110,LB,BI-1245.110-POL_SITE01-0006,27,PLAT,Platelets,HEMATOLOGY,220.4,10^9/L,150,400,220.4,220.4,10^9/L,150,400,NORMAL,,,,,4.0,WEEK 12,TREATMENT,78,MILESTONE 1
BI-1245.110,LB,BI-1245.110-POL_SITE01-0006,28,WBC,Leukocytes,HEMATOLOGY,7.13,10^9/L,4.0,11.0,7.13,7.13,10^9/L,4.0,11.0,NORMAL,,,,,4.0,WEEK 12,TREATMENT,78,MILESTONE 1
BI-1245.110,LB,BI-1245.110-POL_SITE01-0006,29,ALT,Alanine Aminotransferase,CHEMISTRY,26.3,U/L,7,56,26.3,26.3,U/L,7,56,NORMAL,,,,,6.0,MONTH 12,TREATMENT,379,MILESTONE 1
BI-1245.110,LB,BI-1245.110-POL_SITE01-0006,30,AST,Aspartate Aminotransferase,CHEMISTRY,27.03,U/L,10,40,27.03,27.03,U/L,10,40,NORMAL,,,,,6.0,MONTH 12,TREATMENT,379,MILESTONE 1
BI-1245.110,LB,BI-1245.110-POL_SITE01-0006,31,CREAT,Creatinine,CHEMISTRY,97.42,umol/L,62,106,97.42,97.42,umol/L,62,106,NORMAL,,,,,6.0,MONTH 12,TREATMENT,379,MILESTONE 1
BI-1245.110,LB,BI-1245.110-POL_SITE01-0006,32,GLUC,Glucose,CHEMISTRY,4.58,mmol/L,3.9,5.6,4.58,4.58,mmol/L,3.9,5.6,NORMAL,,,,,6.0,MONTH 12,TREATMENT,379,MILESTONE 1
BI-1245.110,LB,BI-1245.110-POL_SITE01-0006,33,HGB,Hemoglobin,HEMATOLOGY,132.44,g/L,130,175,132.44,132.44,g/L,130,175,NORMAL,,,,,6.0,MONTH 12,TREATMENT,379,MILESTONE 1
BI-1245.110,LB,BI-1245.110-POL_SITE01-0006,34,PLAT,Platelets,HEMATOLOGY,231.52,10^9/L,150,400,231.52,231.52,10^9/L,150,400,NORMAL,,,,,6.0,MONTH 12,TREATMENT,379,MILESTONE 1
BI-1245.110,LB,BI-1245.110-POL_SITE01-0006,35,WBC,Leukocytes,HEMATOLOGY,7.01,10^9/L,4.0,11.0,7.01,7.01,10^9/L,4.0,11.0,NORMAL,,,,,6.0,MONTH 12,TREATMENT,379,MILESTONE 1
BI-1245.110,LB,BI-1245.110-POL_SITE01-0006,36,ALT,Alanine Aminotransferase,CHEMISTRY,24.02,U/L,7,56,24.02,24.02,U/L,7,56,NORMAL,,,,,7.0,MONTH 18,TREATMENT,544,MILESTONE 1
BI-1245.110,LB,BI-1245.110-POL_SITE01-0006,37,AST,Aspartate Aminotransferase,CHEMISTRY,29.61,U/L,10,40,29.61,29.61,U/L,10,40,NORMAL,,,,,7.0,MONTH 18,TREATMENT,544,MILESTONE 1
BI-1245.110,LB,BI-1245.110-POL_SITE01-0006,38,CREAT,Creatinine,CHEMISTRY,95.95,umol/L,62,106,95.95,95.95,umol/L,62,106,NORMAL,,,,,7.0,MONTH 18,TREATMENT,544,MILESTONE 1
BI-1245.110,LB,BI-1245.110-POL_SITE01-0006,39,GLUC,Glucose,CHEMISTRY,4.49,mmol/L,3.9,5.6,4.49,4.49,mmol/L,3.9,5.6,NORMAL,,,,,7.0,MONTH 18,TREATMENT,544,MILESTONE 1
BI-1245.110,LB,BI-1245.110-POL_SITE01-0006,40,HGB,Hemoglobin,HEMATOLOGY,136.26,g/L,130,175,136.26,136.26,g/L,130,175,NORMAL,,,,,7.0,MONTH 18,TREATMENT,544,MILESTONE 1
BI-1245.110,LB,BI-1245.110-POL_SITE01-0006,41,PLAT,Platelets,HEMATOLOGY,216.85,10^9/L,150,400,216.85,216.85,10^9/L,150,400,NORMAL,,,,,7.0,MONTH 18,TREATMENT,544,MILESTONE 1
BI-1245.110,LB,BI-1245.110-POL_SITE01-0006,42,WBC,Leukocytes,HEMATOLOGY,7.11,10^9/L,4.0,11.0,7.11,7.11,10^9/L,4.0,11.0,NORMAL,,,,,7.0,MONTH 18,TREATMENT,544,MILESTONE 1
BI-1245.110,LB,BI-1245.110-POL_SITE01-0006,43,ALT,Alanine Aminotransferase,CHEMISTRY,23.47,U/L,7,56,23.47,23.47,U/L,7,56,NORMAL,,,,,9.0,EOT,TREATMENT,819,MILESTONE 1
BI-1245.110,LB,BI-1245.110-POL_SITE01-0006,44,AST,Aspartate Aminotransferase,CHEMISTRY,29.62,U/L,10,40,29.62,29.62,U/L,10,40,NORMAL,,,,,9.0,EOT,TREATMENT,819,MILESTONE 1
BI-1245.110,LB,BI-1245.110-POL_SITE01-0006,45,CREAT,Creatinine,CHEMISTRY,95.64,umol/L,62,106,95.64,95.64,umol/L,62,106,NORMAL,,,,,9.0,EOT,TREATMENT,819,MILESTONE 1
BI-1245.110,LB,BI-1245.110-POL_SITE01-0006,46,GLUC,Glucose,CHEMISTRY,4.51,mmol/L,3.9,5.6,4.51,4.51,mmol/L,3.9,5.6,NORMAL,,,,,9.0,EOT,TREATMENT,819,MILESTONE 1
BI-1245.110,LB,BI-1245.110-POL_SITE01-0006,47,HGB,Hemoglobin,HEMATOLOGY,136.21,g/L,130,175,136.21,136.21,g/L,130,175,NORMAL,,,,,9.0,EOT,TREATMENT,819,MILESTONE 1
BI-1245.110,LB,BI-1245.110-POL_SITE01-0006,48,PLAT,Platelets,HEMATOLOGY,216.8,10^9/L,150,400,216.8,216.8,10^9/L,150,400,NORMAL,,,,,9.0,EOT,TREATMENT,819,MILESTONE 1
BI-1245.110,LB,BI-1245.110-POL_SITE01-0006,49,WBC,Leukocytes,HEMATOLOGY,6.83,10^9/L,4.0,11.0,6.83,6.83,10^9/L,4.0,11.0,NORMAL,,,,,9.0,EOT,TREATMENT,819,MILESTONE 1
BI-1245.110,LB,BI-1245.110-POL_SITE01-0006,50,ALT,Alanine Aminotransferase,CHEMISTRY,,,,,,,,,,,NOT DONE,,,,10.0,SAFETY FU,FOLLOW-UP,831,MILESTONE 1
BI-1245.110,LB,BI-1245.110-POL_SITE01-0006,51,AST,Aspartate Aminotransferase,CHEMISTRY,28.33,U/L,10,40,28.33,28.33,U/L,10,40,NORMAL,,,,,10.0,SAFETY FU,FOLLOW-UP,831,MILESTONE 1
BI-1245.110,LB,BI-1245.110-POL_SITE01-0006,52,CREAT,Creatinine,CHEMISTRY,94.59,umol/L,62,106,94.59,94.59,umol/L,62,106,NORMAL,,,,,10.0,SAFETY FU,FOLLOW-UP,831,MILESTONE 1
BI-1245.110,LB,BI-1245.110-POL_SITE01-0006,53,GLUC,Glucose,CHEMISTRY,,,,,,,,,,,NOT DONE,,,,10.0,SAFETY FU,FOLLOW-UP,831,MILESTONE 1
BI-1245.110,LB,BI-1245.110-POL_SITE01-0006,54,HGB,Hemoglobin,HEMATOLOGY,134.88,g/L,130,175,134.88,134.88,g/L,130,175,NORMAL,,,,,10.0,SAFETY FU,FOLLOW-UP,831,MILESTONE 1
BI-1245.110,LB,BI-1245.110-POL_SITE01-0006,55,PLAT,Platelets,HEMATOLOGY,234.86,10^9/L,150,400,234.86,234.86,10^9/L,150,400,NORMAL,,,,,10.0,SAFETY FU,FOLLOW-UP,831,MILESTONE 1
BI-1245.110,LB,BI-1245.110-POL_SITE01-0006,56,WBC,Leukocytes,HEMATOLOGY,7.09,10^9/L,4.0,11.0,7.09,7.09,10^9/L,4.0,11.0,NORMAL,,,,,10.0,SAFETY FU,FOLLOW-UP,831,MILESTONE 1
BI-1245.110,LB,BI-1245.110-RUS_SITE01-0011,1,ALT,Alanine Aminotransferase,CHEMISTRY,33.01,U/L,7,56,33.01,33.01,U/L,7,56,NORMAL,,,,,1.0,SCREENING,SCREENING,-48,MILESTONE 1
BI-1245.110,LB,BI-1245.110-RUS_SITE01-0011,2,AST,Aspartate Aminotransferase,CHEMISTRY,25.74,U/L,10,40,25.74,25.74,U/L,10,40,NORMAL,,,,,1.0,SCREENING,SCREENING,-48,MILESTONE 1
BI-1245.110,LB,BI-1245.110-RUS_SITE01-0011,3,CREAT,Creatinine,CHEMISTRY,67.85,umol/L,44,80,67.85,67.85,umol/L,44,80,NORMAL,,,,,1.0,SCREENING,SCREENING,-48,MILESTONE 1
BI-1245.110,LB,BI-1245.110-RUS_SITE01-0011,4,GLUC,Glucose,CHEMISTRY,6.58,mmol/L,3.9,5.6,6.58,6.58,mmol/L,3.9,5.6,HIGH,,,,1,1.0,SCREENING,SCREENING,-48,MILESTONE 1
BI-1245.110,LB,BI-1245.110-RUS_SITE01-0011,5,HGB,Hemoglobin,HEMATOLOGY,128.0,g/L,120,155,128.0,128.0,g/L,120,155,NORMAL,,,,,1.0,SCREENING,SCREENING,-48,MILESTONE 1
BI-1245.110,LB,BI-1245.110-RUS_SITE01-0011,6,PLAT,Platelets,HEMATOLOGY,267.47,10^9/L,150,400,267.47,267.47,10^9/L,150,400,NORMAL,,,,,1.0,SCREENING,SCREENING,-48,MILESTONE 1
BI-1245.110,LB,BI-1245.110-RUS_SITE01-0011,7,WBC,Leukocytes,HEMATOLOGY,7.98,10^9/L,4.0,11.0,7.98,7.98,10^9/L,4.0,11.0,NORMAL,,,,,1.0,SCREENING,SCREENING,-48,MILESTONE 1
BI-1245.110,LB,BI-1245.110-RUS_SITE01-0011,8,ALT,Alanine Aminotransferase,CHEMISTRY,35.03,U/L,7,56,35.03,35.03,U/L,7,56,NORMAL,,Y,Y,,2.0,BASELINE,TREATMENT,1,MILESTONE 1
BI-1245.110,LB,BI-1245.110-RUS_SITE01-0011,9,AST,Aspartate Aminotransferase,CHEMISTRY,28.13,U/L,10,40,28.13,28.13,U/L,10,40,NORMAL,,Y,Y,,2.0,BASELINE,TREATMENT,1,MILESTONE 1
BI-1245.110,LB,BI-1245.110-RUS_SITE01-0011,10,CREAT,Creatinine,CHEMISTRY,68.04,umol/L,44,80,68.04,68.04,umol/L,44,80,NORMAL,,Y,Y,,2.0,BASELINE,TREATMENT,1,MILESTONE 1
BI-1245.110,LB,BI-1245.110-RUS_SITE01-0011,11,GLUC,Glucose,CHEMISTRY,6.62,mmol/L,3.9,5.6,6.62,6.62,mmol/L,3.9,5.6,HIGH,,Y,Y,1,2.0,BASELINE,TREATMENT,1,MILESTONE 1
BI-1245.110,LB,BI-1245.110-RUS_SITE01-0011,12,HGB,Hemoglobin,HEMATOLOGY,126.75,g/L,120,155,126.75,126.75,g/L,120,155,NORMAL,,Y,Y,,2.0,BASELINE,TREATMENT,1,MILESTONE 1
BI-1245.110,LB,BI-1245.110-RUS_SITE01-0011,13,PLAT,Platelets,HEMATOLOGY,266.78,10^9/L,150,400,266.78,266.78,10^9/L,150,400,NORMAL,,Y,Y,,2.0,BASELINE,TREATMENT,1,MILESTONE 1
BI-1245.110,LB,BI-1245.110-RUS_SITE01-0011,14,WBC,Leukocytes,HEMATOLOGY,7.89,10^9/L,4.0,11.0,7.89,7.89,10^9/L,4.0,11.0,NORMAL,,Y,Y,,2.0,BASELINE,TREATMENT,1,MILESTONE 1
BI-1245.110,LB,BI-1245.110-RUS_SITE01-0011,15,ALT,Alanine Aminotransferase,CHEMISTRY,33.64,U/L,7,56,33.64,33.64,U/L,7,56,NORMAL,,,,,3.0,WEEK 4,TREATMENT,34,MILESTONE 1
BI-1245.110,LB,BI-1245.110-RUS_SITE01-0011,16,AST,Aspartate Aminotransferase,CHEMISTRY,26.58,U/L,10,40,26.58,26.58,U/L,10,40,NORMAL,,,,,3.0,WEEK 4,TREATMENT,34,MILESTONE 1
BI-1245.110,LB,BI-1245.110-RUS_SITE01-0011,17,CREAT,Creatinine,CHEMISTRY,69.5,umol/L,44,80,69.5,69.5,umol/L,44,80,NORMAL,,,,,3.0,WEEK 4,TREATMENT,34,MILESTONE 1
BI-1245.110,LB,BI-1245.110-RUS_SITE01-0011,18,GLUC,Glucose,CHEMISTRY,6.85,mmol/L,3.9,5.6,6.85,6.85,mmol/L,3.9,5.6,HIGH,,,,1,3.0,WEEK 4,TREATMENT,34,MILESTONE 1
BI-1245.110,LB,BI-1245.110-RUS_SITE01-0011,19,HGB,Hemoglobin,HEMATOLOGY,125.65,g/L,120,155,125.65,125.65,g/L,120,155,NORMAL,,,,,3.0,WEEK 4,TREATMENT,34,MILESTONE 1
BI-1245.110,LB,BI-1245.110-RUS_SITE01-0011,20,PLAT,Platelets,HEMATOLOGY,266.97,10^9/L,150,400,266.97,266.97,10^9/L,150,400,NORMAL,,,,,3.0,WEEK 4,TREATMENT,34,MILESTONE 1
BI-1245.110,LB,BI-1245.110-RUS_SITE01-0011,21,WBC,Leukocytes,HEMATOLOGY,8.89,10^9/L,4.0,11.0,8.89,8.89,10^9/L,4.0,11.0,NORMAL,,,,,3.0,WEEK 4,TREATMENT,34,MILESTONE 1
BI-1245.110,LB,BI-1245.110-RUS_SITE01-0011,22,ALT,Alanine Aminotransferase,CHEMISTRY,34.74,U/L,7,56,34.74,34.74,U/L,7,56,NORMAL,,,,,4.0,WEEK 12,TREATMENT,82,MILESTONE 1
BI-1245.110,LB,BI-1245.110-RUS_SITE01-0011,23,AST,Aspartate Aminotransferase,CHEMISTRY,28.26,U/L,10,40,28.26,28.26,U/L,10,40,NORMAL,,,,,4.0,WEEK 12,TREATMENT,82,MILESTONE 1
BI-1245.110,LB,BI-1245.110-RUS_SITE01-0011,24,CREAT,Creatinine,CHEMISTRY,70.48,umol/L,44,80,70.48,70.48,umol/L,44,80,NORMAL,,,,,4.0,WEEK 12,TREATMENT,82,MILESTONE 1
BI-1245.110,LB,BI-1245.110-RUS_SITE01-0011,25,GLUC,Glucose,CHEMISTRY,6.72,mmol/L,3.9,5.6,6.72,6.72,mmol/L,3.9,5.6,HIGH,,,,1,4.0,WEEK 12,TREATMENT,82,MILESTONE 1
BI-1245.110,LB,BI-1245.110-RUS_SITE01-0011,26,HGB,Hemoglobin,HEMATOLOGY,127.88,g/L,120,155,127.88,127.88,g/L,120,155,NORMAL,,,,,4.0,WEEK 12,TREATMENT,82,MILESTONE 1
BI-1245.110,LB,BI-1245.110-RUS_SITE01-0011,27,PLAT,Platelets,HEMATOLOGY,256.31,10^9/L,150,400,256.31,256.31,10^9/L,150,400,NORMAL,,,,,4.0,WEEK 12,TREATMENT,82,MILESTONE 1
BI-1245.110,LB,BI-1245.110-RUS_SITE01-0011,28,WBC,Leukocytes,HEMATOLOGY,7.62,10^9/L,4.0,11.0,7.62,7.62,10^9/L,4.0,11.0,NORMAL,,,,,4.0,WEEK 12,TREATMENT,82,MILESTONE 1
BI-1245.110,LB,BI-1245.110-RUS_SITE01-0011,29,ALT,Alanine Aminotransferase,CHEMISTRY,,,,,,,,,,,NOT DONE,,,,5.0,MONTH 6,TREATMENT,173,MILESTONE 1
BI-1245.110,LB,BI-1245.110-RUS_SITE01-0011,30,AST,Aspartate Aminotransferase,CHEMISTRY,28.27,U/L,10,40,28.27,28.27,U/L,10,40,NORMAL,,,,,5.0,MONTH 6,TREATMENT,173,MILESTONE 1
BI-1245.110,LB,BI-1245.110-RUS_SITE01-0011,31,CREAT,Creatinine,CHEMISTRY,68.64,umol/L,44,80,68.64,68.64,umol/L,44,80,NORMAL,,,,,5.0,MONTH 6,TREATMENT,173,MILESTONE 1
BI-1245.110,LB,BI-1245.110-RUS_SITE01-0011,32,GLUC,Glucose,CHEMISTRY,6.48,mmol/L,3.9,5.6,6.48,6.48,mmol/L,3.9,5.6,HIGH,,,,1,5.0,MONTH 6,TREATMENT,173,MILESTONE 1
BI-1245.110,LB,BI-1245.110-RUS_SITE01-0011,33,HGB,Hemoglobin,HEMATOLOGY,125.2,g/L,120,155,125.2,125.2,g/L,120,155,NORMAL,,,,,5.0,MONTH 6,TREATMENT,173,MILESTONE 1
BI-1245.110,LB,BI-1245.110-RUS_SITE01-0011,34,PLAT,Platelets,HEMATOLOGY,263.25,10^9/L,150,400,263.25,263.25,10^9/L,150,400,NORMAL,,,,,5.0,MONTH 6,TREATMENT,173,MILESTONE 1
BI-1245.110,LB,BI-1245.110-RUS_SITE01-0011,35,WBC,Leukocytes,HEMATOLOGY,7.84,10^9/L,4.0,11.0,7.84,7.84,10^9/L,4.0,11.0,NORMAL,,,,,5.0,MONTH 6,TREATMENT,173,MILESTONE 1
BI-1245.110,LB,BI-1245.110-RUS_SITE01-0011,36,ALT,Alanine Aminotransferase,CHEMISTRY,34.83,U/L,7,56,34.83,34.83,U/L,7,56,NORMAL,,,,,6.0,MONTH 12,TREATMENT,375,MILESTONE 1
BI-1245.110,LB,BI-1245.110-RUS_SITE01-0011,37,AST,Aspartate Aminotransferase,CHEMISTRY,26.77,U/L,10,40,26.77,26.77,U/L,10,40,NORMAL,,,,,6.0,MONTH 12,TREATMENT,375,MILESTONE 1
BI-1245.110,LB,BI-1245.110-RUS_SITE01-0011,38,CREAT,Creatinine,CHEMISTRY,66.81,umol/L,44,80,66.81,66.81,umol/L,44,80,NORMAL,,,,,6.0,MONTH 12,TREATMENT,375,MILESTONE 1
BI-1245.110,LB,BI-1245.110-RUS_SITE01-0011,39,GLUC,Glucose,CHEMISTRY,6.47,mmol/L,3.9,5.6,6.47,6.47,mmol/L,3.9,5.6,HIGH,,,,1,6.0,MONTH 12,TREATMENT,375,MILESTONE 1
BI-1245.110,LB,BI-1245.110-RUS_SITE01-0011,40,HGB,Hemoglobin,HEMATOLOGY,,,,,,,,,,,NOT DONE,,,,6.0,MONTH 12,TREATMENT,375,MILESTONE 1
BI-1245.110,LB,BI-1245.110-RUS_SITE01-0011,41,PLAT,Platelets,HEMATOLOGY,,,,,,,,,,,NOT DONE,,,,6.0,MONTH 12,TREATMENT,375,MILESTONE 1
BI-1245.110,LB,BI-1245.110-RUS_SITE01-0011,42,WBC,Leukocytes,HEMATOLOGY,7.85,10^9/L,4.0,11.0,7.85,7.85,10^9/L,4.0,11.0,NORMAL,,,,,6.0,MONTH 12,TREATMENT,375,MILESTONE 1
BI-1245.110,LB,BI-1245.110-RUS_SITE01-0011,43,ALT,Alanine Aminotransferase,CHEMISTRY,33.59,U/L,7,56,33.59,33.59,U/L,7,56,NORMAL,,,,,7.0,MONTH 18,TREATMENT,533,MILESTONE 1
BI-1245.110,LB,BI-1245.110-RUS_SITE01-0011,44,AST,Aspartate Aminotransferase,CHEMISTRY,25.73,U/L,10,40,25.73,25.73,U/L,10,40,NORMAL,,,,,7.0,MONTH 18,TREATMENT,533,MILESTONE 1
BI-1245.110,LB,BI-1245.110-RUS_SITE01-0011,45,CREAT,Creatinine,CHEMISTRY,67.99,umol/L,44,80,67.99,67.99,umol/L,44,80,NORMAL,,,,,7.0,MONTH 18,TREATMENT,533,MILESTONE 1
BI-1245.110,LB,BI-1245.110-RUS_SITE01-0011,46,GLUC,Glucose,CHEMISTRY,6.66,mmol/L,3.9,5.6,6.66,6.66,mmol/L,3.9,5.6,HIGH,,,,1,7.0,MONTH 18,TREATMENT,533,MILESTONE 1
BI-1245.110,LB,BI-1245.110-RUS_SITE01-0011,47,HGB,Hemoglobin,HEMATOLOGY,124.43,g/L,120,155,124.43,124.43,g/L,120,155,NORMAL,,,,,7.0,MONTH 18,TREATMENT,533,MILESTONE 1
BI-1245.110,LB,BI-1245.110-RUS_SITE01-0011,48,PLAT,Platelets,HEMATOLOGY,257.83,10^9/L,150,400,257.83,257.83,10^9/L,150,400,NORMAL,,,,,7.0,MONTH 18,TREATMENT,533,MILESTONE 1
BI-1245.110,LB,BI-1245.110-RUS_SITE01-0011,49,WBC,Leukocytes,HEMATOLOGY,8.1,10^9/L,4.0,11.0,8.1,8.1,10^9/L,4.0,11.0,NORMAL,,,,,7.0,MONTH 18,TREATMENT,533,MILESTONE 1
BI-1245.110,LB,BI-1245.110-RUS_SITE01-0011,50,ALT,Alanine Aminotransferase,CHEMISTRY,33.98,U/L,7,56,33.98,33.98,U/L,7,56,NORMAL,,,,,8.0,MONTH 24,TREATMENT,735,MILESTONE 1
BI-1245.110,LB,BI-1245.110-RUS_SITE01-0011,51,AST,Aspartate Aminotransferase,CHEMISTRY,24.63,U/L,10,40,24.63,24.63,U/L,10,40,NORMAL,,,,,8.0,MONTH 24,TREATMENT,735,MILESTONE 1
BI-1245.110,LB,BI-1245.110-RUS_SITE01-0011,52,CREAT,Creatinine,CHEMISTRY,64.13,umol/L,44,80,64.13,64.13,umol/L,44,80,NORMAL,,,,,8.0,MONTH 24,TREATMENT,735,MILESTONE 1
BI-1245.110,LB,BI-1245.110-RUS_SITE01-0011,53,GLUC,Glucose,CHEMISTRY,6.64,mmol/L,3.9,5.6,6.64,6.64,mmol/L,3.9,5.6,HIGH,,,,1,8.0,MONTH 24,TREATMENT,735,MILESTONE 1
BI-1245.110,LB,BI-1245.110-RUS_SITE01-0011,54,HGB,Hemoglobin,HEMATOLOGY,125.13,g/L,120,155,125.13,125.13,g/L,120,155,NORMAL,,,,,8.0,MONTH 24,TREATMENT,735,MILESTONE 1
BI-1245.110,LB,BI-1245.110-RUS_SITE01-0011,55,PLAT,Platelets,HEMATOLOGY,270.14,10^9/L,150,400,270.14,270.14,10^9/L,150,400,NORMAL,,,,,8.0,MONTH 24,TREATMENT,735,MILESTONE 1
BI-1245.110,LB,BI-1245.110-RUS_SITE01-0011,56,WBC,Leukocytes,HEMATOLOGY,10.5,10^9/L,4.0,11.0,10.5,10.5,10^9/L,4.0,11.0,NORMAL,,,,,8.0,MONTH 24,TREATMENT,735,MILESTONE 1
BI-1245.110,LB,BI-1245.110-RUS_SITE01-0011,57,ALT,Alanine Aminotransferase,CHEMISTRY,33.1,U/L,7,56,33.1,33.1,U/L,7,56,NORMAL,,,,,9.0,EOT,TREATMENT,798,MILESTONE 1
BI-1245.110,LB,BI-1245.110-RUS_SITE01-0011,58,AST,Aspartate Aminotransferase,CHEMISTRY,25.02,U/L,10,40,25.02,25.02,U/L,10,40,NORMAL,,,,,9.0,EOT,TREATMENT,798,MILESTONE 1
BI-1245.110,LB,BI-1245.110-RUS_SITE01-0011,59,CREAT,Creatinine,CHEMISTRY,63.81,umol/L,44,80,63.81,63.81,umol/L,44,80,NORMAL,,,,,9.0,EOT,TREATMENT,798,MILESTONE 1
BI-1245.110,LB,BI-1245.110-RUS_SITE01-0011,60,GLUC,Glucose,CHEMISTRY,6.58,mmol/L,3.9,5.6,6.58,6.58,mmol/L,3.9,5.6,HIGH,,,,1,9.0,EOT,TREATMENT,798,MILESTONE 1
BI-1245.110,LB,BI-1245.110-RUS_SITE01-0011,61,HGB,Hemoglobin,HEMATOLOGY,125.17,g/L,120,155,125.17,125.17,g/L,120,155,NORMAL,,,,,9.0,EOT,TREATMENT,798,MILESTONE 1
BI-1245.110,LB,BI-1245.110-RUS_SITE01-0011,62,PLAT,Platelets,HEMATOLOGY,275.47,10^9/L,150,400,275.47,275.47,10^9/L,150,400,NORMAL,,,,,9.0,EOT,TREATMENT,798,MILESTONE 1
BI-1245.110,LB,BI-1245.110-RUS_SITE01-0011,63,WBC,Leukocytes,HEMATOLOGY,,,,,,,,,,,NOT DONE,,,,9.0,EOT,TREATMENT,798,MILESTONE 1
BI-1245.110,LB,BI-1245.110-USA_SITE01-0005,1,ALT,Alanine Aminotransferase,CHEMISTRY,36.82,U/L,7,56,36.82,36.82,U/L,7,56,NORMAL,,,,,1.0,SCREENING,SCREENING,-49,MILESTONE 1
BI-1245.110,LB,BI-1245.110-USA_SITE01-0005,2,AST,Aspartate Aminotransferase,CHEMISTRY,35.56,U/L,10,40,35.56,35.56,U/L,10,40,NORMAL,,,,,1.0,SCREENING,SCREENING,-49,MILESTONE 1
BI-1245.110,LB,BI-1245.110-USA_SITE01-0005,3,CREAT,Creatinine,CHEMISTRY,61.78,umol/L,44,80,61.78,61.78,umol/L,44,80,NORMAL,,,,,1.0,SCREENING,SCREENING,-49,MILESTONE 1
BI-1245.110,LB,BI-1245.110-USA_SITE01-0005,4,GLUC,Glucose,CHEMISTRY,6.11,mmol/L,3.9,5.6,6.11,6.11,mmol/L,3.9,5.6,HIGH,,,,1,1.0,SCREENING,SCREENING,-49,MILESTONE 1
BI-1245.110,LB,BI-1245.110-USA_SITE01-0005,5,HGB,Hemoglobin,HEMATOLOGY,125.15,g/L,120,155,125.15,125.15,g/L,120,155,NORMAL,,,,,1.0,SCREENING,SCREENING,-49,MILESTONE 1
BI-1245.110,LB,BI-1245.110-USA_SITE01-0005,6,PLAT,Platelets,HEMATOLOGY,255.72,10^9/L,150,400,255.72,255.72,10^9/L,150,400,NORMAL,,,,,1.0,SCREENING,SCREENING,-49,MILESTONE 1
BI-1245.110,LB,BI-1245.110-USA_SITE01-0005,7,WBC,Leukocytes,HEMATOLOGY,5.3,10^9/L,4.0,11.0,5.3,5.3,10^9/L,4.0,11.0,NORMAL,,,,,1.0,SCREENING,SCREENING,-49,MILESTONE 1
BI-1245.110,LB,BI-1245.110-USA_SITE01-0005,8,ALT,Alanine Aminotransferase,CHEMISTRY,35.16,U/L,7,56,35.16,35.16,U/L,7,56,NORMAL,,Y,Y,,2.0,BASELINE,TREATMENT,1,MILESTONE 1
BI-1245.110,LB,BI-1245.110-USA_SITE01-0005,9,AST,Aspartate Aminotransferase,CHEMISTRY,37.13,U/L,10,40,37.13,37.13,U/L,10,40,NORMAL,,Y,Y,,2.0,BASELINE,TREATMENT,1,MILESTONE 1
BI-1245.110,LB,BI-1245.110-USA_SITE01-0005,10,CREAT,Creatinine,CHEMISTRY,62.69,umol/L,44,80,62.69,62.69,umol/L,44,80,NORMAL,,Y,Y,,2.0,BASELINE,TREATMENT,1,MILESTONE 1
BI-1245.110,LB,BI-1245.110-USA_SITE01-0005,11,GLUC,Glucose,CHEMISTRY,6.08,mmol/L,3.9,5.6,6.08,6.08,mmol/L,3.9,5.6,HIGH,,Y,Y,1,2.0,BASELINE,TREATMENT,1,MILESTONE 1
BI-1245.110,LB,BI-1245.110-USA_SITE01-0005,12,HGB,Hemoglobin,HEMATOLOGY,127.58,g/L,120,155,127.58,127.58,g/L,120,155,NORMAL,,Y,Y,,2.0,BASELINE,TREATMENT,1,MILESTONE 1
BI-1245.110,LB,BI-1245.110-USA_SITE01-0005,13,PLAT,Platelets,HEMATOLOGY,272.67,10^9/L,150,400,272.67,272.67,10^9/L,150,400,NORMAL,,Y,Y,,2.0,BASELINE,TREATMENT,1,MILESTONE 1
BI-1245.110,LB,BI-1245.110-USA_SITE01-0005,14,WBC,Leukocytes,HEMATOLOGY,5.93,10^9/L,4.0,11.0,5.93,5.93,10^9/L,4.0,11.0,NORMAL,,Y,Y,,2.0,BASELINE,TREATMENT,1,MILESTONE 1
BI-1245.110,LB,BI-1245.110-USA_SITE01-0005,15,ALT,Alanine Aminotransferase,CHEMISTRY,36.37,U/L,7,56,36.37,36.37,U/L,7,56,NORMAL,,,,,3.0,WEEK 4,TREATMENT,31,MILESTONE 1
BI-1245.110,LB,BI-1245.110-USA_SITE01-0005,16,AST,Aspartate Aminotransferase,CHEMISTRY,38.18,U/L,10,40,38.18,38.18,U/L,10,40,NORMAL,,,,,3.0,WEEK 4,TREATMENT,31,MILESTONE 1
BI-1245.110,LB,BI-1245.110-USA_SITE01-0005,17,CREAT,Creatinine,CHEMISTRY,64.15,umol/L,44,80,64.15,64.15,umol/L,44,80,NORMAL,,,,,3.0,WEEK 4,TREATMENT,31,MILESTONE 1
BI-1245.110,LB,BI-1245.110-USA_SITE01-0005,18,GLUC,Glucose,CHEMISTRY,6.23,mmol/L,3.9,5.6,6.23,6.23,mmol/L,3.9,5.6,HIGH,,,,1,3.0,WEEK 4,TREATMENT,31,MILESTONE 1
BI-1245.110,LB,BI-1245.110-USA_SITE01-0005,19,HGB,Hemoglobin,HEMATOLOGY,129.15,g/L,120,155,129.15,129.15,g/L,120,155,NORMAL,,,,,3.0,WEEK 4,TREATMENT,31,MILESTONE 1
BI-1245.110,LB,BI-1245.110-USA_SITE01-0005,20,PLAT,Platelets,HEMATOLOGY,251.32,10^9/L,150,400,251.32,251.32,10^9/L,150,400,NORMAL,,,,,3.0,WEEK 4,TREATMENT,31,MILESTONE 1
BI-1245.110,LB,BI-1245.110-USA_SITE01-0005,21,WBC,Leukocytes,HEMATOLOGY,5.49,10^9/L,4.0,11.0,5.49,5.49,10^9/L,4.0,11.0,NORMAL,,,,,3.0,WEEK 4,TREATMENT,31,MILESTONE 1
BI-1245.110,LB,BI-1245.110-USA_SITE01-0005,22,ALT,Alanine Aminotransferase,CHEMISTRY,36.75,U/L,7,56,36.75,36.75,U/L,7,56,NORMAL,,,,,4.0,WEEK 12,TREATMENT,85,MILESTONE 1
BI-1245.110,LB,BI-1245.110-USA_SITE01-0005,23,AST,Aspartate Aminotransferase,CHEMISTRY,34.27,U/L,10,40,34.27,34.27,U/L,10,40,NORMAL,,,,,4.0,WEEK 12,TREATMENT,85,MILESTONE 1
BI-1245.110,LB,BI-1245.110-USA_SITE01-0005,24,CREAT,Creatinine,CHEMISTRY,60.59,umol/L,44,80,60.59,60.59,umol/L,44,80,NORMAL,,,,,4.0,WEEK 12,TREATMENT,85,MILESTONE 1
BI-1245.110,LB,BI-1245.110-USA_SITE01-0005,25,GLUC,Glucose,CHEMISTRY,6.04,mmol/L,3.9,5.6,6.04,6.04,mmol/L,3.9,5.6,HIGH,,,,1,4.0,WEEK 12,TREATMENT,85,MILESTONE 1
BI-1245.110,LB,BI-1245.110-USA_SITE01-0005,26,HGB,Hemoglobin,HEMATOLOGY,127.84,g/L,120,155,127.84,127.84,g/L,120,155,NORMAL,,,,,4.0,WEEK 12,TREATMENT,85,MILESTONE 1
BI-1245.110,LB,BI-1245.110-USA_SITE01-0005,27,PLAT,Platelets,HEMATOLOGY,246.97,10^9/L,150,400,246.97,246.97,10^9/L,150,400,NORMAL,,,,,4.0,WEEK 12,TREATMENT,85,MILESTONE 1
BI-1245.110,LB,BI-1245.110-USA_SITE01-0005,28,WBC,Leukocytes,HEMATOLOGY,,,,,,,,,,,NOT DONE,,,,4.0,WEEK 12,TREATMENT,85,MILESTONE 1
BI-1245.110,LB,BI-1245.110-USA_SITE01-0005,29,ALT,Alanine Aminotransferase,CHEMISTRY,35.4,U/L,7,56,35.4,35.4,U/L,7,56,NORMAL,,,,,5.0,MONTH 6,TREATMENT,197,MILESTONE 1
BI-1245.110,LB,BI-1245.110-USA_SITE01-0005,30,AST,Aspartate Aminotransferase,CHEMISTRY,35.34,U/L,10,40,35.34,35.34,U/L,10,40,NORMAL,,,,,5.0,MONTH 6,TREATMENT,197,MILESTONE 1
BI-1245.110,LB,BI-1245.110-USA_SITE01-0005,31,CREAT,Creatinine,CHEMISTRY,62.49,umol/L,44,80,62.49,62.49,umol/L,44,80,NORMAL,,,,,5.0,MONTH 6,TREATMENT,197,MILESTONE 1
BI-1245.110,LB,BI-1245.110-USA_SITE01-0005,32,GLUC,Glucose,CHEMISTRY,6.12,mmol/L,3.9,5.6,6.12,6.12,mmol/L,3.9,5.6,HIGH,,,,1,5.0,MONTH 6,TREATMENT,197,MILESTONE 1
BI-1245.110,LB,BI-1245.110-USA_SITE01-0005,33,HGB,Hemoglobin,HEMATOLOGY,129.31,g/L,120,155,129.31,129.31,g/L,120,155,NORMAL,,,,,5.0,MONTH 6,TREATMENT,197,MILESTONE 1
BI-1245.110,LB,BI-1245.110-USA_SITE01-0005,34,PLAT,Platelets,HEMATOLOGY,259.43,10^9/L,150,400,259.43,259.43,10^9/L,150,400,NORMAL,,,,,5.0,MONTH 6,TREATMENT,197,MILESTONE 1
BI-1245.110,LB,BI-1245.110-USA_SITE01-0005,35,WBC,Leukocytes,HEMATOLOGY,7.61,10^9/L,4.0,11.0,7.61,7.61,10^9/L,4.0,11.0,NORMAL,,,,,5.0,MONTH 6,TREATMENT,197,MILESTONE 1
BI-1245.110,LB,BI-1245.110-USA_SITE01-0005,36,ALT,Alanine Aminotransferase,CHEMISTRY,,,,,,,,,,,NOT DONE,,,,6.0,MONTH 12,TREATMENT,375,MILESTONE 1
BI-1245.110,LB,BI-1245.110-USA_SITE01-0005,37,AST,Aspartate Aminotransferase,CHEMISTRY,33.85,U/L,10,40,33.85,33.85,U/L,10,40,NORMAL,,,,,6.0,MONTH 12,TREATMENT,375,MILESTONE 1
BI-1245.110,LB,BI-1245.110-USA_SITE01-0005,38,CREAT,Creatinine,CHEMISTRY,61.43,umol/L,44,80,61.43,61.43,umol/L,44,80,NORMAL,,,,,6.0,MONTH 12,TREATMENT,375,MILESTONE 1
BI-1245.110,LB,BI-1245.110-USA_SITE01-0005,39,GLUC,Glucose,CHEMISTRY,6.11,mmol/L,3.9,5.6,6.11,6.11,mmol/L,3.9,5.6,HIGH,,,,1,6.0,MONTH 12,TREATMENT,375,MILESTONE 1
BI-1245.110,LB,BI-1245.110-USA_SITE01-0005,40,HGB,Hemoglobin,HEMATOLOGY,129.62,g/L,120,155,129.62,129.62,g/L,120,155,NORMAL,,,,,6.0,MONTH 12,TREATMENT,375,MILESTONE 1
BI-1245.110,LB,BI-1245.110-USA_SITE01-0005,41,PLAT,Platelets,HEMATOLOGY,264.43,10^9/L,150,400,264.43,264.43,10^9/L,150,400,NORMAL,,,,,6.0,MONTH 12,TREATMENT,375,MILESTONE 1
BI-1245.110,LB,BI-1245.110-USA_SITE01-0005,42,WBC,Leukocytes,HEMATOLOGY,4.45,10^9/L,4.0,11.0,4.45,4.45,10^9/L,4.0,11.0,NORMAL,,,,,6.0,MONTH 12,TREATMENT,375,MILESTONE 1
BI-1245.110,LB,BI-1245.110-USA_SITE01-0005,43,ALT,Alanine Aminotransferase,CHEMISTRY,34.34,U/L,7,56,34.34,34.34,U/L,7,56,NORMAL,,,,,7.0,MONTH 18,TREATMENT,557,MILESTONE 1
BI-1245.110,LB,BI-1245.110-USA_SITE01-0005,44,AST,Aspartate Aminotransferase,CHEMISTRY,35.75,U/L,10,40,35.75,35.75,U/L,10,40,NORMAL,,,,,7.0,MONTH 18,TREATMENT,557,MILESTONE 1
BI-1245.110,LB,BI-1245.110-USA_SITE01-0005,45,CREAT,Creatinine,CHEMISTRY,60.93,umol/L,44,80,60.93,60.93,umol/L,44,80,NORMAL,,,,,7.0,MONTH 18,TREATMENT,557,MILESTONE 1
BI-1245.110,LB,BI-1245.110-USA_SITE01-0005,46,GLUC,Glucose,CHEMISTRY,6.26,mmol/L,3.9,5.6,6.26,6.26,mmol/L,3.9,5.6,HIGH,,,,1,7.0,MONTH 18,TREATMENT,557,MILESTONE 1
BI-1245.110,LB,BI-1245.110-USA_SITE01-0005,47,HGB,Hemoglobin,HEMATOLOGY,129.99,g/L,120,155,129.99,129.99,g/L,120,155,NORMAL,,,,,7.0,MONTH 18,TREATMENT,557,MILESTONE 1
BI-1245.110,LB,BI-1245.110-USA_SITE01-0005,48,PLAT,Platelets,HEMATOLOGY,250.72,10^9/L,150,400,250.72,250.72,10^9/L,150,400,NORMAL,,,,,7.0,MONTH 18,TREATMENT,557,MILESTONE 1
BI-1245.110,LB,BI-1245.110-USA_SITE01-0005,49,WBC,Leukocytes,HEMATOLOGY,5.19,10^9/L,4.0,11.0,5.19,5.19,10^9/L,4.0,11.0,NORMAL,,,,,7.0,MONTH 18,TREATMENT,557,MILESTONE 1
BI-1245.110,LB,BI-1245.110-USA_SITE01-0005,50,ALT,Alanine Aminotransferase,CHEMISTRY,33.03,U/L,7,56,33.03,33.03,U/L,7,56,NORMAL,,,,,8.0,MONTH 24,TREATMENT,723,MILESTONE 1
BI-1245.110,LB,BI-1245.110-USA_SITE01-0005,51,AST,Aspartate Aminotransferase,CHEMISTRY,37.12,U/L,10,40,37.12,37.12,U/L,10,40,NORMAL,,,,,8.0,MONTH 24,TREATMENT,723,MILESTONE 1
BI-1245.110,LB,BI-1245.110-USA_SITE01-0005,52,CREAT,Creatinine,CHEMISTRY,60.39,umol/L,44,80,60.39,60.39,umol/L,44,80,NORMAL,,,,,8.0,MONTH 24,TREATMENT,723,MILESTONE 1
BI-1245.110,LB,BI-1245.110-USA_SITE01-0005,53,GLUC,Glucose,CHEMISTRY,6.16,mmol/L,3.9,5.6,6.16,6.16,mmol/L,3.9,5.6,HIGH,,,,1,8.0,MONTH 24,TREATMENT,723,MILESTONE 1
BI-1245.110,LB,BI-1245.110-USA_SITE01-0005,54,HGB,Hemoglobin,HEMATOLOGY,,,,,,,,,,,NOT DONE,,,,8.0,MONTH 24,TREATMENT,723,MILESTONE 1
BI-1245.110,LB,BI-1245.110-USA_SITE01-0005,55,PLAT,Platelets,HEMATOLOGY,236.58,10^9/L,150,400,236.58,236.58,10^9/L,150,400,NORMAL,,,,,8.0,MONTH 24,TREATMENT,723,MILESTONE 1
BI-1245.110,LB,BI-1245.110-USA_SITE01-0005,56,WBC,Leukocytes,HEMATOLOGY,5.82,10^9/L,4.0,11.0,5.82,5.82,10^9/L,4.0,11.0,NORMAL,,,,,8.0,MONTH 24,TREATMENT,723,MILESTONE 1
BI-1245.110,LB,BI-1245.110-USA_SITE01-0005,57,ALT,Alanine Aminotransferase,CHEMISTRY,,,,,,,,,,,NOT DONE,,,,9.0,EOT,TREATMENT,800,MILESTONE 1
BI-1245.110,LB,BI-1245.110-USA_SITE01-0005,58,AST,Aspartate Aminotransferase,CHEMISTRY,37.92,U/L,10,40,37.92,37.92,U/L,10,40,NORMAL,,,,,9.0,EOT,TREATMENT,800,MILESTONE 1
BI-1245.110,LB,BI-1245.110-USA_SITE01-0005,59,CREAT,Creatinine,CHEMISTRY,60.34,umol/L,44,80,60.34,60.34,umol/L,44,80,NORMAL,,,,,9.0,EOT,TREATMENT,800,MILESTONE 1
BI-1245.110,LB,BI-1245.110-USA_SITE01-0005,60,GLUC,Glucose,CHEMISTRY,6.32,mmol/L,3.9,5.6,6.32,6.32,mmol/L,3.9,5.6,HIGH,,,,1,9.0,EOT,TREATMENT,800,MILESTONE 1
BI-1245.110,LB,BI-1245.110-USA_SITE01-0005,61,HGB,Hemoglobin,HEMATOLOGY,129.32,g/L,120,155,129.32,129.32,g/L,120,155,NORMAL,,,,,9.0,EOT,TREATMENT,800,MILESTONE 1
BI-1245.110,LB,BI-1245.110-USA_SITE01-0005,62,PLAT,Platelets,HEMATOLOGY,,,,,,,,,,,NOT DONE,,,,9.0,EOT,TREATMENT,800,MILESTONE 1
BI-1245.110,LB,BI-1245.110-USA_SITE01-0005,63,WBC,Leukocytes,HEMATOLOGY,5.21,10^9/L,4.0,11.0,5.21,5.21,10^9/L,4.0,11.0,NORMAL,,,,,9.0,EOT,TREATMENT,800,MILESTONE 1
BI-1245.110,LB,BI-1245.110-USA_SITE01-0018,1,ALT,Alanine Aminotransferase,CHEMISTRY,20.91,U/L,7,56,20.91,20.91,U/L,7,56,NORMAL,,,,,1.0,SCREENING,SCREENING,-30,MILESTONE 1
BI-1245.110,LB,BI-1245.110-USA_SITE01-0018,2,AST,Aspartate Aminotransferase,CHEMISTRY,5.0,U/L,10,40,5.0,5.0,U/L,10,40,LOW,,,,3,1.0,SCREENING,SCREENING,-30,MILESTONE 1
BI-1245.110,LB,BI-1245.110-USA_SITE01-0018,3,CREAT,Creatinine,CHEMISTRY,56.58,umol/L,44,80,56.58,56.58,umol/L,44,80,NORMAL,,,,,1.0,SCREENING,SCREENING,-30,MILESTONE 1
BI-1245.110,LB,BI-1245.110-USA_SITE01-0018,4,GLUC,Glucose,CHEMISTRY,6.49,mmol/L,3.9,5.6,6.49,6.49,mmol/L,3.9,5.6,HIGH,,,,1,1.0,SCREENING,SCREENING,-30,MILESTONE 1
BI-1245.110,LB,BI-1245.110-USA_SITE01-0018,5,HGB,Hemoglobin,HEMATOLOGY,136.89,g/L,120,155,136.89,136.89,g/L,120,155,NORMAL,,,,,1.0,SCREENING,SCREENING,-30,MILESTONE 1
BI-1245.110,LB,BI-1245.110-USA_SITE01-0018,6,PLAT,Platelets,HEMATOLOGY,163.48,10^9/L,150,400,163.48,163.48,10^9/L,150,400,NORMAL,,,,,1.0,SCREENING,SCREENING,-30,MILESTONE 1
BI-1245.110,LB,BI-1245.110-USA_SITE01-0018,7,WBC,Leukocytes,HEMATOLOGY,7.63,10^9/L,4.0,11.0,7.63,7.63,10^9/L,4.0,11.0,NORMAL,,Y,Y,,1.0,SCREENING,SCREENING,-30,MILESTONE 1
BI-1245.110,LB,BI-1245.110-USA_SITE01-0018,8,ALT,Alanine Aminotransferase,CHEMISTRY,21.62,U/L,7,56,21.62,21.62,U/L,7,56,NORMAL,,Y,Y,,2.0,BASELINE,TREATMENT,1,MILESTONE 1
BI-1245.110,LB,BI-1245.110-USA_SITE01-0018,9,AST,Aspartate Aminotransferase,CHEMISTRY,5.0,U/L,10,40,5.0,5.0,U/L,10,40,LOW,,Y,Y,3,2.0,BASELINE,TREATMENT,1,MILESTONE 1
BI-1245.110,LB,BI-1245.110-USA_SITE01-0018,10,CREAT,Creatinine,CHEMISTRY,57.96,umol/L,44,80,57.96,57.96,umol/L,44,80,NORMAL,,Y,Y,,2.0,BASELINE,TREATMENT,1,MILESTONE 1
BI-1245.110,LB,BI-1245.110-USA_SITE01-0018,11,GLUC,Glucose,CHEMISTRY,6.62,mmol/L,3.9,5.6,6.62,6.62,mmol/L,3.9,5.6,HIGH,,Y,Y,1,2.0,BASELINE,TREATMENT,1,MILESTONE 1
BI-1245.110,LB,BI-1245.110-USA_SITE01-0018,12,HGB,Hemoglobin,HEMATOLOGY,136.56,g/L,120,155,136.56,136.56,g/L,120,155,NORMAL,,Y,Y,,2.0,BASELINE,TREATMENT,1,MILESTONE 1
BI-1245.110,LB,BI-1245.110-USA_SITE01-0018,13,PLAT,Platelets,HEMATOLOGY,167.57,10^9/L,150,400,167.57,167.57,10^9/L,150,400,NORMAL,,Y,Y,,2.0,BASELINE,TREATMENT,1,MILESTONE 1
BI-1245.110,LB,BI-1245.110-USA_SITE01-0018,14,WBC,Leukocytes,HEMATOLOGY,,,,,,,,,,,NOT DONE,,,,2.0,BASELINE,TREATMENT,1,MILESTONE 1
BI-1245.110,LB,BI-1245.110-USA_SITE02-0002,1,ALT,Alanine Aminotransferase,CHEMISTRY,8.16,U/L,7,56,8.16,8.16,U/L,7,56,NORMAL,,,,,1.0,SCREENING,SCREENING,-44,MILESTONE 1
BI-1245.110,LB,BI-1245.110-USA_SITE02-0002,2,AST,Aspartate Aminotransferase,CHEMISTRY,,,,,,,,,,,NOT DONE,,,,1.0,SCREENING,SCREENING,-44,MILESTONE 1
BI-1245.110,LB,BI-1245.110-USA_SITE02-0002,3,CREAT,Creatinine,CHEMISTRY,30.56,umol/L,62,106,30.56,30.56,umol/L,62,106,LOW,,Y,Y,3,1.0,SCREENING,SCREENING,-44,MILESTONE 1
BI-1245.110,LB,BI-1245.110-USA_SITE02-0002,4,GLUC,Glucose,CHEMISTRY,7.42,mmol/L,3.9,5.6,7.42,7.42,mmol/L,3.9,5.6,HIGH,,,,1,1.0,SCREENING,SCREENING,-44,MILESTONE 1
BI-1245.110,LB,BI-1245.110-USA_SITE02-0002,5,HGB,Hemoglobin,HEMATOLOGY,126.26,g/L,130,175,126.26,126.26,g/L,130,175,LOW,,,,1,1.0,SCREENING,SCREENING,-44,MILESTONE 1
BI-1245.110,LB,BI-1245.110-USA_SITE02-0002,6,PLAT,Platelets,HEMATOLOGY,192.19,10^9/L,150,400,192.19,192.19,10^9/L,150,400,NORMAL,,,,,1.0,SCREENING,SCREENING,-44,MILESTONE 1
BI-1245.110,LB,BI-1245.110-USA_SITE02-0002,7,WBC,Leukocytes,HEMATOLOGY,8.79,10^9/L,4.0,11.0,8.79,8.79,10^9/L,4.0,11.0,NORMAL,,,,,1.0,SCREENING,SCREENING,-44,MILESTONE 1
BI-1245.110,LB,BI-1245.110-USA_SITE02-0002,8,ALT,Alanine Aminotransferase,CHEMISTRY,7.37,U/L,7,56,7.37,7.37,U/L,7,56,NORMAL,,Y,Y,,2.0,BASELINE,TREATMENT,1,MILESTONE 1
BI-1245.110,LB,BI-1245.110-USA_SITE02-0002,9,AST,Aspartate Aminotransferase,CHEMISTRY,13.8,U/L,10,40,13.8,13.8,U/L,10,40,NORMAL,,Y,Y,,2.0,BASELINE,TREATMENT,1,MILESTONE 1
BI-1245.110,LB,BI-1245.110-USA_SITE02-0002,10,CREAT,Creatinine,CHEMISTRY,,,,,,,,,,,NOT DONE,,,,2.0,BASELINE,TREATMENT,1,MILESTONE 1
BI-1245.110,LB,BI-1245.110-USA_SITE02-0002,11,GLUC,Glucose,CHEMISTRY,7.42,mmol/L,3.9,5.6,7.42,7.42,mmol/L,3.9,5.6,HIGH,,Y,Y,1,2.0,BASELINE,TREATMENT,1,MILESTONE 1
BI-1245.110,LB,BI-1245.110-USA_SITE02-0002,12,HGB,Hemoglobin,HEMATOLOGY,126.71,g/L,130,175,126.71,126.71,g/L,130,175,LOW,,Y,Y,1,2.0,BASELINE,TREATMENT,1,MILESTONE 1
BI-1245.110,LB,BI-1245.110-USA_SITE02-0002,13,PLAT,Platelets,HEMATOLOGY,200.56,10^9/L,150,400,200.56,200.56,10^9/L,150,400,NORMAL,,Y,Y,,2.0,BASELINE,TREATMENT,1,MILESTONE 1
BI-1245.110,LB,BI-1245.110-USA_SITE02-0002,14,WBC,Leukocytes,HEMATOLOGY,8.73,10^9/L,4.0,11.0,8.73,8.73,10^9/L,4.0,11.0,NORMAL,,Y,Y,,2.0,BASELINE,TREATMENT,1,MILESTONE 1
BI-1245.110,LB,BI-1245.110-USA_SITE02-0002,15,ALT,Alanine Aminotransferase,CHEMISTRY,7.49,U/L,7,56,7.49,7.49,U/L,7,56,NORMAL,,,,,4.0,WEEK 12,TREATMENT,89,MILESTONE 1
BI-1245.110,LB,BI-1245.110-USA_SITE02-0002,16,AST,Aspartate Aminotransferase,CHEMISTRY,13.99,U/L,10,40,13.99,13.99,U/L,10,40,NORMAL,,,,,4.0,WEEK 12,TREATMENT,89,MILESTONE 1
BI-1245.110,LB,BI-1245.110-USA_SITE02-0002,17,CREAT,Creatinine,CHEMISTRY,30.0,umol/L,62,106,30.0,30.0,umol/L,62,106,LOW,,,,3,4.0,WEEK 12,TREATMENT,89,MILESTONE 1
BI-1245.110,LB,BI-1245.110-USA_SITE02-0002,18,GLUC,Glucose,CHEMISTRY,7.32,mmol/L,3.9,5.6,7.32,7.32,mmol/L,3.9,5.6,HIGH,,,,1,4.0,WEEK 12,TREATMENT,89,MILESTONE 1
BI-1245.110,LB,BI-1245.110-USA_SITE02-0002,19,HGB,Hemoglobin,HEMATOLOGY,127.44,g/L,130,175,127.44,127.44,g/L,130,175,LOW,,,,1,4.0,WEEK 12,TREATMENT,89,MILESTONE 1
BI-1245.110,LB,BI-1245.110-USA_SITE02-0002,20,PLAT,Platelets,HEMATOLOGY,200.47,10^9/L,150,400,200.47,200.47,10^9/L,150,400,NORMAL,,,,,4.0,WEEK 12,TREATMENT,89,MILESTONE 1
BI-1245.110,LB,BI-1245.110-USA_SITE02-0002,21,WBC,Leukocytes,HEMATOLOGY,12.07,10^9/L,4.0,11.0,12.07,12.07,10^9/L,4.0,11.0,HIGH,,,,1,4.0,WEEK 12,TREATMENT,89,MILESTONE 1
BI-1245.110,LB,BI-1245.110-USA_SITE02-0002,22,ALT,Alanine Aminotransferase,CHEMISTRY,6.27,U/L,7,56,6.27,6.27,U/L,7,56,LOW,,,,1,5.0,MONTH 6,TREATMENT,170,MILESTONE 1
BI-1245.110,LB,BI-1245.110-USA_SITE02-0002,23,AST,Aspartate Aminotransferase,CHEMISTRY,14.65,U/L,10,40,14.65,14.65,U/L,10,40,NORMAL,,,,,5.0,MONTH 6,TREATMENT,170,MILESTONE 1
BI-1245.110,LB,BI-1245.110-USA_SITE02-0002,24,CREAT,Creatinine,CHEMISTRY,30.0,umol/L,62,106,30.0,30.0,umol/L,62,106,LOW,,,,3,5.0,MONTH 6,TREATMENT,170,MILESTONE 1
BI-1245.110,LB,BI-1245.110-USA_SITE02-0002,25,GLUC,Glucose,CHEMISTRY,7.41,mmol/L,3.9,5.6,7.41,7.41,mmol/L,3.9,5.6,HIGH,,,,1,5.0,MONTH 6,TREATMENT,170,MILESTONE 1
BI-1245.110,LB,BI-1245.110-USA_SITE02-0002,26,HGB,Hemoglobin,HEMATOLOGY,128.63,g/L,130,175,128.63,128.63,g/L,130,175,LOW,,,,1,5.0,MONTH 6,TREATMENT,170,MILESTONE 1
BI-1245.110,LB,BI-1245.110-USA_SITE02-0002,27,PLAT,Platelets,HEMATOLOGY,201.07,10^9/L,150,400,201.07,201.07,10^9/L,150,400,NORMAL,,,,,5.0,MONTH 6,TREATMENT,170,MILESTONE 1
BI-1245.110,LB,BI-1245.110-USA_SITE02-0002,28,WBC,Leukocytes,HEMATOLOGY,9.05,10^9/L,4.0,11.0,9.05,9.05,10^9/L,4.0,11.0,NORMAL,,,,,5.0,MONTH 6,TREATMENT,170,MILESTONE 1
