STUDYID,DOMAIN,USUBJID,VSSEQ,VSTESTCD,VSTEST,VSORRES,VSORRESU,VSSTRESC,VSSTRESN,VSSTRESU,VSSTAT,VSLOBXFL,VSBLFL,VSDRVFL,VISITNUM,VISIT,EPOCH,VSDTC,VSDY,VSTPT,VSTPTNUM,VSELTM,VSTPTREF,VSRFTDTC,MIDS
BI-1245.110,VS,BI-1245.110-ARG_SITE01-0017,1,BMI,BMI,,,27.6,27.6,kg/m2,,,,Y,1.0,SCREENING,SCREENING,2024-02-06,-45,,,,,,MILESTONE 1
BI-1245.110,VS,BI-1245.110-ARG_SITE01-0017,2,DIABP,Diastolic Blood Pressure,75.8,mmHg,75.8,75.8,mmHg,,,,,1.0,SCREENING,SCREENING,2024-02-06,-45,,,,,,MILESTONE 1
BI-1245.110,VS,BI-1245.110-ARG_SITE01-0017,3,HEIGHT,Height,160.6,cm,160.6,160.6,cm,,,,,1.0,SCREENING,SCREENING,2024-02-06,-45,,,,,,MILESTONE 1
BI-1245.110,VS,BI-1245.110-ARG_SITE01-0017,4,PULSE,Pulse Rate,70.3,beats/min,70.3,70.3,beats/min,,,,,1.0,SCREENING,SCREENING,2024-02-06,-45,,,,,,MILESTONE 1
BI-1245.110,VS,BI-1245.110-ARG_SITE01-0017,5,RESP,Respiratory Rate,12.7,breaths/min,12.7,12.7,breaths/min,,,,,1.0,SCREENING,SCREENING,2024-02-06,-45,,,,,,MILESTONE 1
BI-1245.110,VS,BI-1245.110-ARG_SITE01-0017,6,SYSBP,Systolic Blood Pressure,130.2,mmHg,130.2,130.2,mmHg,,,,,1.0,SCREENING,SCREENING,2024-02-06,-45,,,,,,MILESTONE 1
BI-1245.110,VS,BI-1245.110-ARG_SITE01-0017,7,TEMP,Temperature,37.4,C,37.4,37.4,C,,,,,1.0,SCREENING,SCREENING,2024-02-06,-45,,,,,,MILESTONE 1
BI-1245.110,VS,BI-1245.110-ARG_SITE01-0017,8,WEIGHT,Weight,71.3,kg,71.3,71.3,kg,,,,,1.0,SCREENING,SCREENING,2024-02-06,-45,,,,,,MILESTONE 1
BI-1245.110,VS,BI-1245.110-ARG_SITE01-0017,9,BMI,BMI,,,28.0,28.0,kg/m2,,Y,Y,Y,2.0,BASELINE,TREATMENT,2024-03-22,1,,,,,,MILESTONE 1
BI-1245.110,VS,BI-1245.110-ARG_SITE01-0017,10,DIABP,Diastolic Blood Pressure,74.4,mmHg,74.4,74.4,mmHg,,Y,Y,,2.0,BASELINE,TREATMENT,2024-03-22T07:45,1,PRE-DOSE,1,-PT15M,DOSE ADMINISTRATION,2024-03-22T08:00,MILESTONE 1
BI-1245.110,VS,BI-1245.110-ARG_SITE01-0017,11,DIABP,Diastolic Blood Pressure,75.1,mmHg,75.1,75.1,mmHg,,,,,2.0,BASELINE,TREATMENT,2024-03-22T09:00,1,1H POST-DOSE,2,PT1H,DOSE ADMINISTRATION,2024-03-22T08:00,MILESTONE 1
BI-1245.110,VS,BI-1245.110-ARG_SITE01-0017,12,HEIGHT,Height,161.0,cm,161.0,161.0,cm,,Y,Y,,2.0,BASELINE,TREATMENT,2024-03-22,1,,,,,,MILESTONE 1
BI-1245.110,VS,BI-1245.110-ARG_SITE01-0017,13,PULSE,Pulse Rate,65.7,beats/min,65.7,65.7,beats/min,,Y,Y,,2.0,BASELINE,TREATMENT,2024-03-22T07:45,1,PRE-DOSE,1,-PT15M,DOSE ADMINISTRATION,2024-03-22T08:00,MILESTONE 1
BI-1245.110,VS,BI-1245.110-ARG_SITE01-0017,14,PULSE,Pulse Rate,64.1,beats/min,64.1,64.1,beats/min,,,,,2.0,BASELINE,TREATMENT,2024-03-22T09:00,1,1H POST-DOSE,2,PT1H,DOSE ADMINISTRATION,2024-03-22T08:00,MILESTONE 1
BI-1245.110,VS,BI-1245.110-ARG_SITE01-0017,15,RESP,Respiratory Rate,12.2,breaths/min,12.2,12.2,breaths/min,,Y,Y,,2.0,BASELINE,TREATMENT,2024-03-22T07:45,1,PRE-DOSE,1,-PT15M,DOSE ADMINISTRATION,2024-03-22T08:00,MILESTONE 1
BI-1245.110,VS,BI-1245.110-ARG_SITE01-0017,16,RESP,Respiratory Rate,12.2,breaths/min,12.2,12.2,breaths/min,,,,,2.0,BASELINE,TREATMENT,2024-03-22T09:00,1,1H POST-DOSE,2,PT1H,DOSE ADMINISTRATION,2024-03-22T08:00,MILESTONE 1
BI-1245.110,VS,BI-1245.110-ARG_SITE01-0017,17,SYSBP,Systolic Blood Pressure,129.2,mmHg,129.2,129.2,mmHg,,Y,Y,,2.0,BASELINE,TREATMENT,2024-03-22T07:45,1,PRE-DOSE,1,-PT15M,DOSE ADMINISTRATION,2024-03-22T08:00,MILESTONE 1
BI-1245.110,VS,BI-1245.110-ARG_SITE01-0017,18,SYSBP,Systolic Blood Pressure,129.4,mmHg,129.4,129.4,mmHg,,,,,2.0,BASELINE,TREATMENT,2024-03-22T09:00,1,1H POST-DOSE,2,PT1H,DOSE ADMINISTRATION,2024-03-22T08:00,MILESTONE 1
BI-1245.110,VS,BI-1245.110-ARG_SITE01-0017,19,TEMP,Temperature,37.1,C,37.1,37.1,C,,Y,Y,,2.0,BASELINE,TREATMENT,2024-03-22T07:45,1,PRE-DOSE,1,-PT15M,DOSE ADMINISTRATION,2024-03-22T08:00,MILESTONE 1
BI-1245.110,VS,BI-1245.110-ARG_SITE01-0017,20,TEMP,Temperature,36.7,C,36.7,36.7,C,,,,,2.0,BASELINE,TREATMENT,2024-03-22T09:00,1,1H POST-DOSE,2,PT1H,DOSE ADMINISTRATION,2024-03-22T08:00,MILESTONE 1
BI-1245.110,VS,BI-1245.110-ARG_SITE01-0017,21,WEIGHT,Weight,72.6,kg,72.6,72.6,kg,,Y,Y,,2.0,BASELINE,TREATMENT,2024-03-22,1,,,,,,MILESTONE 1
BI-1245.110,VS,BI-1245.110-ARG_SITE01-0017,22,BMI,BMI,,,27.5,27.5,kg/m2,,,,Y,3.0,WEEK 4,TREATMENT,2024-04-22,32,,,,,,MILESTONE 1
BI-1245.110,VS,BI-1245.110-ARG_SITE01-0017,23,DIABP,Diastolic Blood Pressure,57.3,mmHg,57.3,57.3,mmHg,,,,,3.0,WEEK 4,TREATMENT,2024-04-22,32,,,,,,MILESTONE 1
BI-1245.110,VS,BI-1245.110-ARG_SITE01-0017,24,HEIGHT,Height,160.8,cm,160.8,160.8,cm,,,,,3.0,WEEK 4,TREATMENT,2024-04-22,32,,,,,,MILESTONE 1
BI-1245.110,VS,BI-1245.110-ARG_SITE01-0017,25,PULSE,Pulse Rate,71.4,beats/min,71.4,71.4,beats/min,,,,,3.0,WEEK 4,TREATMENT,2024-04-22,32,,,,,,MILESTONE 1
BI-1245.110,VS,BI-1245.110-ARG_SITE01-0017,26,RESP,Respiratory Rate,12.5,breaths/min,12.5,12.5,breaths/min,,,,,3.0,WEEK 4,TREATMENT,2024-04-22,32,,,,,,MILESTONE 1
BI-1245.110,VS,BI-1245.110-ARG_SITE01-0017,27,SYSBP,Systolic Blood Pressure,99.8,mmHg,99.8,99.8,mmHg,,,,,3.0,WEEK 4,TREATMENT,2024-04-22,32,,,,,,MILESTONE 1
BI-1245.110,VS,BI-1245.110-ARG_SITE01-0017,28,TEMP,Temperature,37.0,C,37.0,37.0,C,,,,,3.0,WEEK 4,TREATMENT,2024-04-22,32,,,,,,MILESTONE 1
BI-1245.110,VS,BI-1245.110-ARG_SITE01-0017,29,WEIGHT,Weight,71.1,kg,71.1,71.1,kg,,,,,3.0,WEEK 4,TREATMENT,2024-04-22,32,,,,,,MILESTONE 1
BI-1245.110,VS,BI-1245.110-ARG_SITE01-0017,30,BMI,BMI,,,27.3,27.3,kg/m2,,,,Y,4.0,WEEK 12,TREATMENT,2024-06-18,89,,,,,,MILESTONE 1
BI-1245.110,VS,BI-1245.110-ARG_SITE01-0017,31,DIABP,Diastolic Blood Pressure,75.9,mmHg,75.9,75.9,mmHg,,,,,4.0,WEEK 12,TREATMENT,2024-06-18,89,,,,,,MILESTONE 1
BI-1245.110,VS,BI-1245.110-ARG_SITE01-0017,32,HEIGHT,Height,161.0,cm,161.0,161.0,cm,,,,,4.0,WEEK 12,TREATMENT,2024-06-18,89,,,,,,MILESTONE 1
BI-1245.110,VS,BI-1245.110-ARG_SITE01-0017,33,PULSE,Pulse Rate,75.7,beats/min,75.7,75.7,beats/min,,,,,4.0,WEEK 12,TREATMENT,2024-06-18,89,,,,,,MILESTONE 1
BI-1245.110,VS,BI-1245.110-ARG_SITE01-0017,34,RESP,Respiratory Rate,13.1,breaths/min,13.1,13.1,breaths/min,,,,,4.0,WEEK 12,TREATMENT,2024-06-18,89,,,,,,MILESTONE 1
BI-1245.110,VS,BI-1245.110-ARG_SITE01-0017,35,SYSBP,Systolic Blood Pressure,129.4,mmHg,129.4,129.4,mmHg,,,,,4.0,WEEK 12,TREATMENT,2024-06-18,89,,,,,,MILESTONE 1
BI-1245.110,VS,BI-1245.110-ARG_SITE01-0017,36,TEMP,Temperature,37.1,C,37.1,37.1,C,,,,,4.0,WEEK 12,TREATMENT,2024-06-18,89,,,,,,MILESTONE 1
BI-1245.110,VS,BI-1245.110-ARG_SITE01-0017,37,WEIGHT,Weight,70.8,kg,70.8,70.8,kg,,,,,4.0,WEEK 12,TREATMENT,2024-06-18,89,,,,,,MILESTONE 1
BI-1245.110,VS,BI-1245.110-ARG_SITE01-0017,38,BMI,BMI,,,28.9,28.9,kg/m2,,,,Y,5.0,MONTH 6,TREATMENT,2024-09-21,184,,,,,,MILESTONE 1
BI-1245.110,VS,BI-1245.110-ARG_SITE01-0017,39,DIABP,Diastolic Blood Pressure,67.6,mmHg,67.6,67.6,mmHg,,,,,5.0,MONTH 6,TREATMENT,2024-09-21,184,,,,,,MILESTONE 1
BI-1245.110,VS,BI-1245.110-ARG_SITE01-0017,40,HEIGHT,Height,161.5,cm,161.5,161.5,cm,,,,,5.0,MONTH 6,TREATMENT,2024-09-21,184,,,,,,MILESTONE 1
BI-1245.110,VS,BI-1245.110-ARG_SITE01-0017,41,PULSE,Pulse Rate,73.3,beats/min,73.3,73.3,beats/min,,,,,5.0,MONTH 6,TREATMENT,2024-09-21,184,,,,,,MILESTONE 1
BI-1245.110,VS,BI-1245.110-ARG_SITE01-0017,42,RESP,Respiratory Rate,14.0,breaths/min,14.0,14.0,breaths/min,,,,,5.0,MONTH 6,TREATMENT,2024-09-21,184,,,,,,MILESTONE 1
BI-1245.110,VS,BI-1245.110-ARG_SITE01-0017,43,SYSBP,Systolic Blood Pressure,116.7,mmHg,116.7,116.7,mmHg,,,,,5.0,MONTH 6,TREATMENT,2024-09-21,184,,,,,,MILESTONE 1
BI-1245.110,VS,BI-1245.110-ARG_SITE01-0017,44,TEMP,Temperature,37.0,C,37.0,37.0,C,,,,,5.0,MONTH 6,TREATMENT,2024-09-21,184,,,,,,MILESTONE 1
BI-1245.110,VS,BI-1245.110-ARG_SITE01-0017,45,WEIGHT,Weight,75.4,kg,75.4,75.4,kg,,,,,5.0,MONTH 6,TREATMENT,2024-09-21,184,,,,,,MILESTONE 1
BI-1245.110,VS,BI-1245.110-ARG_SITE01-0017,46,BMI,BMI,,,28.0,28.0,kg/m2,,,,Y,6.0,MONTH 12,TREATMENT,2025-03-16,360,,,,,,MILESTONE 1
BI-1245.110,VS,BI-1245.110-ARG_SITE01-0017,47,DIABP,Diastolic Blood Pressure,77.1,mmHg,77.1,77.1,mmHg,,,,,6.0,MONTH 12,TREATMENT,2025-03-16,360,,,,,,MILESTONE 1
BI-1245.110,VS,BI-1245.110-ARG_SITE01-0017,48,HEIGHT,Height,161.7,cm,161.7,161.7,cm,,,,,6.0,MONTH 12,TREATMENT,2025-03-16,360,,,,,,MILESTONE 1
BI-1245.110,VS,BI-1245.110-ARG_SITE01-0017,49,PULSE,Pulse Rate,76.2,beats/min,76.2,76.2,beats/min,,,,,6.0,MONTH 12,TREATMENT,2025-03-16,360,,,,,,MILESTONE 1
BI-1245.110,VS,BI-1245.110-ARG_SITE01-0017,50,RESP,Respiratory Rate,13.8,breaths/min,13.8,13.8,breaths/min,,,,,6.0,MONTH 12,TREATMENT,2025-03-16,360,,,,,,MILESTONE 1
BI-1245.110,VS,BI-1245.110-ARG_SITE01-0017,51,SYSBP,Systolic Blood Pressure,129.7,mmHg,129.7,129.7,mmHg,,,,,6.0,MONTH 12,TREATMENT,2025-03-16,360,,,,,,MILESTONE 1
BI-1245.110,VS,BI-1245.110-ARG_SITE01-0017,52,TEMP,Temperature,37.2,C,37.2,37.2,C,,,,,6.0,MONTH 12,TREATMENT,2025-03-16,360,,,,,,MILESTONE 1
BI-1245.110,VS,BI-1245.110-ARG_SITE01-0017,53,WEIGHT,Weight,73.2,kg,73.2,73.2,kg,,,,,6.0,MONTH 12,TREATMENT,2025-03-16,360,,,,,,MILESTONE 1
BI-1245.110,VS,BI-1245.110-ARG_SITE01-0017,54,BMI,BMI,,,28.3,28.3,kg/m2,,,,Y,7.0,MONTH 18,TREATMENT,2025-09-18,546,,,,,,MILESTONE 1
BI-1245.110,VS,BI-1245.110-ARG_SITE01-0017,55,DIABP,Diastolic Blood Pressure,74.7,mmHg,74.7,74.7,mmHg,,,,,7.0,MONTH 18,TREATMENT,2025-09-18,546,,,,,,MILESTONE 1
BI-1245.110,VS,BI-1245.110-ARG_SITE01-0017,56,HEIGHT,Height,161.1,cm,161.1,161.1,cm,,,,,7.0,MONTH 18,TREATMENT,2025-09-18,546,,,,,,MILESTONE 1
BI-1245.110,VS,BI-1245.110-ARG_SITE01-0017,57,PULSE,Pulse Rate,72.6,beats/min,72.6,72.6,beats/min,,,,,7.0,MONTH 18,TREATMENT,2025-09-18,546,,,,,,MILESTONE 1
BI-1245.110,VS,BI-1245.110-ARG_SITE01-0017,58,RESP,Respiratory Rate,13.1,breaths/min,13.1,13.1,breaths/min,,,,,7.0,MONTH 18,TREATMENT,2025-09-18,546,,,,,,MILESTONE 1
BI-1245.110,VS,BI-1245.110-ARG_SITE01-0017,59,SYSBP,Systolic Blood Pressure,129.3,mmHg,129.3,129.3,mmHg,,,,,7.0,MONTH 18,TREATMENT,2025-09-18,546,,,,,,MILESTONE 1
BI-1245.110,VS,BI-1245.110-ARG_SITE01-0017,60,TEMP,Temperature,37.3,C,37.3,37.3,C,,,,,7.0,MONTH 18,TREATMENT,2025-09-18,546,,,,,,MILESTONE 1
BI-1245.110,VS,BI-1245.110-ARG_SITE01-0017,61,WEIGHT,Weight,73.4,kg,73.4,73.4,kg,,,,,7.0,MONTH 18,TREATMENT,2025-09-18,546,,,,,,MILESTONE 1
BI-1245.110,VS,BI-1245.110-ARG_SITE01-0017,62,BMI,BMI,,,28.3,28.3,kg/m2,,,,Y,8.0,MONTH 24,TREATMENT,2026-03-28,737,,,,,,MILESTONE 1
BI-1245.110,VS,BI-1245.110-ARG_SITE01-0017,63,DIABP,Diastolic Blood Pressure,73.8,mmHg,73.8,73.8,mmHg,,,,,8.0,MONTH 24,TREATMENT,2026-03-28,737,,,,,,MILESTONE 1
BI-1245.110,VS,BI-1245.110-ARG_SITE01-0017,64,HEIGHT,Height,161.4,cm,161.4,161.4,cm,,,,,8.0,MONTH 24,TREATMENT,2026-03-28,737,,,,,,MILESTONE 1
BI-1245.110,VS,BI-1245.110-ARG_SITE01-0017,65,PULSE,Pulse Rate,74.2,beats/min,74.2,74.2,beats/min,,,,,8.0,MONTH 24,TREATMENT,2026-03-28,737,,,,,,MILESTONE 1
BI-1245.110,VS,BI-1245.110-ARG_SITE01-0017,66,RESP,Respiratory Rate,13.6,breaths/min,13.6,13.6,breaths/min,,,,,8.0,MONTH 24,TREATMENT,2026-03-28,737,,,,,,MILESTONE 1
BI-1245.110,VS,BI-1245.110-ARG_SITE01-0017,67,SYSBP,Systolic Blood Pressure,129.7,mmHg,129.7,129.7,mmHg,,,,,8.0,MONTH 24,TREATMENT,2026-03-28,737,,,,,,MILESTONE 1
BI-1245.110,VS,BI-1245.110-ARG_SITE01-0017,68,TEMP,Temperature,37.0,C,37.0,37.0,C,,,,,8.0,MONTH 24,TREATMENT,2026-03-28,737,,,,,,MILESTONE 1
BI-1245.110,VS,BI-1245.110-ARG_SITE01-0017,69,WEIGHT,Weight,73.7,kg,73.7,73.7,kg,,,,,8.0,MONTH 24,TREATMENT,2026-03-28,737,,,,,,MILESTONE 1
BI-1245.110,VS,BI-1245.110-ARG_SITE01-0017,70,BMI,BMI,,,27.8,27.8,kg/m2,,,,Y,9.0,EOT,TREATMENT,2026-06-16,817,,,,,,MILESTONE 1
BI-1245.110,VS,BI-1245.110-ARG_SITE01-0017,71,DIABP,Diastolic Blood Pressure,75.0,mmHg,75.0,75.0,mmHg,,,,,9.0,EOT,TREATMENT,2026-06-16,817,,,,,,MILESTONE 1
BI-1245.110,VS,BI-1245.110-ARG_SITE01-0017,72,HEIGHT,Height,162.2,cm,162.2,162.2,cm,,,,,9.0,EOT,TREATMENT,2026-06-16,817,,,,,,MILESTONE 1
BI-1245.110,VS,BI-1245.110-ARG_SITE01-0017,73,PULSE,Pulse Rate,74.3,beats/min,74.3,74.3,beats/min,,,,,9.0,EOT,TREATMENT,2026-06-16,817,,,,,,MILESTONE 1
BI-1245.110,VS,BI-1245.110-ARG_SITE01-0017,74,RESP,Respiratory Rate,13.1,breaths/min,13.1,13.1,breaths/min,,,,,9.0,EOT,TREATMENT,2026-06-16,817,,,,,,MILESTONE 1
BI-1245.110,VS,BI-1245.110-ARG_SITE01-0017,75,SYSBP,Systolic Blood Pressure,130.0,mmHg,130.0,130.0,mmHg,,,,,9.0,EOT,TREATMENT,2026-06-16,817,,,,,,MILESTONE 1
BI-1245.110,VS,BI-1245.110-ARG_SITE01-0017,76,TEMP,Temperature,36.9,C,36.9,36.9,C,,,,,9.0,EOT,TREATMENT,2026-06-16,817,,,,,,MILESTONE 1
BI-1245.110,VS,BI-1245.110-ARG_SITE01-0017,77,WEIGHT,Weight,73.1,kg,73.1,73.1,kg,,,,,9.0,EOT,TREATMENT,2026-06-16,817,,,,,,MILESTONE 1
BI-1245.110,VS,BI-1245.110-BRA_SITE01-0010,1,BMI,BMI,,,17.7,17.7,kg/m2,,,,Y,1.0,SCREENING,SCREENING,2024-01-29,-51,,,,,,MILESTONE 1
BI-1245.110,VS,BI-1245.110-BRA_SITE01-0010,2,DIABP,Diastolic Blood Pressure,87.9,mmHg,87.9,87.9,mmHg,,,,,1.0,SCREENING,SCREENING,2024-01-29,-51,,,,,,MILESTONE 1
BI-1245.110,VS,BI-1245.110-BRA_SITE01-0010,3,HEIGHT,Height,170.7,cm,170.7,170.7,cm,,,,,1.0,SCREENING,SCREENING,2024-01-29,-51,,,,,,MILESTONE 1
BI-1245.110,VS,BI-1245.110-BRA_SITE01-0010,4,PULSE,Pulse Rate,52.1,beats/min,52.1,52.1,beats/min,,,,,1.0,SCREENING,SCREENING,2024-01-29,-51,,,,,,MILESTONE 1
BI-1245.110,VS,BI-1245.110-BRA_SITE01-0010,5,RESP,Respiratory Rate,20.2,breaths/min,20.2,20.2,breaths/min,,,,,1.0,SCREENING,SCREENING,2024-01-29,-51,,,,,,MILESTONE 1
BI-1245.110,VS,BI-1245.110-BRA_SITE01-0010,6,SYSBP,Systolic Blood Pressure,,,,,,NOT DONE,,,,1.0,SCREENING,SCREENING,2024-01-29,-51,,,,,,MILESTONE 1
BI-1245.110,VS,BI-1245.110-BRA_SITE01-0010,7,TEMP,Temperature,37.2,C,37.2,37.2,C,,,,,1.0,SCREENING,SCREENING,2024-01-29,-51,,,,,,MILESTONE 1
BI-1245.110,VS,BI-1245.110-BRA_SITE01-0010,8,WEIGHT,Weight,51.7,kg,51.7,51.7,kg,,,,,1.0,SCREENING,SCREENING,2024-01-29,-51,,,,,,MILESTONE 1
BI-1245.110,VS,BI-1245.110-BRA_SITE01-0010,9,BMI,BMI,,,18.1,18.1,kg/m2,,Y,Y,Y,2.0,BASELINE,TREATMENT,2024-03-20,1,,,,,,MILESTONE 1
BI-1245.110,VS,BI-1245.110-BRA_SITE01-0010,10,DIABP,Diastolic Blood Pressure,87.6,mmHg,87.6,87.6,mmHg,,Y,Y,,2.0,BASELINE,TREATMENT,2024-03-20T07:45,1,PRE-DOSE,1,-PT15M,DOSE ADMINISTRATION,2024-03-20T08:00,MILESTONE 1
BI-1245.110,VS,BI-1245.110-BRA_SITE01-0010,11,DIABP,Diastolic Blood Pressure,88.7,mmHg,88.7,88.7,mmHg,,,,,2.0,BASELINE,TREATMENT,2024-03-20T09:00,1,1H POST-DOSE,2,PT1H,DOSE ADMINISTRATION,2024-03-20T08:00,MILESTONE 1
BI-1245.110,VS,BI-1245.110-BRA_SITE01-0010,12,HEIGHT,Height,170.5,cm,170.5,170.5,cm,,Y,Y,,2.0,BASELINE,TREATMENT,2024-03-20,1,,,,,,MILESTONE 1
BI-1245.110,VS,BI-1245.110-BRA_SITE01-0010,13,PULSE,Pulse Rate,53.0,beats/min,53.0,53.0,beats/min,,Y,Y,,2.0,BASELINE,TREATMENT,2024-03-20T07:45,1,PRE-DOSE,1,-PT15M,DOSE ADMINISTRATION,2024-03-20T08:00,MILESTONE 1
BI-1245.110,VS,BI-1245.110-BRA_SITE01-0010,14,PULSE,Pulse Rate,52.9,beats/min,52.9,52.9,beats/min,,,,,2.0,BASELINE,TREATMENT,2024-03-20T09:00,1,1H POST-DOSE,2,PT1H,DOSE ADMINISTRATION,2024-03-20T08:00,MILESTONE 1
BI-1245.110,VS,BI-1245.110-BRA_SITE01-0010,15,RESP,Respiratory Rate,20.5,breaths/min,20.5,20.5,breaths/min,,Y,Y,,2.0,BASELINE,TREATMENT,2024-03-20T07:45,1,PRE-DOSE,1,-PT15M,DOSE ADMINISTRATION,2024-03-20T08:00,MILESTONE 1
BI-1245.110,VS,BI-1245.110-BRA_SITE01-0010,16,RESP,Respiratory Rate,21.1,breaths/min,21.1,21.1,breaths/min,,,,,2.0,BASELINE,TREATMENT,2024-03-20T09:00,1,1H POST-DOSE,2,PT1H,DOSE ADMINISTRATION,2024-03-20T08:00,MILESTONE 1
BI-1245.110,VS,BI-1245.110-BRA_SITE01-0010,17,SYSBP,Systolic Blood Pressure,180.1,mmHg,180.1,180.1,mmHg,,Y,Y,,2.0,BASELINE,TREATMENT,2024-03-20T07:45,1,PRE-DOSE,1,-PT15M,DOSE ADMINISTRATION,2024-03-20T08:00,MILESTONE 1
BI-1245.110,VS,BI-1245.110-BRA_SITE01-0010,18,SYSBP,Systolic Blood Pressure,178.8,mmHg,178.8,178.8,mmHg,,,,,2.0,BASELINE,TREATMENT,2024-03-20T09:00,1,1H POST-DOSE,2,PT1H,DOSE ADMINISTRATION,2024-03-20T08:00,MILESTONE 1
BI-1245.110,VS,BI-1245.110-BRA_SITE01-0010,19,TEMP,Temperature,37.1,C,37.1,37.1,C,,Y,Y,,2.0,BASELINE,TREATMENT,2024-03-20T07:45,1,PRE-DOSE,1,-PT15M,DOSE ADMINISTRATION,2024-03-20T08:00,MILESTONE 1
BI-1245.110,VS,BI-1245.110-BRA_SITE01-0010,20,TEMP,Temperature,37.7,C,37.7,37.7,C,,,,,2.0,BASELINE,TREATMENT,2024-03-20T09:00,1,1H POST-DOSE,2,PT1H,DOSE ADMINISTRATION,2024-03-20T08:00,MILESTONE 1
BI-1245.110,VS,BI-1245.110-BRA_SITE01-0010,21,WEIGHT,Weight,52.5,kg,52.5,52.5,kg,,Y,Y,,2.0,BASELINE,TREATMENT,2024-03-20,1,,,,,,MILESTONE 1
BI-1245.110,VS,BI-1245.110-BRA_SITE01-0010,22,BMI,BMI,,,17.8,17.8,kg/m2,,,,Y,3.0,WEEK 4,TREATMENT,2024-04-12,24,,,,,,MILESTONE 1
BI-1245.110,VS,BI-1245.110-BRA_SITE01-0010,23,DIABP,Diastolic Blood Pressure,90.4,mmHg,90.4,90.4,mmHg,,,,,3.0,WEEK 4,TREATMENT,2024-04-12,24,,,,,,MILESTONE 1
BI-1245.110,VS,BI-1245.110-BRA_SITE01-0010,24,HEIGHT,Height,170.9,cm,170.9,170.9,cm,,,,,3.0,WEEK 4,TREATMENT,2024-04-12,24,,,,,,MILESTONE 1
BI-1245.110,VS,BI-1245.110-BRA_SITE01-0010,25,PULSE,Pulse Rate,50.7,beats/min,50.7,50.7,beats/min,,,,,3.0,WEEK 4,TREATMENT,2024-04-12,24,,,,,,MILESTONE 1
BI-1245.110,VS,BI-1245.110-BRA_SITE01-0010,26,RESP,Respiratory Rate,20.5,breaths/min,20.5,20.5,breaths/min,,,,,3.0,WEEK 4,TREATMENT,2024-04-12,24,,,,,,MILESTONE 1
BI-1245.110,VS,BI-1245.110-BRA_SITE01-0010,27,SYSBP,Systolic Blood Pressure,182.2,mmHg,182.2,182.2,mmHg,,,,,3.0,WEEK 4,TREATMENT,2024-04-12,24,,,,,,MILESTONE 1
BI-1245.110,VS,BI-1245.110-BRA_SITE01-0010,28,TEMP,Temperature,37.3,C,37.3,37.3,C,,,,,3.0,WEEK 4,TREATMENT,2024-04-12,24,,,,,,MILESTONE 1
BI-1245.110,VS,BI-1245.110-BRA_SITE01-0010,29,WEIGHT,Weight,51.9,kg,51.9,51.9,kg,,,,,3.0,WEEK 4,TREATMENT,2024-04-12,24,,,,,,MILESTONE 1
BI-1245.110,VS,BI-1245.110-BRA_SITE01-0010,30,BMI,BMI,,,17.8,17.8,kg/m2,,,,Y,5.0,MONTH 6,TREATMENT,2024-09-20,185,,,,,,MILESTONE 1
BI-1245.110,VS,BI-1245.110-BRA_SITE01-0010,31,DIABP,Diastolic Blood Pressure,92.2,mmHg,92.2,92.2,mmHg,,,,,5.0,MONTH 6,TREATMENT,2024-09-20,185,,,,,,MILESTONE 1
BI-1245.110,VS,BI-1245.110-BRA_SITE01-0010,32,HEIGHT,Height,171.5,cm,171.5,171.5,cm,,,,,5.0,MONTH 6,TREATMENT,2024-09-20,185,,,,,,MILESTONE 1
BI-1245.110,VS,BI-1245.110-BRA_SITE01-0010,33,PULSE,Pulse Rate,45.4,beats/min,45.4,45.4,beats/min,,,,,5.0,MONTH 6,TREATMENT,2024-09-20,185,,,,,,MILESTONE 1
BI-1245.110,VS,BI-1245.110-BRA_SITE01-0010,34,RESP,Respiratory Rate,20.7,breaths/min,20.7,20.7,breaths/min,,,,,5.0,MONTH 6,TREATMENT,2024-09-20,185,,,,,,MILESTONE 1
BI-1245.110,VS,BI-1245.110-BRA_SITE01-0010,35,SYSBP,Systolic Blood Pressure,184.2,mmHg,184.2,184.2,mmHg,,,,,5.0,MONTH 6,TREATMENT,2024-09-20,185,,,,,,MILESTONE 1
BI-1245.110,VS,BI-1245.110-BRA_SITE01-0010,36,TEMP,Temperature,37.6,C,37.6,37.6,C,,,,,5.0,MONTH 6,TREATMENT,2024-09-20,185,,,,,,MILESTONE 1
BI-1245.110,VS,BI-1245.110-BRA_SITE01-0010,37,WEIGHT,Weight,52.4,kg,52.4,52.4,kg,,,,,5.0,MONTH 6,TREATMENT,2024-09-20,185,,,,,,MILESTONE 1
BI-1245.110,VS,BI-1245.110-BRA_SITE01-0010,38,BMI,BMI,,,17.7,17.7,kg/m2,,,,Y,6.0,MONTH 12,TREATMENT,2025-03-08,354,,,,,,MILESTONE 1
BI-1245.110,VS,BI-1245.110-BRA_SITE01-0010,39,DIABP,Diastolic Blood Pressure,73.7,mmHg,73.7,73.7,mmHg,,,,,6.0,MONTH 12,TREATMENT,2025-03-08,354,,,,,,MILESTONE 1
BI-1245.110,VS,BI-1245.110-BRA_SITE01-0010,40,HEIGHT,Height,171.2,cm,171.2,171.2,cm,,,,,6.0,MONTH 12,TREATMENT,2025-03-08,354,,,,,,MILESTONE 1
BI-1245.110,VS,BI-1245.110-BRA_SITE01-0010,41,PULSE,Pulse Rate,49.6,beats/min,49.6,49.6,beats/min,,,,,6.0,MONTH 12,TREATMENT,2025-03-08,354,,,,,,MILESTONE 1
BI-1245.110,VS,BI-1245.110-BRA_SITE01-0010,42,RESP,Respiratory Rate,20.6,breaths/min,20.6,20.6,breaths/min,,,,,6.0,MONTH 12,TREATMENT,2025-03-08,354,,,,,,MILESTONE 1
BI-1245.110,VS,BI-1245.110-BRA_SITE01-0010,43,SYSBP,Systolic Blood Pressure,154.4,mmHg,154.4,154.4,mmHg,,,,,6.0,MONTH 12,TREATMENT,2025-03-08,354,,,,,,MILESTONE 1
BI-1245.110,VS,BI-1245.110-BRA_SITE01-0010,44,TEMP,Temperature,37.2,C,37.2,37.2,C,,,,,6.0,MONTH 12,TREATMENT,2025-03-08,354,,,,,,MILESTONE 1
BI-1245.110,VS,BI-1245.110-BRA_SITE01-0010,45,WEIGHT,Weight,51.8,kg,51.8,51.8,kg,,,,,6.0,MONTH 12,TREATMENT,2025-03-08,354,,,,,,MILESTONE 1
BI-1245.110,VS,BI-1245.110-BRA_SITE01-0010,46,BMI,BMI,,,17.9,17.9,kg/m2,,,,Y,7.0,MONTH 18,TREATMENT,2025-09-23,553,,,,,,MILESTONE 1
BI-1245.110,VS,BI-1245.110-BRA_SITE01-0010,47,DIABP,Diastolic Blood Pressure,92.3,mmHg,92.3,92.3,mmHg,,,,,7.0,MONTH 18,TREATMENT,2025-09-23,553,,,,,,MILESTONE 1
BI-1245.110,VS,BI-1245.110-BRA_SITE01-0010,48,HEIGHT,Height,170.6,cm,170.6,170.6,cm,,,,,7.0,MONTH 18,TREATMENT,2025-09-23,553,,,,,,MILESTONE 1
BI-1245.110,VS,BI-1245.110-BRA_SITE01-0010,49,PULSE,Pulse Rate,44.4,beats/min,44.4,44.4,beats/min,,,,,7.0,MONTH 18,TREATMENT,2025-09-23,553,,,,,,MILESTONE 1
BI-1245.110,VS,BI-1245.110-BRA_SITE01-0010,50,RESP,Respiratory Rate,21.7,breaths/min,21.7,21.7,breaths/min,,,,,7.0,MONTH 18,TREATMENT,2025-09-23,553,,,,,,MILESTONE 1
BI-1245.110,VS,BI-1245.110-BRA_SITE01-0010,51,SYSBP,Systolic Blood Pressure,189.1,mmHg,189.1,189.1,mmHg,,,,,7.0,MONTH 18,TREATMENT,2025-09-23,553,,,,,,MILESTONE 1
BI-1245.110,VS,BI-1245.110-BRA_SITE01-0010,52,TEMP,Temperature,37.3,C,37.3,37.3,C,,,,,7.0,MONTH 18,TREATMENT,2025-09-23,553,,,,,,MILESTONE 1
BI-1245.110,VS,BI-1245.110-BRA_SITE01-0010,53,WEIGHT,Weight,52.2,kg,52.2,52.2,kg,,,,,7.0,MONTH 18,TREATMENT,2025-09-23,553,,,,,,MILESTONE 1
BI-1245.110,VS,BI-1245.110-BRA_SITE01-0010,54,BMI,BMI,,,18.2,18.2,kg/m2,,,,Y,8.0,MONTH 24,TREATMENT,2026-03-11,722,,,,,,MILESTONE 1
BI-1245.110,VS,BI-1245.110-BRA_SITE01-0010,55,DIABP,Diastolic Blood Pressure,84.7,mmHg,84.7,84.7,mmHg,,,,,8.0,MONTH 24,TREATMENT,2026-03-11,722,,,,,,MILESTONE 1
BI-1245.110,VS,BI-1245.110-BRA_SITE01-0010,56,HEIGHT,Height,170.3,cm,170.3,170.3,cm,,,,,8.0,MONTH 24,TREATMENT,2026-03-11,722,,,,,,MILESTONE 1
BI-1245.110,VS,BI-1245.110-BRA_SITE01-0010,57,PULSE,Pulse Rate,44.7,beats/min,44.7,44.7,beats/min,,,,,8.0,MONTH 24,TREATMENT,2026-03-11,722,,,,,,MILESTONE 1
BI-1245.110,VS,BI-1245.110-BRA_SITE01-0010,58,RESP,Respiratory Rate,22.3,breaths/min,22.3,22.3,breaths/min,,,,,8.0,MONTH 24,TREATMENT,2026-03-11,722,,,,,,MILESTONE 1
BI-1245.110,VS,BI-1245.110-BRA_SITE01-0010,59,SYSBP,Systolic Blood Pressure,176.1,mmHg,176.1,176.1,mmHg,,,,,8.0,MONTH 24,TREATMENT,2026-03-11,722,,,,,,MILESTONE 1
BI-1245.110,VS,BI-1245.110-BRA_SITE01-0010,60,TEMP,Temperature,37.3,C,37.3,37.3,C,,,,,8.0,MONTH 24,TREATMENT,2026-03-11,722,,,,,,MILESTONE 1
BI-1245.110,VS,BI-1245.110-BRA_SITE01-0010,61,WEIGHT,Weight,52.9,kg,52.9,52.9,kg,,,,,8.0,MONTH 24,TREATMENT,2026-03-11,722,,,,,,MILESTONE 1
BI-1245.110,VS,BI-1245.110-BRA_SITE01-0010,62,BMI,BMI,,,18.7,18.7,kg/m2,,,,Y,9.0,EOT,TREATMENT,2026-05-30,802,,,,,,MILESTONE 1
BI-1245.110,VS,BI-1245.110-BRA_SITE01-0010,63,DIABP,Diastolic Blood Pressure,90.7,mmHg,90.7,90.7,mmHg,,,,,9.0,EOT,TREATMENT,2026-05-30,802,,,,,,MILESTONE 1
BI-1245.110,VS,BI-1245.110-BRA_SITE01-0010,64,HEIGHT,Height,170.9,cm,170.9,170.9,cm,,,,,9.0,EOT,TREATMENT,2026-05-30,802,,,,,,MILESTONE 1
BI-1245.110,VS,BI-1245.110-BRA_SITE01-0010,65,PULSE,Pulse Rate,48.7,beats/min,48.7,48.7,beats/min,,,,,9.0,EOT,TREATMENT,2026-05-30,802,,,,,,MILESTONE 1
BI-1245.110,VS,BI-1245.110-BRA_SITE01-0010,66,RESP,Respiratory Rate,19.6,breaths/min,19.6,19.6,breaths/min,,,,,9.0,EOT,TREATMENT,2026-05-30,802,,,,,,MILESTONE 1
BI-1245.110,VS,BI-1245.110-BRA_SITE01-0010,67,SYSBP,Systolic Blood Pressure,186.3,mmHg,186.3,186.3,mmHg,,,,,9.0,EOT,TREATMENT,2026-05-30,802,,,,,,MILESTONE 1
BI-1245.110,VS,BI-1245.110-BRA_SITE01-0010,68,TEMP,Temperature,37.4,C,37.4,37.4,C,,,,,9.0,EOT,TREATMENT,2026-05-30,802,,,,,,MILESTONE 1
BI-1245.110,VS,BI-1245.110-BRA_SITE01-0010,69,WEIGHT,Weight,54.7,kg,54.7,54.7,kg,,,,,9.0,EOT,TREATMENT,2026-05-30,802,,,,,,MILESTONE 1
BI-1245.110,VS,BI-1245.110-BRA_SITE01-0020,1,BMI,BMI,,,27.8,27.8,kg/m2,,,,Y,1.0,SCREENING,SCREENING,2024-01-22,-55,,,,,,MILESTONE 1
BI-1245.110,VS,BI-1245.110-BRA_SITE01-0020,2,DIABP,Diastolic Blood Pressure,88.5,mmHg,88.5,88.5,mmHg,,,,,1.0,SCREENING,SCREENING,2024-01-22,-55,,,,,,MILESTONE 1
BI-1245.110,VS,BI-1245.110-BRA_SITE01-0020,3,HEIGHT,Height,162.8,cm,162.8,162.8,cm,,,,,1.0,SCREENING,SCREENING,2024-01-22,-55,,,,,,MILESTONE 1
BI-1245.110,VS,BI-1245.110-BRA_SITE01-0020,4,PULSE,Pulse Rate,75.3,beats/min,75.3,75.3,beats/min,,,,,1.0,SCREENING,SCREENING,2024-01-22,-55,,,,,,MILESTONE 1
BI-1245.110,VS,BI-1245.110-BRA_SITE01-0020,5,RESP,Respiratory Rate,8.1,breaths/min,8.1,8.1,breaths/min,,,,,1.0,SCREENING,SCREENING,2024-01-22,-55,,,,,,MILESTONE 1
BI-1245.110,VS,BI-1245.110-BRA_SITE01-0020,6,SYSBP,Systolic Blood Pressure,154.6,mmHg,154.6,154.6,mmHg,,,,,1.0,SCREENING,SCREENING,2024-01-22,-55,,,,,,MILESTONE 1
BI-1245.110,VS,BI-1245.110-BRA_SITE01-0020,7,TEMP,Temperature,37.0,C,37.0,37.0,C,,,,,1.0,SCREENING,SCREENING,2024-01-22,-55,,,,,,MILESTONE 1
BI-1245.110,VS,BI-1245.110-BRA_SITE01-0020,8,WEIGHT,Weight,73.7,kg,73.7,73.7,kg,,,,,1.0,SCREENING,SCREENING,2024-01-22,-55,,,,,,MILESTONE 1
BI-1245.110,VS,BI-1245.110-BRA_SITE01-0020,9,BMI,BMI,,,28.0,28.0,kg/m2,,Y,Y,Y,2.0,BASELINE,TREATMENT,2024-03-17,1,,,,,,MILESTONE 1
BI-1245.110,VS,BI-1245.110-BRA_SITE01-0020,10,DIABP,Diastolic Blood Pressure,87.9,mmHg,87.9,87.9,mmHg,,Y,Y,,2.0,BASELINE,TREATMENT,2024-03-17T07:45,1,PRE-DOSE,1,-PT15M,DOSE ADMINISTRATION,2024-03-17T08:00,MILESTONE 1
BI-1245.110,VS,BI-1245.110-BRA_SITE01-0020,11,DIABP,Diastolic Blood Pressure,84.4,mmHg,84.4,84.4,mmHg,,,,,2.0,BASELINE,TREATMENT,2024-03-17T09:00,1,1H POST-DOSE,2,PT1H,DOSE ADMINISTRATION,2024-03-17T08:00,MILESTONE 1
BI-1245.110,VS,BI-1245.110-BRA_SITE01-0020,12,HEIGHT,Height,162.4,cm,162.4,162.4,cm,,Y,Y,,2.0,BASELINE,TREATMENT,2024-03-17,1,,,,,,MILESTONE 1
BI-1245.110,VS,BI-1245.110-BRA_SITE01-0020,13,PULSE,Pulse Rate,77.1,beats/min,77.1,77.1,beats/min,,Y,Y,,2.0,BASELINE,TREATMENT,2024-03-17T07:45,1,PRE-DOSE,1,-PT15M,DOSE ADMINISTRATION,2024-03-17T08:00,MILESTONE 1
BI-1245.110,VS,BI-1245.110-BRA_SITE01-0020,14,PULSE,Pulse Rate,75.3,beats/min,75.3,75.3,beats/min,,,,,2.0,BASELINE,TREATMENT,2024-03-17T09:00,1,1H POST-DOSE,2,PT1H,DOSE ADMINISTRATION,2024-03-17T08:00,MILESTONE 1
BI-1245.110,VS,BI-1245.110-BRA_SITE01-0020,15,RESP,Respiratory Rate,8.2,breaths/min,8.2,8.2,breaths/min,,Y,Y,,2.0,BASELINE,TREATMENT,2024-03-17T07:45,1,PRE-DOSE,1,-PT15M,DOSE ADMINISTRATION,2024-03-17T08:00,MILESTONE 1
BI-1245.110,VS,BI-1245.110-BRA_SITE01-0020,16,RESP,Respiratory Rate,7.9,breaths/min,7.9,7.9,breaths/min,,,,,2.0,BASELINE,TREATMENT,2024-03-17T09:00,1,1H POST-DOSE,2,PT1H,DOSE ADMINISTRATION,2024-03-17T08:00,MILESTONE 1
BI-1245.110,VS,BI-1245.110-BRA_SITE01-0020,17,SYSBP,Systolic Blood Pressure,155.1,mmHg,155.1,155.1,mmHg,,Y,Y,,2.0,BASELINE,TREATMENT,2024-03-17T07:45,1,PRE-DOSE,1,-PT15M,DOSE ADMINISTRATION,2024-03-17T08:00,MILESTONE 1
BI-1245.110,VS,BI-1245.110-BRA_SITE01-0020,18,SYSBP,Systolic Blood Pressure,152.9,mmHg,152.9,152.9,mmHg,,,,,2.0,BASELINE,TREATMENT,2024-03-17T09:00,1,1H POST-DOSE,2,PT1H,DOSE ADMINISTRATION,2024-03-17T08:00,MILESTONE 1
BI-1245.110,VS,BI-1245.110-BRA_SITE01-0020,19,TEMP,Temperature,37.1,C,37.1,37.1,C,,Y,Y,,2.0,BASELINE,TREATMENT,2024-03-17T07:45,1,PRE-DOSE,1,-PT15M,DOSE ADMINISTRATION,2024-03-17T08:00,MILESTONE 1
BI-1245.110,VS,BI-1245.110-BRA_SITE01-0020,20,TEMP,Temperature,37.1,C,37.1,37.1,C,,,,,2.0,BASELINE,TREATMENT,2024-03-17T09:00,1,1H POST-DOSE,2,PT1H,DOSE ADMINISTRATION,2024-03-17T08:00,MILESTONE 1
BI-1245.110,VS,BI-1245.110-BRA_SITE01-0020,21,WEIGHT,Weight,73.9,kg,73.9,73.9,kg,,Y,Y,,2.0,BASELINE,TREATMENT,2024-03-17,1,,,,,,MILESTONE 1
BI-1245.110,VS,BI-1245.110-BRA_SITE01-0020,22,BMI,BMI,,,28.5,28.5,kg/m2,,,,Y,3.0,WEEK 4,TREATMENT,2024-04-16,31,,,,,,MILESTONE 1
BI-1245.110,VS,BI-1245.110-BRA_SITE01-0020,23,DIABP,Diastolic Blood Pressure,89.0,mmHg,89.0,89.0,mmHg,,,,,3.0,WEEK 4,TREATMENT,2024-04-16,31,,,,,,MILESTONE 1
BI-1245.110,VS,BI-1245.110-BRA_SITE01-0020,24,HEIGHT,Height,162.8,cm,162.8,162.8,cm,,,,,3.0,WEEK 4,TREATMENT,2024-04-16,31,,,,,,MILESTONE 1
BI-1245.110,VS,BI-1245.110-BRA_SITE01-0020,25,PULSE,Pulse Rate,78.7,beats/min,78.7,78.7,beats/min,,,,,3.0,WEEK 4,TREATMENT,2024-04-16,31,,,,,,MILESTONE 1
BI-1245.110,VS,BI-1245.110-BRA_SITE01-0020,26,RESP,Respiratory Rate,8.0,breaths/min,8.0,8.0,breaths/min,,,,,3.0,WEEK 4,TREATMENT,2024-04-16,31,,,,,,MILESTONE 1
BI-1245.110,VS,BI-1245.110-BRA_SITE01-0020,27,SYSBP,Systolic Blood Pressure,155.6,mmHg,155.6,155.6,mmHg,,,,,3.0,WEEK 4,TREATMENT,2024-04-16,31,,,,,,MILESTONE 1
BI-1245.110,VS,BI-1245.110-BRA_SITE01-0020,28,TEMP,Temperature,36.9,C,36.9,36.9,C,,,,,3.0,WEEK 4,TREATMENT,2024-04-16,31,,,,,,MILESTONE 1
BI-1245.110,VS,BI-1245.110-BRA_SITE01-0020,29,WEIGHT,Weight,75.5,kg,75.5,75.5,kg,,,,,3.0,WEEK 4,TREATMENT,2024-04-16,31,,,,,,MILESTONE 1
BI-1245.110,VS,BI-1245.110-BRA_SITE01-0020,30,BMI,BMI,,,27.2,27.2,kg/m2,,,,Y,4.0,WEEK 12,TREATMENT,2024-06-05,81,,,,,,MILESTONE 1
BI-1245.110,VS,BI-1245.110-BRA_SITE01-0020,31,DIABP,Diastolic Blood Pressure,88.3,mmHg,88.3,88.3,mmHg,,,,,4.0,WEEK 12,TREATMENT,2024-06-05,81,,,,,,MILESTONE 1
BI-1245.110,VS,BI-1245.110-BRA_SITE01-0020,32,HEIGHT,Height,163.6,cm,163.6,163.6,cm,,,,,4.0,WEEK 12,TREATMENT,2024-06-05,81,,,,,,MILESTONE 1
BI-1245.110,VS,BI-1245.110-BRA_SITE01-0020,33,PULSE,Pulse Rate,76.1,beats/min,76.1,76.1,beats/min,,,,,4.0,WEEK 12,TREATMENT,2024-06-05,81,,,,,,MILESTONE 1
BI-1245.110,VS,BI-1245.110-BRA_SITE01-0020,34,RESP,Respiratory Rate,10.0,breaths/min,10.0,10.0,breaths/min,,,,,4.0,WEEK 12,TREATMENT,2024-06-05,81,,,,,,MILESTONE 1
BI-1245.110,VS,BI-1245.110-BRA_SITE01-0020,35,SYSBP,Systolic Blood Pressure,155.6,mmHg,155.6,155.6,mmHg,,,,,4.0,WEEK 12,TREATMENT,2024-06-05,81,,,,,,MILESTONE 1
BI-1245.110,VS,BI-1245.110-BRA_SITE01-0020,36,TEMP,Temperature,37.1,C,37.1,37.1,C,,,,,4.0,WEEK 12,TREATMENT,2024-06-05,81,,,,,,MILESTONE 1
BI-1245.110,VS,BI-1245.110-BRA_SITE01-0020,37,WEIGHT,Weight,72.7,kg,72.7,72.7,kg,,,,,4.0,WEEK 12,TREATMENT,2024-06-05,81,,,,,,MILESTONE 1
BI-1245.110,VS,BI-1245.110-BRA_SITE01-0020,38,BMI,BMI,,,27.4,27.4,kg/m2,,,,Y,5.0,MONTH 6,TREATMENT,2024-09-13,181,,,,,,MILESTONE 1
BI-1245.110,VS,BI-1245.110-BRA_SITE01-0020,39,DIABP,Diastolic Blood Pressure,86.8,mmHg,86.8,86.8,mmHg,,,,,5.0,MONTH 6,TREATMENT,2024-09-13,181,,,,,,MILESTONE 1
BI-1245.110,VS,BI-1245.110-BRA_SITE01-0020,40,HEIGHT,Height,163.4,cm,163.4,163.4,cm,,,,,5.0,MONTH 6,TREATMENT,2024-09-13,181,,,,,,MILESTONE 1
BI-1245.110,VS,BI-1245.110-BRA_SITE01-0020,41,PULSE,Pulse Rate,93.4,beats/min,93.4,93.4,beats/min,,,,,5.0,MONTH 6,TREATMENT,2024-09-13,181,,,,,,MILESTONE 1
BI-1245.110,VS,BI-1245.110-BRA_SITE01-0020,42,RESP,Respiratory Rate,9.5,breaths/min,9.5,9.5,breaths/min,,,,,5.0,MONTH 6,TREATMENT,2024-09-13,181,,,,,,MILESTONE 1
BI-1245.110,VS,BI-1245.110-BRA_SITE01-0020,43,SYSBP,Systolic Blood Pressure,148.1,mmHg,148.1,148.1,mmHg,,,,,5.0,MONTH 6,TREATMENT,2024-09-13,181,,,,,,MILESTONE 1
BI-1245.110,VS,BI-1245.110-BRA_SITE01-0020,44,TEMP,Temperature,37.0,C,37.0,37.0,C,,,,,5.0,MONTH 6,TREATMENT,2024-09-13,181,,,,,,MILESTONE 1
BI-1245.110,VS,BI-1245.110-BRA_SITE01-0020,45,WEIGHT,Weight,73.1,kg,73.1,73.1,kg,,,,,5.0,MONTH 6,TREATMENT,2024-09-13,181,,,,,,MILESTONE 1
BI-1245.110,VS,BI-1245.110-BRA_SITE01-0020,46,BMI,BMI,,,27.4,27.4,kg/m2,,,,Y,7.0,MONTH 18,TREATMENT,2025-09-18,551,,,,,,MILESTONE 1
BI-1245.110,VS,BI-1245.110-BRA_SITE01-0020,47,DIABP,Diastolic Blood Pressure,87.8,mmHg,87.8,87.8,mmHg,,,,,7.0,MONTH 18,TREATMENT,2025-09-18,551,,,,,,MILESTONE 1
BI-1245.110,VS,BI-1245.110-BRA_SITE01-0020,48,HEIGHT,Height,163.8,cm,163.8,163.8,cm,,,,,7.0,MONTH 18,TREATMENT,2025-09-18,551,,,,,,MILESTONE 1
BI-1245.110,VS,BI-1245.110-BRA_SITE01-0020,49,PULSE,Pulse Rate,74.3,beats/min,74.3,74.3,beats/min,,,,,7.0,MONTH 18,TREATMENT,2025-09-18,551,,,,,,MILESTONE 1
BI-1245.110,VS,BI-1245.110-BRA_SITE01-0020,50,RESP,Respiratory Rate,8.0,breaths/min,8.0,8.0,breaths/min,,,,,7.0,MONTH 18,TREATMENT,2025-09-18,551,,,,,,MILESTONE 1
BI-1245.110,VS,BI-1245.110-BRA_SITE01-0020,51,SYSBP,Systolic Blood Pressure,158.7,mmHg,158.7,158.7,mmHg,,,,,7.0,MONTH 18,TREATMENT,2025-09-18,551,,,,,,MILESTONE 1
BI-1245.110,VS,BI-1245.110-BRA_SITE01-0020,52,TEMP,Temperature,37.2,C,37.2,37.2,C,,,,,7.0,MONTH 18,TREATMENT,2025-09-18,551,,,,,,MILESTONE 1
BI-1245.110,VS,BI-1245.110-BRA_SITE01-0020,53,WEIGHT,Weight,73.4,kg,73.4,73.4,kg,,,,,7.0,MONTH 18,TREATMENT,2025-09-18,551,,,,,,MILESTONE 1
BI-1245.110,VS,BI-1245.110-BRA_SITE01-0020,54,BMI,BMI,,,27.8,27.8,kg/m2,,,,Y,9.0,EOT,TREATMENT,2026-06-05,811,,,,,,MILESTONE 1
BI-1245.110,VS,BI-1245.110-BRA_SITE01-0020,55,DIABP,Diastolic Blood Pressure,87.7,mmHg,87.7,87.7,mmHg,,,,,9.0,EOT,TREATMENT,2026-06-05,811,,,,,,MILESTONE 1
BI-1245.110,VS,BI-1245.110-BRA_SITE01-0020,56,HEIGHT,Height,163.8,cm,163.8,163.8,cm,,,,,9.0,EOT,TREATMENT,2026-06-05,811,,,,,,MILESTONE 1
BI-1245.110,VS,BI-1245.110-BRA_SITE01-0020,57,PULSE,Pulse Rate,77.7,beats/min,77.7,77.7,beats/min,,,,,9.0,EOT,TREATMENT,2026-06-05,811,,,,,,MILESTONE 1
BI-1245.110,VS,BI-1245.110-BRA_SITE01-0020,58,RESP,Respiratory Rate,8.0,breaths/min,8.0,8.0,breaths/min,,,,,9.0,EOT,TREATMENT,2026-06-05,811,,,,,,MILESTONE 1
BI-1245.110,VS,BI-1245.110-BRA_SITE01-0020,59,SYSBP,Systolic Blood Pressure,158.8,mmHg,158.8,158.8,mmHg,,,,,9.0,EOT,TREATMENT,2026-06-05,811,,,,,,MILESTONE 1
BI-1245.110,VS,BI-1245.110-BRA_SITE01-0020,60,TEMP,Temperature,37.0,C,37.0,37.0,C,,,,,9.0,EOT,TREATMENT,2026-06-05,811,,,,,,MILESTONE 1
BI-1245.110,VS,BI-1245.110-BRA_SITE01-0020,61,WEIGHT,Weight,74.5,kg,74.5,74.5,kg,,,,,9.0,EOT,TREATMENT,2026-06-05,811,,,,,,MILESTONE 1
BI-1245.110,VS,BI-1245.110-BRA_SITE01-0020,62,BMI,BMI,,,27.8,27.8,kg/m2,,,,Y,10.0,SAFETY FU,FOLLOW-UP,2026-07-02,838,,,,,,MILESTONE 1
BI-1245.110,VS,BI-1245.110-BRA_SITE01-0020,63,DIABP,Diastolic Blood Pressure,87.8,mmHg,87.8,87.8,mmHg,,,,,10.0,SAFETY FU,FOLLOW-UP,2026-07-02,838,,,,,,MILESTONE 1
BI-1245.110,VS,BI-1245.110-BRA_SITE01-0020,64,HEIGHT,Height,163.9,cm,163.9,163.9,cm,,,,,10.0,SAFETY FU,FOLLOW-UP,2026-07-02,838,,,,,,MILESTONE 1
BI-1245.110,VS,BI-1245.110-BRA_SITE01-0020,65,PULSE,Pulse Rate,82.6,beats/min,82.6,82.6,beats/min,,,,,10.0,SAFETY FU,FOLLOW-UP,2026-07-02,838,,,,,,MILESTONE 1
BI-1245.110,VS,BI-1245.110-BRA_SITE01-0020,66,RESP,Respiratory Rate,8.0,breaths/min,8.0,8.0,breaths/min,,,,,10.0,SAFETY FU,FOLLOW-UP,2026-07-02,838,,,,,,MILESTONE 1
BI-1245.110,VS,BI-1245.110-BRA_SITE01-0020,67,SYSBP,Systolic Blood Pressure,155.1,mmHg,155.1,155.1,mmHg,,,,,10.0,SAFETY FU,FOLLOW-UP,2026-07-02,838,,,,,,MILESTONE 1
BI-1245.110,VS,BI-1245.110-BRA_SITE01-0020,68,TEMP,Temperature,36.9,C,36.9,36.9,C,,,,,10.0,SAFETY FU,FOLLOW-UP,2026-07-02,838,,,,,,MILESTONE 1
BI-1245.110,VS,BI-1245.110-BRA_SITE01-0020,69,WEIGHT,Weight,74.7,kg,74.7,74.7,kg,,,,,10.0,SAFETY FU,FOLLOW-UP,2026-07-02,838,,,,,,MILESTONE 1
BI-1245.110,VS,BI-1245.110-CAN_SITE01-0008,1,BMI,BMI,,,37.9,37.9,kg/m2,,,,Y,1.0,SCREENING,SCREENING,2024-02-10,-37,,,,,,MILESTONE 1
BI-1245.110,VS,BI-1245.110-CAN_SITE01-0008,2,DIABP,Diastolic Blood Pressure,60.0,mmHg,60.0,60.0,mmHg,,,,,1.0,SCREENING,SCREENING,2024-02-10,-37,,,,,,MILESTONE 1
BI-1245.110,VS,BI-1245.110-CAN_SITE01-0008,3,HEIGHT,Height,163.3,cm,163.3,163.3,cm,,,,,1.0,SCREENING,SCREENING,2024-02-10,-37,,,,,,MILESTONE 1
BI-1245.110,VS,BI-1245.110-CAN_SITE01-0008,4,PULSE,Pulse Rate,92.6,beats/min,92.6,92.6,beats/min,,,,,1.0,SCREENING,SCREENING,2024-02-10,-37,,,,,,MILESTONE 1
BI-1245.110,VS,BI-1245.110-CAN_SITE01-0008,5,RESP,Respiratory Rate,20.9,breaths/min,20.9,20.9,breaths/min,,,,,1.0,SCREENING,SCREENING,2024-02-10,-37,,,,,,MILESTONE 1
BI-1245.110,VS,BI-1245.110-CAN_SITE01-0008,6,SYSBP,Systolic Blood Pressure,139.0,mmHg,139.0,139.0,mmHg,,,,,1.0,SCREENING,SCREENING,2024-02-10,-37,,,,,,MILESTONE 1
BI-1245.110,VS,BI-1245.110-CAN_SITE01-0008,7,TEMP,Temperature,36.4,C,36.4,36.4,C,,,,,1.0,SCREENING,SCREENING,2024-02-10,-37,,,,,,MILESTONE 1
BI-1245.110,VS,BI-1245.110-CAN_SITE01-0008,8,WEIGHT,Weight,101.1,kg,101.1,101.1,kg,,,,,1.0,SCREENING,SCREENING,2024-02-10,-37,,,,,,MILESTONE 1
BI-1245.110,VS,BI-1245.110-CAN_SITE01-0008,9,BMI,BMI,,,38.5,38.5,kg/m2,,Y,Y,Y,2.0,BASELINE,TREATMENT,2024-03-18,1,,,,,,MILESTONE 1
BI-1245.110,VS,BI-1245.110-CAN_SITE01-0008,10,DIABP,Diastolic Blood Pressure,59.8,mmHg,59.8,59.8,mmHg,,Y,Y,,2.0,BASELINE,TREATMENT,2024-03-18T07:45,1,PRE-DOSE,1,-PT15M,DOSE ADMINISTRATION,2024-03-18T08:00,MILESTONE 1
BI-1245.110,VS,BI-1245.110-CAN_SITE01-0008,11,DIABP,Diastolic Blood Pressure,58.2,mmHg,58.2,58.2,mmHg,,,,,2.0,BASELINE,TREATMENT,2024-03-18T09:00,1,1H POST-DOSE,2,PT1H,DOSE ADMINISTRATION,2024-03-18T08:00,MILESTONE 1
BI-1245.110,VS,BI-1245.110-CAN_SITE01-0008,12,HEIGHT,Height,163.0,cm,163.0,163.0,cm,,Y,Y,,2.0,BASELINE,TREATMENT,2024-03-18,1,,,,,,MILESTONE 1
BI-1245.110,VS,BI-1245.110-CAN_SITE01-0008,13,PULSE,Pulse Rate,90.8,beats/min,90.8,90.8,beats/min,,Y,Y,,2.0,BASELINE,TREATMENT,2024-03-18T07:45,1,PRE-DOSE,1,-PT15M,DOSE ADMINISTRATION,2024-03-18T08:00,MILESTONE 1
BI-1245.110,VS,BI-1245.110-CAN_SITE01-0008,14,PULSE,Pulse Rate,90.4,beats/min,90.4,90.4,beats/min,,,,,2.0,BASELINE,TREATMENT,2024-03-18T09:00,1,1H POST-DOSE,2,PT1H,DOSE ADMINISTRATION,2024-03-18T08:00,MILESTONE 1
BI-1245.110,VS,BI-1245.110-CAN_SITE01-0008,15,RESP,Respiratory Rate,20.5,breaths/min,20.5,20.5,breaths/min,,Y,Y,,2.0,BASELINE,TREATMENT,2024-03-18T07:45,1,PRE-DOSE,1,-PT15M,DOSE ADMINISTRATION,2024-03-18T08:00,MILESTONE 1
BI-1245.110,VS,BI-1245.110-CAN_SITE01-0008,16,RESP,Respiratory Rate,20.3,breaths/min,20.3,20.3,breaths/min,,,,,2.0,BASELINE,TREATMENT,2024-03-18T09:00,1,1H POST-DOSE,2,PT1H,DOSE ADMINISTRATION,2024-03-18T08:00,MILESTONE 1
BI-1245.110,VS,BI-1245.110-CAN_SITE01-0008,17,SYSBP,Systolic Blood Pressure,137.5,mmHg,137.5,137.5,mmHg,,Y,Y,,2.0,BASELINE,TREATMENT,2024-03-18T07:45,1,PRE-DOSE,1,-PT15M,DOSE ADMINISTRATION,2024-03-18T08:00,MILESTONE 1
BI-1245.110,VS,BI-1245.110-CAN_SITE01-0008,18,SYSBP,Systolic Blood Pressure,137.3,mmHg,137.3,137.3,mmHg,,,,,2.0,BASELINE,TREATMENT,2024-03-18T09:00,1,1H POST-DOSE,2,PT1H,DOSE ADMINISTRATION,2024-03-18T08:00,MILESTONE 1
BI-1245.110,VS,BI-1245.110-CAN_SITE01-0008,19,TEMP,Temperature,36.5,C,36.5,36.5,C,,Y,Y,,2.0,BASELINE,TREATMENT,2024-03-18T07:45,1,PRE-DOSE,1,-PT15M,DOSE ADMINISTRATION,2024-03-18T08:00,MILESTONE 1
BI-1245.110,VS,BI-1245.110-CAN_SITE01-0008,20,TEMP,Temperature,36.1,C,36.1,36.1,C,,,,,2.0,BASELINE,TREATMENT,2024-03-18T09:00,1,1H POST-DOSE,2,PT1H,DOSE ADMINISTRATION,2024-03-18T08:00,MILESTONE 1
BI-1245.110,VS,BI-1245.110-CAN_SITE01-0008,21,WEIGHT,Weight,102.3,kg,102.3,102.3,kg,,Y,Y,,2.0,BASELINE,TREATMENT,2024-03-18,1,,,,,,MILESTONE 1
BI-1245.110,VS,BI-1245.110-CAN_SITE01-0008,22,BMI,BMI,,,38.3,38.3,kg/m2,,,,Y,3.0,WEEK 4,TREATMENT,2024-04-11,25,,,,,,MILESTONE 1
BI-1245.110,VS,BI-1245.110-CAN_SITE01-0008,23,DIABP,Diastolic Blood Pressure,60.2,mmHg,60.2,60.2,mmHg,,,,,3.0,WEEK 4,TREATMENT,2024-04-11,25,,,,,,MILESTONE 1
BI-1245.110,VS,BI-1245.110-CAN_SITE01-0008,24,HEIGHT,Height,163.4,cm,163.4,163.4,cm,,,,,3.0,WEEK 4,TREATMENT,2024-04-11,25,,,,,,MILESTONE 1
BI-1245.110,VS,BI-1245.110-CAN_SITE01-0008,25,PULSE,Pulse Rate,90.6,beats/min,90.6,90.6,beats/min,,,,,3.0,WEEK 4,TREATMENT,2024-04-11,25,,,,,,MILESTONE 1
BI-1245.110,VS,BI-1245.110-CAN_SITE01-0008,26,RESP,Respiratory Rate,20.6,breaths/min,20.6,20.6,breaths/min,,,,,3.0,WEEK 4,TREATMENT,2024-04-11,25,,,,,,MILESTONE 1
BI-1245.110,VS,BI-1245.110-CAN_SITE01-0008,27,SYSBP,Systolic Blood Pressure,139.1,mmHg,139.1,139.1,mmHg,,,,,3.0,WEEK 4,TREATMENT,2024-04-11,25,,,,,,MILESTONE 1
BI-1245.110,VS,BI-1245.110-CAN_SITE01-0008,28,TEMP,Temperature,36.5,C,36.5,36.5,C,,,,,3.0,WEEK 4,TREATMENT,2024-04-11,25,,,,,,MILESTONE 1
BI-1245.110,VS,BI-1245.110-CAN_SITE01-0008,29,WEIGHT,Weight,102.3,kg,102.3,102.3,kg,,,,,3.0,WEEK 4,TREATMENT,2024-04-11,25,,,,,,MILESTONE 1
BI-1245.110,VS,BI-1245.110-CAN_SITE01-0008,30,BMI,BMI,,,37.1,37.1,kg/m2,,,,Y,5.0,MONTH 6,TREATMENT,2024-09-19,186,,,,,,MILESTONE 1
BI-1245.110,VS,BI-1245.110-CAN_SITE01-0008,31,DIABP,Diastolic Blood Pressure,60.1,mmHg,60.1,60.1,mmHg,,,,,5.0,MONTH 6,TREATMENT,2024-09-19,186,,,,,,MILESTONE 1
BI-1245.110,VS,BI-1245.110-CAN_SITE01-0008,32,HEIGHT,Height,164.1,cm,164.1,164.1,cm,,,,,5.0,MONTH 6,TREATMENT,2024-09-19,186,,,,,,MILESTONE 1
BI-1245.110,VS,BI-1245.110-CAN_SITE01-0008,33,PULSE,Pulse Rate,91.9,beats/min,91.9,91.9,beats/min,,,,,5.0,MONTH 6,TREATMENT,2024-09-19,186,,,,,,MILESTONE 1
BI-1245.110,VS,BI-1245.110-CAN_SITE01-0008,34,RESP,Respiratory Rate,20.2,breaths/min,20.2,20.2,breaths/min,,,,,5.0,MONTH 6,TREATMENT,2024-09-19,186,,,,,,MILESTONE 1
BI-1245.110,VS,BI-1245.110-CAN_SITE01-0008,35,SYSBP,Systolic Blood Pressure,142.1,mmHg,142.1,142.1,mmHg,,,,,5.0,MONTH 6,TREATMENT,2024-09-19,186,,,,,,MILESTONE 1
BI-1245.110,VS,BI-1245.110-CAN_SITE01-0008,36,TEMP,Temperature,36.5,C,36.5,36.5,C,,,,,5.0,MONTH 6,TREATMENT,2024-09-19,186,,,,,,MILESTONE 1
BI-1245.110,VS,BI-1245.110-CAN_SITE01-0008,37,WEIGHT,Weight,99.8,kg,99.8,99.8,kg,,,,,5.0,MONTH 6,TREATMENT,2024-09-19,186,,,,,,MILESTONE 1
BI-1245.110,VS,BI-1245.110-CAN_SITE01-0008,38,BMI,BMI,,,37.2,37.2,kg/m2,,,,Y,6.0,MONTH 12,TREATMENT,2025-03-19,367,,,,,,MILESTONE 1
BI-1245.110,VS,BI-1245.110-CAN_SITE01-0008,39,DIABP,Diastolic Blood Pressure,49.7,mmHg,49.7,49.7,mmHg,,,,,6.0,MONTH 12,TREATMENT,2025-03-19,367,,,,,,MILESTONE 1
BI-1245.110,VS,BI-1245.110-CAN_SITE01-0008,40,HEIGHT,Height,164.0,cm,164.0,164.0,cm,,,,,6.0,MONTH 12,TREATMENT,2025-03-19,367,,,,,,MILESTONE 1
BI-1245.110,VS,BI-1245.110-CAN_SITE01-0008,41,PULSE,Pulse Rate,94.4,beats/min,94.4,94.4,beats/min,,,,,6.0,MONTH 12,TREATMENT,2025-03-19,367,,,,,,MILESTONE 1
BI-1245.110,VS,BI-1245.110-CAN_SITE01-0008,42,RESP,Respiratory Rate,20.2,breaths/min,20.2,20.2,breaths/min,,,,,6.0,MONTH 12,TREATMENT,2025-03-19,367,,,,,,MILESTONE 1
BI-1245.110,VS,BI-1245.110-CAN_SITE01-0008,43,SYSBP,Systolic Blood Pressure,123.3,mmHg,123.3,123.3,mmHg,,,,,6.0,MONTH 12,TREATMENT,2025-03-19,367,,,,,,MILESTONE 1
BI-1245.110,VS,BI-1245.110-CAN_SITE01-0008,44,TEMP,Temperature,36.6,C,36.6,36.6,C,,,,,6.0,MONTH 12,TREATMENT,2025-03-19,367,,,,,,MILESTONE 1
BI-1245.110,VS,BI-1245.110-CAN_SITE01-0008,45,WEIGHT,Weight,100.0,kg,100.0,100.0,kg,,,,,6.0,MONTH 12,TREATMENT,2025-03-19,367,,,,,,MILESTONE 1
BI-1245.110,VS,BI-1245.110-CAN_SITE01-0015,1,BMI,BMI,,,31.2,31.2,kg/m2,,,,Y,1.0,SCREENING,SCREENING,2024-03-17,-39,,,,,,MILESTONE 1
BI-1245.110,VS,BI-1245.110-CAN_SITE01-0015,2,DIABP,Diastolic Blood Pressure,71.3,mmHg,71.3,71.3,mmHg,,,,,1.0,SCREENING,SCREENING,2024-03-17,-39,,,,,,MILESTONE 1
BI-1245.110,VS,BI-1245.110-CAN_SITE01-0015,3,HEIGHT,Height,157.0,cm,157.0,157.0,cm,,,,,1.0,SCREENING,SCREENING,2024-03-17,-39,,,,,,MILESTONE 1
BI-1245.110,VS,BI-1245.110-CAN_SITE01-0015,4,PULSE,Pulse Rate,78.5,beats/min,78.5,78.5,beats/min,,Y,Y,,1.0,SCREENING,SCREENING,2024-03-17,-39,,,,,,MILESTONE 1
BI-1245.110,VS,BI-1245.110-CAN_SITE01-0015,5,RESP,Respiratory Rate,17.0,breaths/min,17.0,17.0,breaths/min,,,,,1.0,SCREENING,SCREENING,2024-03-17,-39,,,,,,MILESTONE 1
BI-1245.110,VS,BI-1245.110-CAN_SITE01-0015,6,SYSBP,Systolic Blood Pressure,138.0,mmHg,138.0,138.0,mmHg,,,,,1.0,SCREENING,SCREENING,2024-03-17,-39,,,,,,MILESTONE 1
BI-1245.110,VS,BI-1245.110-CAN_SITE01-0015,7,TEMP,Temperature,36.3,C,36.3,36.3,C,,,,,1.0,SCREENING,SCREENING,2024-03-17,-39,,,,,,MILESTONE 1
BI-1245.110,VS,BI-1245.110-CAN_SITE01-0015,8,WEIGHT,Weight,76.8,kg,76.8,76.8,kg,,,,,1.0,SCREENING,SCREENING,2024-03-17,-39,,,,,,MILESTONE 1
BI-1245.110,VS,BI-1245.110-CAN_SITE01-0015,9,BMI,BMI,,,31.4,31.4,kg/m2,,Y,Y,Y,2.0,BASELINE,TREATMENT,2024-04-25,1,,,,,,MILESTONE 1
BI-1245.110,VS,BI-1245.110-CAN_SITE01-0015,10,DIABP,Diastolic Blood Pressure,70.1,mmHg,70.1,70.1,mmHg,,Y,Y,,2.0,BASELINE,TREATMENT,2024-04-25T07:45,1,PRE-DOSE,1,-PT15M,DOSE ADMINISTRATION,2024-04-25T08:00,MILESTONE 1
BI-1245.110,VS,BI-1245.110-CAN_SITE01-0015,11,DIABP,Diastolic Blood Pressure,69.0,mmHg,69.0,69.0,mmHg,,,,,2.0,BASELINE,TREATMENT,2024-04-25T09:00,1,1H POST-DOSE,2,PT1H,DOSE ADMINISTRATION,2024-04-25T08:00,MILESTONE 1
BI-1245.110,VS,BI-1245.110-CAN_SITE01-0015,12,HEIGHT,Height,156.9,cm,156.9,156.9,cm,,Y,Y,,2.0,BASELINE,TREATMENT,2024-04-25,1,,,,,,MILESTONE 1
BI-1245.110,VS,BI-1245.110-CAN_SITE01-0015,13,PULSE,Pulse Rate,,,,,,NOT DONE,,,,2.0,BASELINE,TREATMENT,2024-04-25,1,,,,,,MILESTONE 1
BI-1245.110,VS,BI-1245.110-CAN_SITE01-0015,14,RESP,Respiratory Rate,17.1,breaths/min,17.1,17.1,breaths/min,,Y,Y,,2.0,BASELINE,TREATMENT,2024-04-25T07:45,1,PRE-DOSE,1,-PT15M,DOSE ADMINISTRATION,2024-04-25T08:00,MILESTONE 1
BI-1245.110,VS,BI-1245.110-CAN_SITE01-0015,15,RESP,Respiratory Rate,17.1,breaths/min,17.1,17.1,breaths/min,,,,,2.0,BASELINE,TREATMENT,2024-04-25T09:00,1,1H POST-DOSE,2,PT1H,DOSE ADMINISTRATION,2024-04-25T08:00,MILESTONE 1
BI-1245.110,VS,BI-1245.110-CAN_SITE01-0015,16,SYSBP,Systolic Blood Pressure,132.9,mmHg,132.9,132.9,mmHg,,Y,Y,,2.0,BASELINE,TREATMENT,2024-04-25T07:45,1,PRE-DOSE,1,-PT15M,DOSE ADMINISTRATION,2024-04-25T08:00,MILESTONE 1
BI-1245.110,VS,BI-1245.110-CAN_SITE01-0015,17,SYSBP,Systolic Blood Pressure,135.4,mmHg,135.4,135.4,mmHg,,,,,2.0,BASELINE,TREATMENT,2024-04-25T09:00,1,1H POST-DOSE,2,PT1H,DOSE ADMINISTRATION,2024-04-25T08:00,MILESTONE 1
BI-1245.110,VS,BI-1245.110-CAN_SITE01-0015,18,TEMP,Temperature,36.3,C,36.3,36.3,C,,Y,Y,,2.0,BASELINE,TREATMENT,2024-04-25T07:45,1,PRE-DOSE,1,-PT15M,DOSE ADMINISTRATION,2024-04-25T08:00,MILESTONE 1
BI-1245.110,VS,BI-1245.110-CAN_SITE01-0015,19,TEMP,Temperature,35.4,C,35.4,35.4,C,,,,,2.0,BASELINE,TREATMENT,2024-04-25T09:00,1,1H POST-DOSE,2,PT1H,DOSE ADMINISTRATION,2024-04-25T08:00,MILESTONE 1
BI-1245.110,VS,BI-1245.110-CAN_SITE01-0015,20,WEIGHT,Weight,77.3,kg,77.3,77.3,kg,,Y,Y,,2.0,BASELINE,TREATMENT,2024-04-25,1,,,,,,MILESTONE 1
BI-1245.110,VS,BI-1245.110-CAN_SITE01-0015,21,BMI,BMI,,,30.9,30.9,kg/m2,,,,Y,3.0,WEEK 4,TREATMENT,2024-05-25,31,,,,,,MILESTONE 1
BI-1245.110,VS,BI-1245.110-CAN_SITE01-0015,22,DIABP,Diastolic Blood Pressure,72.1,mmHg,72.1,72.1,mmHg,,,,,3.0,WEEK 4,TREATMENT,2024-05-25,31,,,,,,MILESTONE 1
BI-1245.110,VS,BI-1245.110-CAN_SITE01-0015,23,HEIGHT,Height,157.3,cm,157.3,157.3,cm,,,,,3.0,WEEK 4,TREATMENT,2024-05-25,31,,,,,,MILESTONE 1
BI-1245.110,VS,BI-1245.110-CAN_SITE01-0015,24,PULSE,Pulse Rate,78.6,beats/min,78.6,78.6,beats/min,,,,,3.0,WEEK 4,TREATMENT,2024-05-25,31,,,,,,MILESTONE 1
BI-1245.110,VS,BI-1245.110-CAN_SITE01-0015,25,RESP,Respiratory Rate,17.3,breaths/min,17.3,17.3,breaths/min,,,,,3.0,WEEK 4,TREATMENT,2024-05-25,31,,,,,,MILESTONE 1
BI-1245.110,VS,BI-1245.110-CAN_SITE01-0015,26,SYSBP,Systolic Blood Pressure,141.7,mmHg,141.7,141.7,mmHg,,,,,3.0,WEEK 4,TREATMENT,2024-05-25,31,,,,,,MILESTONE 1
BI-1245.110,VS,BI-1245.110-CAN_SITE01-0015,27,TEMP,Temperature,36.0,C,36.0,36.0,C,,,,,3.0,WEEK 4,TREATMENT,2024-05-25,31,,,,,,MILESTONE 1
BI-1245.110,VS,BI-1245.110-CAN_SITE01-0015,28,WEIGHT,Weight,76.4,kg,76.4,76.4,kg,,,,,3.0,WEEK 4,TREATMENT,2024-05-25,31,,,,,,MILESTONE 1
BI-1245.110,VS,BI-1245.110-CAN_SITE01-0015,29,BMI,BMI,,,30.0,30.0,kg/m2,,,,Y,4.0,WEEK 12,TREATMENT,2024-07-18,85,,,,,,MILESTONE 1
BI-1245.110,VS,BI-1245.110-CAN_SITE01-0015,30,DIABP,Diastolic Blood Pressure,,,,,,NOT DONE,,,,4.0,WEEK 12,TREATMENT,2024-07-18,85,,,,,,MILESTONE 1
BI-1245.110,VS,BI-1245.110-CAN_SITE01-0015,31,HEIGHT,Height,158.2,cm,158.2,158.2,cm,,,,,4.0,WEEK 12,TREATMENT,2024-07-18,85,,,,,,MILESTONE 1
BI-1245.110,VS,BI-1245.110-CAN_SITE01-0015,32,PULSE,Pulse Rate,78.3,beats/min,78.3,78.3,beats/min,,,,,4.0,WEEK 12,TREATMENT,2024-07-18,85,,,,,,MILESTONE 1
BI-1245.110,VS,BI-1245.110-CAN_SITE01-0015,33,RESP,Respiratory Rate,17.7,breaths/min,17.7,17.7,breaths/min,,,,,4.0,WEEK 12,TREATMENT,2024-07-18,85,,,,,,MILESTONE 1
BI-1245.110,VS,BI-1245.110-CAN_SITE01-0015,34,SYSBP,Systolic Blood Pressure,126.9,mmHg,126.9,126.9,mmHg,,,,,4.0,WEEK 12,TREATMENT,2024-07-18,85,,,,,,MILESTONE 1
BI-1245.110,VS,BI-1245.110-CAN_SITE01-0015,35,TEMP,Temperature,36.1,C,36.1,36.1,C,,,,,4.0,WEEK 12,TREATMENT,2024-07-18,85,,,,,,MILESTONE 1
BI-1245.110,VS,BI-1245.110-CAN_SITE01-0015,36,WEIGHT,Weight,75.1,kg,75.1,75.1,kg,,,,,4.0,WEEK 12,TREATMENT,2024-07-18,85,,,,,,MILESTONE 1
BI-1245.110,VS,BI-1245.110-JPN_SITE01-0003,1,BMI,BMI,,,31.2,31.2,kg/m2,,,,Y,1.0,SCREENING,SCREENING,2024-02-09,-32,,,,,,MILESTONE 1
BI-1245.110,VS,BI-1245.110-JPN_SITE01-0003,2,DIABP,Diastolic Blood Pressure,92.2,mmHg,92.2,92.2,mmHg,,,,,1.0,SCREENING,SCREENING,2024-02-09,-32,,,,,,MILESTONE 1
BI-1245.110,VS,BI-1245.110-JPN_SITE01-0003,3,HEIGHT,Height,163.1,cm,163.1,163.1,cm,,,,,1.0,SCREENING,SCREENING,2024-02-09,-32,,,,,,MILESTONE 1
BI-1245.110,VS,BI-1245.110-JPN_SITE01-0003,4,PULSE,Pulse Rate,57.7,beats/min,57.7,57.7,beats/min,,,,,1.0,SCREENING,SCREENING,2024-02-09,-32,,,,,,MILESTONE 1
BI-1245.110,VS,BI-1245.110-JPN_SITE01-0003,5,RESP,Respiratory Rate,15.3,breaths/min,15.3,15.3,breaths/min,,,,,1.0,SCREENING,SCREENING,2024-02-09,-32,,,,,,MILESTONE 1
BI-1245.110,VS,BI-1245.110-JPN_SITE01-0003,6,SYSBP,Systolic Blood Pressure,146.8,mmHg,146.8,146.8,mmHg,,,,,1.0,SCREENING,SCREENING,2024-02-09,-32,,,,,,MILESTONE 1
BI-1245.110,VS,BI-1245.110-JPN_SITE01-0003,7,TEMP,Temperature,36.2,C,36.2,36.2,C,,,,,1.0,SCREENING,SCREENING,2024-02-09,-32,,,,,,MILESTONE 1
BI-1245.110,VS,BI-1245.110-JPN_SITE01-0003,8,WEIGHT,Weight,83.0,kg,83.0,83.0,kg,,,,,1.0,SCREENING,SCREENING,2024-02-09,-32,,,,,,MILESTONE 1
BI-1245.110,VS,BI-1245.110-JPN_SITE01-0003,9,BMI,BMI,,,31.4,31.4,kg/m2,,Y,Y,Y,2.0,BASELINE,TREATMENT,2024-03-12,1,,,,,,MILESTONE 1
BI-1245.110,VS,BI-1245.110-JPN_SITE01-0003,10,DIABP,Diastolic Blood Pressure,93.6,mmHg,93.6,93.6,mmHg,,Y,Y,,2.0,BASELINE,TREATMENT,2024-03-12T07:45,1,PRE-DOSE,1,-PT15M,DOSE ADMINISTRATION,2024-03-12T08:00,MILESTONE 1
BI-1245.110,VS,BI-1245.110-JPN_SITE01-0003,11,DIABP,Diastolic Blood Pressure,95.6,mmHg,95.6,95.6,mmHg,,,,,2.0,BASELINE,TREATMENT,2024-03-12T09:00,1,1H POST-DOSE,2,PT1H,DOSE ADMINISTRATION,2024-03-12T08:00,MILESTONE 1
BI-1245.110,VS,BI-1245.110-JPN_SITE01-0003,12,HEIGHT,Height,163.1,cm,163.1,163.1,cm,,Y,Y,,2.0,BASELINE,TREATMENT,2024-03-12,1,,,,,,MILESTONE 1
BI-1245.110,VS,BI-1245.110-JPN_SITE01-0003,13,PULSE,Pulse Rate,56.1,beats/min,56.1,56.1,beats/min,,Y,Y,,2.0,BASELINE,TREATMENT,2024-03-12T07:45,1,PRE-DOSE,1,-PT15M,DOSE ADMINISTRATION,2024-03-12T08:00,MILESTONE 1
BI-1245.110,VS,BI-1245.110-JPN_SITE01-0003,14,PULSE,Pulse Rate,56.6,beats/min,56.6,56.6,beats/min,,,,,2.0,BASELINE,TREATMENT,2024-03-12T09:00,1,1H POST-DOSE,2,PT1H,DOSE ADMINISTRATION,2024-03-12T08:00,MILESTONE 1
BI-1245.110,VS,BI-1245.110-JPN_SITE01-0003,15,RESP,Respiratory Rate,17.5,breaths/min,17.5,17.5,breaths/min,,Y,Y,,2.0,BASELINE,TREATMENT,2024-03-12T07:45,1,PRE-DOSE,1,-PT15M,DOSE ADMINISTRATION,2024-03-12T08:00,MILESTONE 1
BI-1245.110,VS,BI-1245.110-JPN_SITE01-0003,16,RESP,Respiratory Rate,16.7,breaths/min,16.7,16.7,breaths/min,,,,,2.0,BASELINE,TREATMENT,2024-03-12T09:00,1,1H POST-DOSE,2,PT1H,DOSE ADMINISTRATION,2024-03-12T08:00,MILESTONE 1
BI-1245.110,VS,BI-1245.110-JPN_SITE01-0003,17,SYSBP,Systolic Blood Pressure,147.6,mmHg,147.6,147.6,mmHg,,Y,Y,,2.0,BASELINE,TREATMENT,2024-03-12T07:45,1,PRE-DOSE,1,-PT15M,DOSE ADMINISTRATION,2024-03-12T08:00,MILESTONE 1
BI-1245.110,VS,BI-1245.110-JPN_SITE01-0003,18,SYSBP,Systolic Blood Pressure,150.7,mmHg,150.7,150.7,mmHg,,,,,2.0,BASELINE,TREATMENT,2024-03-12T09:00,1,1H POST-DOSE,2,PT1H,DOSE ADMINISTRATION,2024-03-12T08:00,MILESTONE 1
BI-1245.110,VS,BI-1245.110-JPN_SITE01-0003,19,TEMP,Temperature,35.8,C,35.8,35.8,C,,Y,Y,,2.0,BASELINE,TREATMENT,2024-03-12T07:45,1,PRE-DOSE,1,-PT15M,DOSE ADMINISTRATION,2024-03-12T08:00,MILESTONE 1
BI-1245.110,VS,BI-1245.110-JPN_SITE01-0003,20,TEMP,Temperature,35.4,C,35.4,35.4,C,,,,,2.0,BASELINE,TREATMENT,2024-03-12T09:00,1,1H POST-DOSE,2,PT1H,DOSE ADMINISTRATION,2024-03-12T08:00,MILESTONE 1
BI-1245.110,VS,BI-1245.110-JPN_SITE01-0003,21,WEIGHT,Weight,83.4,kg,83.4,83.4,kg,,Y,Y,,2.0,BASELINE,TREATMENT,2024-03-12,1,,,,,,MILESTONE 1
BI-1245.110,VS,BI-1245.110-JPN_SITE01-0003,22,BMI,BMI,,,32.1,32.1,kg/m2,,,,Y,3.0,WEEK 4,TREATMENT,2024-04-05,25,,,,,,MILESTONE 1
BI-1245.110,VS,BI-1245.110-JPN_SITE01-0003,23,DIABP,Diastolic Blood Pressure,94.4,mmHg,94.4,94.4,mmHg,,,,,3.0,WEEK 4,TREATMENT,2024-04-05,25,,,,,,MILESTONE 1
BI-1245.110,VS,BI-1245.110-JPN_SITE01-0003,24,HEIGHT,Height,162.6,cm,162.6,162.6,cm,,,,,3.0,WEEK 4,TREATMENT,2024-04-05,25,,,,,,MILESTONE 1
BI-1245.110,VS,BI-1245.110-JPN_SITE01-0003,25,PULSE,Pulse Rate,60.8,beats/min,60.8,60.8,beats/min,,,,,3.0,WEEK 4,TREATMENT,2024-04-05,25,,,,,,MILESTONE 1
BI-1245.110,VS,BI-1245.110-JPN_SITE01-0003,26,RESP,Respiratory Rate,16.6,breaths/min,16.6,16.6,breaths/min,,,,,3.0,WEEK 4,TREATMENT,2024-04-05,25,,,,,,MILESTONE 1
BI-1245.110,VS,BI-1245.110-JPN_SITE01-0003,27,SYSBP,Systolic Blood Pressure,151.0,mmHg,151.0,151.0,mmHg,,,,,3.0,WEEK 4,TREATMENT,2024-04-05,25,,,,,,MILESTONE 1
BI-1245.110,VS,BI-1245.110-JPN_SITE01-0003,28,TEMP,Temperature,36.0,C,36.0,36.0,C,,,,,3.0,WEEK 4,TREATMENT,2024-04-05,25,,,,,,MILESTONE 1
BI-1245.110,VS,BI-1245.110-JPN_SITE01-0003,29,WEIGHT,Weight,84.8,kg,84.8,84.8,kg,,,,,3.0,WEEK 4,TREATMENT,2024-04-05,25,,,,,,MILESTONE 1
BI-1245.110,VS,BI-1245.110-JPN_SITE01-0003,30,BMI,BMI,,,31.8,31.8,kg/m2,,,,Y,4.0,WEEK 12,TREATMENT,2024-06-11,92,,,,,,MILESTONE 1
BI-1245.110,VS,BI-1245.110-JPN_SITE01-0003,31,DIABP,Diastolic Blood Pressure,93.5,mmHg,93.5,93.5,mmHg,,,,,4.0,WEEK 12,TREATMENT,2024-06-11,92,,,,,,MILESTONE 1
BI-1245.110,VS,BI-1245.110-JPN_SITE01-0003,32,HEIGHT,Height,162.0,cm,162.0,162.0,cm,,,,,4.0,WEEK 12,TREATMENT,2024-06-11,92,,,,,,MILESTONE 1
BI-1245.110,VS,BI-1245.110-JPN_SITE01-0003,33,PULSE,Pulse Rate,61.5,beats/min,61.5,61.5,beats/min,,,,,4.0,WEEK 12,TREATMENT,2024-06-11,92,,,,,,MILESTONE 1
BI-1245.110,VS,BI-1245.110-JPN_SITE01-0003,34,RESP,Respiratory Rate,17.2,breaths/min,17.2,17.2,breaths/min,,,,,4.0,WEEK 12,TREATMENT,2024-06-11,92,,,,,,MILESTONE 1
BI-1245.110,VS,BI-1245.110-JPN_SITE01-0003,35,SYSBP,Systolic Blood Pressure,148.7,mmHg,148.7,148.7,mmHg,,,,,4.0,WEEK 12,TREATMENT,2024-06-11,92,,,,,,MILESTONE 1
BI-1245.110,VS,BI-1245.110-JPN_SITE01-0003,36,TEMP,Temperature,36.0,C,36.0,36.0,C,,,,,4.0,WEEK 12,TREATMENT,2024-06-11,92,,,,,,MILESTONE 1
BI-1245.110,VS,BI-1245.110-JPN_SITE01-0003,37,WEIGHT,Weight,83.5,kg,83.5,83.5,kg,,,,,4.0,WEEK 12,TREATMENT,2024-06-11,92,,,,,,MILESTONE 1
BI-1245.110,VS,BI-1245.110-JPN_SITE01-0003,38,BMI,BMI,,,30.6,30.6,kg/m2,,,,Y,5.0,MONTH 6,TREATMENT,2024-08-27,169,,,,,,MILESTONE 1
BI-1245.110,VS,BI-1245.110-JPN_SITE01-0003,39,DIABP,Diastolic Blood Pressure,93.9,mmHg,93.9,93.9,mmHg,,,,,5.0,MONTH 6,TREATMENT,2024-08-27,169,,,,,,MILESTONE 1
BI-1245.110,VS,BI-1245.110-JPN_SITE01-0003,40,HEIGHT,Height,162.5,cm,162.5,162.5,cm,,,,,5.0,MONTH 6,TREATMENT,2024-08-27,169,,,,,,MILESTONE 1
BI-1245.110,VS,BI-1245.110-JPN_SITE01-0003,41,PULSE,Pulse Rate,62.5,beats/min,62.5,62.5,beats/min,,,,,5.0,MONTH 6,TREATMENT,2024-08-27,169,,,,,,MILESTONE 1
BI-1245.110,VS,BI-1245.110-JPN_SITE01-0003,42,RESP,Respiratory Rate,17.3,breaths/min,17.3,17.3,breaths/min,,,,,5.0,MONTH 6,TREATMENT,2024-08-27,169,,,,,,MILESTONE 1
BI-1245.110,VS,BI-1245.110-JPN_SITE01-0003,43,SYSBP,Systolic Blood Pressure,150.1,mmHg,150.1,150.1,mmHg,,,,,5.0,MONTH 6,TREATMENT,2024-08-27,169,,,,,,MILESTONE 1
BI-1245.110,VS,BI-1245.110-JPN_SITE01-0003,44,TEMP,Temperature,35.9,C,35.9,35.9,C,,,,,5.0,MONTH 6,TREATMENT,2024-08-27,169,,,,,,MILESTONE 1
BI-1245.110,VS,BI-1245.110-JPN_SITE01-0003,45,WEIGHT,Weight,80.9,kg,80.9,80.9,kg,,,,,5.0,MONTH 6,TREATMENT,2024-08-27,169,,,,,,MILESTONE 1
BI-1245.110,VS,BI-1245.110-JPN_SITE01-0003,46,BMI,BMI,,,29.5,29.5,kg/m2,,,,Y,6.0,MONTH 12,TREATMENT,2025-03-14,368,,,,,,MILESTONE 1
BI-1245.110,VS,BI-1245.110-JPN_SITE01-0003,47,DIABP,Diastolic Blood Pressure,95.2,mmHg,95.2,95.2,mmHg,,,,,6.0,MONTH 12,TREATMENT,2025-03-14,368,,,,,,MILESTONE 1
BI-1245.110,VS,BI-1245.110-JPN_SITE01-0003,48,HEIGHT,Height,163.0,cm,163.0,163.0,cm,,,,,6.0,MONTH 12,TREATMENT,2025-03-14,368,,,,,,MILESTONE 1
BI-1245.110,VS,BI-1245.110-JPN_SITE01-0003,49,PULSE,Pulse Rate,63.0,beats/min,63.0,63.0,beats/min,,,,,6.0,MONTH 12,TREATMENT,2025-03-14,368,,,,,,MILESTONE 1
BI-1245.110,VS,BI-1245.110-JPN_SITE01-0003,50,RESP,Respiratory Rate,17.5,breaths/min,17.5,17.5,breaths/min,,,,,6.0,MONTH 12,TREATMENT,2025-03-14,368,,,,,,MILESTONE 1
BI-1245.110,VS,BI-1245.110-JPN_SITE01-0003,51,SYSBP,Systolic Blood Pressure,151.5,mmHg,151.5,151.5,mmHg,,,,,6.0,MONTH 12,TREATMENT,2025-03-14,368,,,,,,MILESTONE 1
BI-1245.110,VS,BI-1245.110-JPN_SITE01-0003,52,TEMP,Temperature,36.1,C,36.1,36.1,C,,,,,6.0,MONTH 12,TREATMENT,2025-03-14,368,,,,,,MILESTONE 1
BI-1245.110,VS,BI-1245.110-JPN_SITE01-0003,53,WEIGHT,Weight,78.4,kg,78.4,78.4,kg,,,,,6.0,MONTH 12,TREATMENT,2025-03-14,368,,,,,,MILESTONE 1
BI-1245.110,VS,BI-1245.110-JPN_SITE01-0003,54,BMI,BMI,,,29.4,29.4,kg/m2,,,,Y,8.0,MONTH 24,TREATMENT,2026-03-10,729,,,,,,MILESTONE 1
BI-1245.110,VS,BI-1245.110-JPN_SITE01-0003,55,DIABP,Diastolic Blood Pressure,94.9,mmHg,94.9,94.9,mmHg,,,,,8.0,MONTH 24,TREATMENT,2026-03-10,729,,,,,,MILESTONE 1
BI-1245.110,VS,BI-1245.110-JPN_SITE01-0003,56,HEIGHT,Height,163.5,cm,163.5,163.5,cm,,,,,8.0,MONTH 24,TREATMENT,2026-03-10,729,,,,,,MILESTONE 1
BI-1245.110,VS,BI-1245.110-JPN_SITE01-0003,57,PULSE,Pulse Rate,57.3,beats/min,57.3,57.3,beats/min,,,,,8.0,MONTH 24,TREATMENT,2026-03-10,729,,,,,,MILESTONE 1
BI-1245.110,VS,BI-1245.110-JPN_SITE01-0003,58,RESP,Respiratory Rate,17.9,breaths/min,17.9,17.9,breaths/min,,,,,8.0,MONTH 24,TREATMENT,2026-03-10,729,,,,,,MILESTONE 1
BI-1245.110,VS,BI-1245.110-JPN_SITE01-0003,59,SYSBP,Systolic Blood Pressure,150.3,mmHg,150.3,150.3,mmHg,,,,,8.0,MONTH 24,TREATMENT,2026-03-10,729,,,,,,MILESTONE 1
BI-1245.110,VS,BI-1245.110-JPN_SITE01-0003,60,TEMP,Temperature,36.1,C,36.1,36.1,C,,,,,8.0,MONTH 24,TREATMENT,2026-03-10,729,,,,,,MILESTONE 1
BI-1245.110,VS,BI-1245.110-JPN_SITE01-0003,61,WEIGHT,Weight,78.6,kg,78.6,78.6,kg,,,,,8.0,MONTH 24,TREATMENT,2026-03-10,729,,,,,,MILESTONE 1
BI-1245.110,VS,BI-1245.110-JPN_SITE01-0003,62,BMI,BMI,,,29.5,29.5,kg/m2,,,,Y,9.0,EOT,TREATMENT,2026-05-30,810,,,,,,MILESTONE 1
BI-1245.110,VS,BI-1245.110-JPN_SITE01-0003,63,DIABP,Diastolic Blood Pressure,93.5,mmHg,93.5,93.5,mmHg,,,,,9.0,EOT,TREATMENT,2026-05-30,810,,,,,,MILESTONE 1
BI-1245.110,VS,BI-1245.110-JPN_SITE01-0003,64,HEIGHT,Height,163.6,cm,163.6,163.6,cm,,,,,9.0,EOT,TREATMENT,2026-05-30,810,,,,,,MILESTONE 1
BI-1245.110,VS,BI-1245.110-JPN_SITE01-0003,65,PULSE,Pulse Rate,59.4,beats/min,59.4,59.4,beats/min,,,,,9.0,EOT,TREATMENT,2026-05-30,810,,,,,,MILESTONE 1
BI-1245.110,VS,BI-1245.110-JPN_SITE01-0003,66,RESP,Respiratory Rate,17.3,breaths/min,17.3,17.3,breaths/min,,,,,9.0,EOT,TREATMENT,2026-05-30,810,,,,,,MILESTONE 1
BI-1245.110,VS,BI-1245.110-JPN_SITE01-0003,67,SYSBP,Systolic Blood Pressure,148.3,mmHg,148.3,148.3,mmHg,,,,,9.0,EOT,TREATMENT,2026-05-30,810,,,,,,MILESTONE 1
BI-1245.110,VS,BI-1245.110-JPN_SITE01-0003,68,TEMP,Temperature,36.0,C,36.0,36.0,C,,,,,9.0,EOT,TREATMENT,2026-05-30,810,,,,,,MILESTONE 1
BI-1245.110,VS,BI-1245.110-JPN_SITE01-0003,69,WEIGHT,Weight,78.9,kg,78.9,78.9,kg,,,,,9.0,EOT,TREATMENT,2026-05-30,810,,,,,,MILESTONE 1
BI-1245.110,VS,BI-1245.110-JPN_SITE01-0003,70,BMI,BMI,,,29.9,29.9,kg/m2,,,,Y,10.0,SAFETY FU,FOLLOW-UP,2026-06-26,837,,,,,,MILESTONE 1
BI-1245.110,VS,BI-1245.110-JPN_SITE01-0003,71,DIABP,Diastolic Blood Pressure,97.1,mmHg,97.1,97.1,mmHg,,,,,10.0,SAFETY FU,FOLLOW-UP,2026-06-26,837,,,,,,MILESTONE 1
BI-1245.110,VS,BI-1245.110-JPN_SITE01-0003,72,HEIGHT,Height,164.0,cm,164.0,164.0,cm,,,,,10.0,SAFETY FU,FOLLOW-UP,2026-06-26,837,,,,,,MILESTONE 1
BI-1245.110,VS,BI-1245.110-JPN_SITE01-0003,73,PULSE,Pulse Rate,64.0,beats/min,64.0,64.0,beats/min,,,,,10.0,SAFETY FU,FOLLOW-UP,2026-06-26,837,,,,,,MILESTONE 1
BI-1245.110,VS,BI-1245.110-JPN_SITE01-0003,74,RESP,Respiratory Rate,17.2,breaths/min,17.2,17.2,breaths/min,,,,,10.0,SAFETY FU,FOLLOW-UP,2026-06-26,837,,,,,,MILESTONE 1
BI-1245.110,VS,BI-1245.110-JPN_SITE01-0003,75,SYSBP,Systolic Blood Pressure,151.9,mmHg,151.9,151.9,mmHg,,,,,10.0,SAFETY FU,FOLLOW-UP,2026-06-26,837,,,,,,MILESTONE 1
BI-1245.110,VS,BI-1245.110-JPN_SITE01-0003,76,TEMP,Temperature,36.1,C,36.1,36.1,C,,,,,10.0,SAFETY FU,FOLLOW-UP,2026-06-26,837,,,,,,MILESTONE 1
BI-1245.110,VS,BI-1245.110-JPN_SITE01-0003,77,WEIGHT,Weight,80.5,kg,80.5,80.5,kg,,,,,10.0,SAFETY FU,FOLLOW-UP,2026-06-26,837,,,,,,MILESTONE 1
BI-1245.110,VS,BI-1245.110-JPN_SITE01-0013,1,BMI,BMI,,,41.7,41.7,kg/m2,,,,Y,1.0,SCREENING,SCREENING,2024-02-23,-34,,,,,,MILESTONE 1
BI-1245.110,VS,BI-1245.110-JPN_SITE01-0013,2,DIABP,Diastolic Blood Pressure,91.4,mmHg,91.4,91.4,mmHg,,,,,1.0,SCREENING,SCREENING,2024-02-23,-34,,,,,,MILESTONE 1
BI-1245.110,VS,BI-1245.110-JPN_SITE01-0013,3,HEIGHT,Height,151.6,cm,151.6,151.6,cm,,,,,1.0,SCREENING,SCREENING,2024-02-23,-34,,,,,,MILESTONE 1
BI-1245.110,VS,BI-1245.110-JPN_SITE01-0013,4,PULSE,Pulse Rate,66.2,beats/min,66.2,66.2,beats/min,,,,,1.0,SCREENING,SCREENING,2024-02-23,-34,,,,,,MILESTONE 1
BI-1245.110,VS,BI-1245.110-JPN_SITE01-0013,5,RESP,Respiratory Rate,20.1,breaths/min,20.1,20.1,breaths/min,,,,,1.0,SCREENING,SCREENING,2024-02-23,-34,,,,,,MILESTONE 1
BI-1245.110,VS,BI-1245.110-JPN_SITE01-0013,6,SYSBP,Systolic Blood Pressure,136.6,mmHg,136.6,136.6,mmHg,,,,,1.0,SCREENING,SCREENING,2024-02-23,-34,,,,,,MILESTONE 1
BI-1245.110,VS,BI-1245.110-JPN_SITE01-0013,7,TEMP,Temperature,36.8,C,36.8,36.8,C,,,,,1.0,SCREENING,SCREENING,2024-02-23,-34,,,,,,MILESTONE 1
BI-1245.110,VS,BI-1245.110-JPN_SITE01-0013,8,WEIGHT,Weight,95.8,kg,95.8,95.8,kg,,,,,1.0,SCREENING,SCREENING,2024-02-23,-34,,,,,,MILESTONE 1
BI-1245.110,VS,BI-1245.110-JPN_SITE01-0013,9,BMI,BMI,,,42.1,42.1,kg/m2,,Y,Y,Y,2.0,BASELINE,TREATMENT,2024-03-28,1,,,,,,MILESTONE 1
BI-1245.110,VS,BI-1245.110-JPN_SITE01-0013,10,DIABP,Diastolic Blood Pressure,93.5,mmHg,93.5,93.5,mmHg,,Y,Y,,2.0,BASELINE,TREATMENT,2024-03-28T07:45,1,PRE-DOSE,1,-PT15M,DOSE ADMINISTRATION,2024-03-28T08:00,MILESTONE 1
BI-1245.110,VS,BI-1245.110-JPN_SITE01-0013,11,DIABP,Diastolic Blood Pressure,94.2,mmHg,94.2,94.2,mmHg,,,,,2.0,BASELINE,TREATMENT,2024-03-28T09:00,1,1H POST-DOSE,2,PT1H,DOSE ADMINISTRATION,2024-03-28T08:00,MILESTONE 1
BI-1245.110,VS,BI-1245.110-JPN_SITE01-0013,12,HEIGHT,Height,151.8,cm,151.8,151.8,cm,,Y,Y,,2.0,BASELINE,TREATMENT,2024-03-28,1,,,,,,MILESTONE 1
BI-1245.110,VS,BI-1245.110-JPN_SITE01-0013,13,PULSE,Pulse Rate,68.1,beats/min,68.1,68.1,beats/min,,Y,Y,,2.0,BASELINE,TREATMENT,2024-03-28T07:45,1,PRE-DOSE,1,-PT15M,DOSE ADMINISTRATION,2024-03-28T08:00,MILESTONE 1
BI-1245.110,VS,BI-1245.110-JPN_SITE01-0013,14,PULSE,Pulse Rate,68.1,beats/min,68.1,68.1,beats/min,,,,,2.0,BASELINE,TREATMENT,2024-03-28T09:00,1,1H POST-DOSE,2,PT1H,DOSE ADMINISTRATION,2024-03-28T08:00,MILESTONE 1
BI-1245.110,VS,BI-1245.110-JPN_SITE01-0013,15,RESP,Respiratory Rate,20.5,breaths/min,20.5,20.5,breaths/min,,Y,Y,,2.0,BASELINE,TREATMENT,2024-03-28T07:45,1,PRE-DOSE,1,-PT15M,DOSE ADMINISTRATION,2024-03-28T08:00,MILESTONE 1
BI-1245.110,VS,BI-1245.110-JPN_SITE01-0013,16,RESP,Respiratory Rate,21.2,breaths/min,21.2,21.2,breaths/min,,,,,2.0,BASELINE,TREATMENT,2024-03-28T09:00,1,1H POST-DOSE,2,PT1H,DOSE ADMINISTRATION,2024-03-28T08:00,MILESTONE 1
BI-1245.110,VS,BI-1245.110-JPN_SITE01-0013,17,SYSBP,Systolic Blood Pressure,137.8,mmHg,137.8,137.8,mmHg,,Y,Y,,2.0,BASELINE,TREATMENT,2024-03-28T07:45,1,PRE-DOSE,1,-PT15M,DOSE ADMINISTRATION,2024-03-28T08:00,MILESTONE 1
BI-1245.110,VS,BI-1245.110-JPN_SITE01-0013,18,SYSBP,Systolic Blood Pressure,138.5,mmHg,138.5,138.5,mmHg,,,,,2.0,BASELINE,TREATMENT,2024-03-28T09:00,1,1H POST-DOSE,2,PT1H,DOSE ADMINISTRATION,2024-03-28T08:00,MILESTONE 1
BI-1245.110,VS,BI-1245.110-JPN_SITE01-0013,19,TEMP,Temperature,36.9,C,36.9,36.9,C,,Y,Y,,2.0,BASELINE,TREATMENT,2024-03-28T07:45,1,PRE-DOSE,1,-PT15M,DOSE ADMINISTRATION,2024-03-28T08:00,MILESTONE 1
BI-1245.110,VS,BI-1245.110-JPN_SITE01-0013,20,TEMP,Temperature,37.5,C,37.5,37.5,C,,,,,2.0,BASELINE,TREATMENT,2024-03-28T09:00,1,1H POST-DOSE,2,PT1H,DOSE ADMINISTRATION,2024-03-28T08:00,MILESTONE 1
BI-1245.110,VS,BI-1245.110-JPN_SITE01-0013,21,WEIGHT,Weight,97.1,kg,97.1,97.1,kg,,Y,Y,,2.0,BASELINE,TREATMENT,2024-03-28,1,,,,,,MILESTONE 1
BI-1245.110,VS,BI-1245.110-JPN_SITE01-0013,22,BMI,BMI,,,41.6,41.6,kg/m2,,,,Y,3.0,WEEK 4,TREATMENT,2024-04-26,30,,,,,,MILESTONE 1
BI-1245.110,VS,BI-1245.110-JPN_SITE01-0013,23,DIABP,Diastolic Blood Pressure,92.1,mmHg,92.1,92.1,mmHg,,,,,3.0,WEEK 4,TREATMENT,2024-04-26,30,,,,,,MILESTONE 1
BI-1245.110,VS,BI-1245.110-JPN_SITE01-0013,24,HEIGHT,Height,152.1,cm,152.1,152.1,cm,,,,,3.0,WEEK 4,TREATMENT,2024-04-26,30,,,,,,MILESTONE 1
BI-1245.110,VS,BI-1245.110-JPN_SITE01-0013,25,PULSE,Pulse Rate,72.3,beats/min,72.3,72.3,beats/min,,,,,3.0,WEEK 4,TREATMENT,2024-04-26,30,,,,,,MILESTONE 1
BI-1245.110,VS,BI-1245.110-JPN_SITE01-0013,26,RESP,Respiratory Rate,22.2,breaths/min,22.2,22.2,breaths/min,,,,,3.0,WEEK 4,TREATMENT,2024-04-26,30,,,,,,MILESTONE 1
BI-1245.110,VS,BI-1245.110-JPN_SITE01-0013,27,SYSBP,Systolic Blood Pressure,137.2,mmHg,137.2,137.2,mmHg,,,,,3.0,WEEK 4,TREATMENT,2024-04-26,30,,,,,,MILESTONE 1
BI-1245.110,VS,BI-1245.110-JPN_SITE01-0013,28,TEMP,Temperature,36.9,C,36.9,36.9,C,,,,,3.0,WEEK 4,TREATMENT,2024-04-26,30,,,,,,MILESTONE 1
BI-1245.110,VS,BI-1245.110-JPN_SITE01-0013,29,WEIGHT,Weight,96.3,kg,96.3,96.3,kg,,,,,3.0,WEEK 4,TREATMENT,2024-04-26,30,,,,,,MILESTONE 1
BI-1245.110,VS,BI-1245.110-JPN_SITE01-0013,30,BMI,BMI,,,42.2,42.2,kg/m2,,,,Y,4.0,WEEK 12,TREATMENT,2024-06-26,91,,,,,,MILESTONE 1
BI-1245.110,VS,BI-1245.110-JPN_SITE01-0013,31,DIABP,Diastolic Blood Pressure,91.4,mmHg,91.4,91.4,mmHg,,,,,4.0,WEEK 12,TREATMENT,2024-06-26,91,,,,,,MILESTONE 1
BI-1245.110,VS,BI-1245.110-JPN_SITE01-0013,32,HEIGHT,Height,151.9,cm,151.9,151.9,cm,,,,,4.0,WEEK 12,TREATMENT,2024-06-26,91,,,,,,MILESTONE 1
BI-1245.110,VS,BI-1245.110-JPN_SITE01-0013,33,PULSE,Pulse Rate,75.0,beats/min,75.0,75.0,beats/min,,,,,4.0,WEEK 12,TREATMENT,2024-06-26,91,,,,,,MILESTONE 1
BI-1245.110,VS,BI-1245.110-JPN_SITE01-0013,34,RESP,Respiratory Rate,22.7,breaths/min,22.7,22.7,breaths/min,,,,,4.0,WEEK 12,TREATMENT,2024-06-26,91,,,,,,MILESTONE 1
BI-1245.110,VS,BI-1245.110-JPN_SITE01-0013,35,SYSBP,Systolic Blood Pressure,137.6,mmHg,137.6,137.6,mmHg,,,,,4.0,WEEK 12,TREATMENT,2024-06-26,91,,,,,,MILESTONE 1
BI-1245.110,VS,BI-1245.110-JPN_SITE01-0013,36,TEMP,Temperature,36.8,C,36.8,36.8,C,,,,,4.0,WEEK 12,TREATMENT,2024-06-26,91,,,,,,MILESTONE 1
BI-1245.110,VS,BI-1245.110-JPN_SITE01-0013,37,WEIGHT,Weight,97.3,kg,97.3,97.3,kg,,,,,4.0,WEEK 12,TREATMENT,2024-06-26,91,,,,,,MILESTONE 1
BI-1245.110,VS,BI-1245.110-JPN_SITE01-0013,38,BMI,BMI,,,41.9,41.9,kg/m2,,,,Y,5.0,MONTH 6,TREATMENT,2024-10-02,189,,,,,,MILESTONE 1
BI-1245.110,VS,BI-1245.110-JPN_SITE01-0013,39,DIABP,Diastolic Blood Pressure,73.3,mmHg,73.3,73.3,mmHg,,,,,5.0,MONTH 6,TREATMENT,2024-10-02,189,,,,,,MILESTONE 1
BI-1245.110,VS,BI-1245.110-JPN_SITE01-0013,40,HEIGHT,Height,151.4,cm,151.4,151.4,cm,,,,,5.0,MONTH 6,TREATMENT,2024-10-02,189,,,,,,MILESTONE 1
BI-1245.110,VS,BI-1245.110-JPN_SITE01-0013,41,PULSE,Pulse Rate,77.9,beats/min,77.9,77.9,beats/min,,,,,5.0,MONTH 6,TREATMENT,2024-10-02,189,,,,,,MILESTONE 1
BI-1245.110,VS,BI-1245.110-JPN_SITE01-0013,42,RESP,Respiratory Rate,22.9,breaths/min,22.9,22.9,breaths/min,,,,,5.0,MONTH 6,TREATMENT,2024-10-02,189,,,,,,MILESTONE 1
BI-1245.110,VS,BI-1245.110-JPN_SITE01-0013,43,SYSBP,Systolic Blood Pressure,109.8,mmHg,109.8,109.8,mmHg,,,,,5.0,MONTH 6,TREATMENT,2024-10-02,189,,,,,,MILESTONE 1
BI-1245.110,VS,BI-1245.110-JPN_SITE01-0013,44,TEMP,Temperature,36.7,C,36.7,36.7,C,,,,,5.0,MONTH 6,TREATMENT,2024-10-02,189,,,,,,MILESTONE 1
BI-1245.110,VS,BI-1245.110-JPN_SITE01-0013,45,WEIGHT,Weight,96.0,kg,96.0,96.0,kg,,,,,5.0,MONTH 6,TREATMENT,2024-10-02,189,,,,,,MILESTONE 1
BI-1245.110,VS,BI-1245.110-JPN_SITE01-0013,46,BMI,BMI,,,42.2,42.2,kg/m2,,,,Y,6.0,MONTH 12,TREATMENT,2025-03-30,368,,,,,,MILESTONE 1
BI-1245.110,VS,BI-1245.110-JPN_SITE01-0013,47,DIABP,Diastolic Blood Pressure,91.2,mmHg,91.2,91.2,mmHg,,,,,6.0,MONTH 12,TREATMENT,2025-03-30,368,,,,,,MILESTONE 1
BI-1245.110,VS,BI-1245.110-JPN_SITE01-0013,48,HEIGHT,Height,150.9,cm,150.9,150.9,cm,,,,,6.0,MONTH 12,TREATMENT,2025-03-30,368,,,,,,MILESTONE 1
BI-1245.110,VS,BI-1245.110-JPN_SITE01-0013,49,PULSE,Pulse Rate,,,,,,NOT DONE,,,,6.0,MONTH 12,TREATMENT,2025-03-30,368,,,,,,MILESTONE 1
BI-1245.110,VS,BI-1245.110-JPN_SITE01-0013,50,RESP,Respiratory Rate,23.9,breaths/min,23.9,23.9,breaths/min,,,,,6.0,MONTH 12,TREATMENT,2025-03-30,368,,,,,,MILESTONE 1
BI-1245.110,VS,BI-1245.110-JPN_SITE01-0013,51,SYSBP,Systolic Blood Pressure,140.8,mmHg,140.8,140.8,mmHg,,,,,6.0,MONTH 12,TREATMENT,2025-03-30,368,,,,,,MILESTONE 1
BI-1245.110,VS,BI-1245.110-JPN_SITE01-0013,52,TEMP,Temperature,36.8,C,36.8,36.8,C,,,,,6.0,MONTH 12,TREATMENT,2025-03-30,368,,,,,,MILESTONE 1
BI-1245.110,VS,BI-1245.110-JPN_SITE01-0013,53,WEIGHT,Weight,96.1,kg,96.1,96.1,kg,,,,,6.0,MONTH 12,TREATMENT,2025-03-30,368,,,,,,MILESTONE 1
BI-1245.110,VS,BI-1245.110-JPN_SITE01-0013,54,BMI,BMI,,,42.7,42.7,kg/m2,,,,Y,7.0,MONTH 18,TREATMENT,2025-09-24,546,,,,,,MILESTONE 1
BI-1245.110,VS,BI-1245.110-JPN_SITE01-0013,55,DIABP,Diastolic Blood Pressure,92.8,mmHg,92.8,92.8,mmHg,,,,,7.0,MONTH 18,TREATMENT,2025-09-24,546,,,,,,MILESTONE 1
BI-1245.110,VS,BI-1245.110-JPN_SITE01-0013,56,HEIGHT,Height,150.4,cm,150.4,150.4,cm,,,,,7.0,MONTH 18,TREATMENT,2025-09-24,546,,,,,,MILESTONE 1
BI-1245.110,VS,BI-1245.110-JPN_SITE01-0013,57,PULSE,Pulse Rate,70.9,beats/min,70.9,70.9,beats/min,,,,,7.0,MONTH 18,TREATMENT,2025-09-24,546,,,,,,MILESTONE 1
BI-1245.110,VS,BI-1245.110-JPN_SITE01-0013,58,RESP,Respiratory Rate,24.7,breaths/min,24.7,24.7,breaths/min,,,,,7.0,MONTH 18,TREATMENT,2025-09-24,546,,,,,,MILESTONE 1
BI-1245.110,VS,BI-1245.110-JPN_SITE01-0013,59,SYSBP,Systolic Blood Pressure,140.9,mmHg,140.9,140.9,mmHg,,,,,7.0,MONTH 18,TREATMENT,2025-09-24,546,,,,,,MILESTONE 1
BI-1245.110,VS,BI-1245.110-JPN_SITE01-0013,60,TEMP,Temperature,36.9,C,36.9,36.9,C,,,,,7.0,MONTH 18,TREATMENT,2025-09-24,546,,,,,,MILESTONE 1
BI-1245.110,VS,BI-1245.110-JPN_SITE01-0013,61,WEIGHT,Weight,96.5,kg,96.5,96.5,kg,,,,,7.0,MONTH 18,TREATMENT,2025-09-24,546,,,,,,MILESTONE 1
BI-1245.110,VS,BI-1245.110-JPN_SITE02-0007,1,BMI,BMI,,,23.5,23.5,kg/m2,,,,Y,1.0,SCREENING,SCREENING,2024-01-30,-51,,,,,,MILESTONE 1
BI-1245.110,VS,BI-1245.110-JPN_SITE02-0007,2,DIABP,Diastolic Blood Pressure,96.1,mmHg,96.1,96.1,mmHg,,,,,1.0,SCREENING,SCREENING,2024-01-30,-51,,,,,,MILESTONE 1
BI-1245.110,VS,BI-1245.110-JPN_SITE02-0007,3,HEIGHT,Height,171.7,cm,171.7,171.7,cm,,,,,1.0,SCREENING,SCREENING,2024-01-30,-51,,,,,,MILESTONE 1
BI-1245.110,VS,BI-1245.110-JPN_SITE02-0007,4,PULSE,Pulse Rate,63.0,beats/min,63.0,63.0,beats/min,,,,,1.0,SCREENING,SCREENING,2024-01-30,-51,,,,,,MILESTONE 1
BI-1245.110,VS,BI-1245.110-JPN_SITE02-0007,5,RESP,Respiratory Rate,16.4,breaths/min,16.4,16.4,breaths/min,,,,,1.0,SCREENING,SCREENING,2024-01-30,-51,,,,,,MILESTONE 1
BI-1245.110,VS,BI-1245.110-JPN_SITE02-0007,6,SYSBP,Systolic Blood Pressure,138.5,mmHg,138.5,138.5,mmHg,,,,,1.0,SCREENING,SCREENING,2024-01-30,-51,,,,,,MILESTONE 1
BI-1245.110,VS,BI-1245.110-JPN_SITE02-0007,7,TEMP,Temperature,37.1,C,37.1,37.1,C,,,,,1.0,SCREENING,SCREENING,2024-01-30,-51,,,,,,MILESTONE 1
BI-1245.110,VS,BI-1245.110-JPN_SITE02-0007,8,WEIGHT,Weight,69.2,kg,69.2,69.2,kg,,,,,1.0,SCREENING,SCREENING,2024-01-30,-51,,,,,,MILESTONE 1
BI-1245.110,VS,BI-1245.110-JPN_SITE02-0007,9,BMI,BMI,,,23.1,23.1,kg/m2,,Y,Y,Y,2.0,BASELINE,TREATMENT,2024-03-21,1,,,,,,MILESTONE 1
BI-1245.110,VS,BI-1245.110-JPN_SITE02-0007,10,DIABP,Diastolic Blood Pressure,95.7,mmHg,95.7,95.7,mmHg,,Y,Y,,2.0,BASELINE,TREATMENT,2024-03-21T07:45,1,PRE-DOSE,1,-PT15M,DOSE ADMINISTRATION,2024-03-21T08:00,MILESTONE 1
BI-1245.110,VS,BI-1245.110-JPN_SITE02-0007,11,DIABP,Diastolic Blood Pressure,95.5,mmHg,95.5,95.5,mmHg,,,,,2.0,BASELINE,TREATMENT,2024-03-21T09:00,1,1H POST-DOSE,2,PT1H,DOSE ADMINISTRATION,2024-03-21T08:00,MILESTONE 1
BI-1245.110,VS,BI-1245.110-JPN_SITE02-0007,12,HEIGHT,Height,172.1,cm,172.1,172.1,cm,,Y,Y,,2.0,BASELINE,TREATMENT,2024-03-21,1,,,,,,MILESTONE 1
BI-1245.110,VS,BI-1245.110-JPN_SITE02-0007,13,PULSE,Pulse Rate,57.9,beats/min,57.9,57.9,beats/min,,Y,Y,,2.0,BASELINE,TREATMENT,2024-03-21T07:45,1,PRE-DOSE,1,-PT15M,DOSE ADMINISTRATION,2024-03-21T08:00,MILESTONE 1
BI-1245.110,VS,BI-1245.110-JPN_SITE02-0007,14,PULSE,Pulse Rate,56.7,beats/min,56.7,56.7,beats/min,,,,,2.0,BASELINE,TREATMENT,2024-03-21T09:00,1,1H POST-DOSE,2,PT1H,DOSE ADMINISTRATION,2024-03-21T08:00,MILESTONE 1
BI-1245.110,VS,BI-1245.110-JPN_SITE02-0007,15,RESP,Respiratory Rate,15.8,breaths/min,15.8,15.8,breaths/min,,Y,Y,,2.0,BASELINE,TREATMENT,2024-03-21T07:45,1,PRE-DOSE,1,-PT15M,DOSE ADMINISTRATION,2024-03-21T08:00,MILESTONE 1
BI-1245.110,VS,BI-1245.110-JPN_SITE02-0007,16,RESP,Respiratory Rate,15.9,breaths/min,15.9,15.9,breaths/min,,,,,2.0,BASELINE,TREATMENT,2024-03-21T09:00,1,1H POST-DOSE,2,PT1H,DOSE ADMINISTRATION,2024-03-21T08:00,MILESTONE 1
BI-1245.110,VS,BI-1245.110-JPN_SITE02-0007,17,SYSBP,Systolic Blood Pressure,141.1,mmHg,141.1,141.1,mmHg,,Y,Y,,2.0,BASELINE,TREATMENT,2024-03-21T07:45,1,PRE-DOSE,1,-PT15M,DOSE ADMINISTRATION,2024-03-21T08:00,MILESTONE 1
BI-1245.110,VS,BI-1245.110-JPN_SITE02-0007,18,SYSBP,Systolic Blood Pressure,141.6,mmHg,141.6,141.6,mmHg,,,,,2.0,BASELINE,TREATMENT,2024-03-21T09:00,1,1H POST-DOSE,2,PT1H,DOSE ADMINISTRATION,2024-03-21T08:00,MILESTONE 1
BI-1245.110,VS,BI-1245.110-JPN_SITE02-0007,19,TEMP,Temperature,37.2,C,37.2,37.2,C,,Y,Y,,2.0,BASELINE,TREATMENT,2024-03-21T07:45,1,PRE-DOSE,1,-PT15M,DOSE ADMINISTRATION,2024-03-21T08:00,MILESTONE 1
BI-1245.110,VS,BI-1245.110-JPN_SITE02-0007,20,TEMP,Temperature,38.3,C,38.3,38.3,C,,,,,2.0,BASELINE,TREATMENT,2024-03-21T09:00,1,1H POST-DOSE,2,PT1H,DOSE ADMINISTRATION,2024-03-21T08:00,MILESTONE 1
BI-1245.110,VS,BI-1245.110-JPN_SITE02-0007,21,WEIGHT,Weight,68.3,kg,68.3,68.3,kg,,Y,Y,,2.0,BASELINE,TREATMENT,2024-03-21,1,,,,,,MILESTONE 1
BI-1245.110,VS,BI-1245.110-JPN_SITE02-0007,22,BMI,BMI,,,23.0,23.0,kg/m2,,,,Y,3.0,WEEK 4,TREATMENT,2024-04-13,24,,,,,,MILESTONE 1
BI-1245.110,VS,BI-1245.110-JPN_SITE02-0007,23,DIABP,Diastolic Blood Pressure,96.9,mmHg,96.9,96.9,mmHg,,,,,3.0,WEEK 4,TREATMENT,2024-04-13,24,,,,,,MILESTONE 1
BI-1245.110,VS,BI-1245.110-JPN_SITE02-0007,24,HEIGHT,Height,172.0,cm,172.0,172.0,cm,,,,,3.0,WEEK 4,TREATMENT,2024-04-13,24,,,,,,MILESTONE 1
BI-1245.110,VS,BI-1245.110-JPN_SITE02-0007,25,PULSE,Pulse Rate,60.7,beats/min,60.7,60.7,beats/min,,,,,3.0,WEEK 4,TREATMENT,2024-04-13,24,,,,,,MILESTONE 1
BI-1245.110,VS,BI-1245.110-JPN_SITE02-0007,26,RESP,Respiratory Rate,16.3,breaths/min,16.3,16.3,breaths/min,,,,,3.0,WEEK 4,TREATMENT,2024-04-13,24,,,,,,MILESTONE 1
BI-1245.110,VS,BI-1245.110-JPN_SITE02-0007,27,SYSBP,Systolic Blood Pressure,141.1,mmHg,141.1,141.1,mmHg,,,,,3.0,WEEK 4,TREATMENT,2024-04-13,24,,,,,,MILESTONE 1
BI-1245.110,VS,BI-1245.110-JPN_SITE02-0007,28,TEMP,Temperature,37.2,C,37.2,37.2,C,,,,,3.0,WEEK 4,TREATMENT,2024-04-13,24,,,,,,MILESTONE 1
BI-1245.110,VS,BI-1245.110-JPN_SITE02-0007,29,WEIGHT,Weight,68.1,kg,68.1,68.1,kg,,,,,3.0,WEEK 4,TREATMENT,2024-04-13,24,,,,,,MILESTONE 1
BI-1245.110,VS,BI-1245.110-JPN_SITE02-0007,30,BMI,BMI,,,22.7,22.7,kg/m2,,,,Y,4.0,WEEK 12,TREATMENT,2024-06-13,85,,,,,,MILESTONE 1
BI-1245.110,VS,BI-1245.110-JPN_SITE02-0007,31,DIABP,Diastolic Blood Pressure,85.5,mmHg,85.5,85.5,mmHg,,,,,4.0,WEEK 12,TREATMENT,2024-06-13,85,,,,,,MILESTONE 1
BI-1245.110,VS,BI-1245.110-JPN_SITE02-0007,32,HEIGHT,Height,171.9,cm,171.9,171.9,cm,,,,,4.0,WEEK 12,TREATMENT,2024-06-13,85,,,,,,MILESTONE 1
BI-1245.110,VS,BI-1245.110-JPN_SITE02-0007,33,PULSE,Pulse Rate,60.3,beats/min,60.3,60.3,beats/min,,,,,4.0,WEEK 12,TREATMENT,2024-06-13,85,,,,,,MILESTONE 1
BI-1245.110,VS,BI-1245.110-JPN_SITE02-0007,34,RESP,Respiratory Rate,17.8,breaths/min,17.8,17.8,breaths/min,,,,,4.0,WEEK 12,TREATMENT,2024-06-13,85,,,,,,MILESTONE 1
BI-1245.110,VS,BI-1245.110-JPN_SITE02-0007,35,SYSBP,Systolic Blood Pressure,123.7,mmHg,123.7,123.7,mmHg,,,,,4.0,WEEK 12,TREATMENT,2024-06-13,85,,,,,,MILESTONE 1
BI-1245.110,VS,BI-1245.110-JPN_SITE02-0007,36,TEMP,Temperature,37.1,C,37.1,37.1,C,,,,,4.0,WEEK 12,TREATMENT,2024-06-13,85,,,,,,MILESTONE 1
BI-1245.110,VS,BI-1245.110-JPN_SITE02-0007,37,WEIGHT,Weight,67.1,kg,67.1,67.1,kg,,,,,4.0,WEEK 12,TREATMENT,2024-06-13,85,,,,,,MILESTONE 1
BI-1245.110,VS,BI-1245.110-JPN_SITE02-0007,38,BMI,BMI,,,22.6,22.6,kg/m2,,,,Y,5.0,MONTH 6,TREATMENT,2024-09-29,193,,,,,,MILESTONE 1
BI-1245.110,VS,BI-1245.110-JPN_SITE02-0007,39,DIABP,Diastolic Blood Pressure,,,,,,NOT DONE,,,,5.0,MONTH 6,TREATMENT,2024-09-29,193,,,,,,MILESTONE 1
BI-1245.110,VS,BI-1245.110-JPN_SITE02-0007,40,HEIGHT,Height,172.2,cm,172.2,172.2,cm,,,,,5.0,MONTH 6,TREATMENT,2024-09-29,193,,,,,,MILESTONE 1
BI-1245.110,VS,BI-1245.110-JPN_SITE02-0007,41,PULSE,Pulse Rate,67.6,beats/min,67.6,67.6,beats/min,,,,,5.0,MONTH 6,TREATMENT,2024-09-29,193,,,,,,MILESTONE 1
BI-1245.110,VS,BI-1245.110-JPN_SITE02-0007,42,RESP,Respiratory Rate,15.9,breaths/min,15.9,15.9,breaths/min,,,,,5.0,MONTH 6,TREATMENT,2024-09-29,193,,,,,,MILESTONE 1
BI-1245.110,VS,BI-1245.110-JPN_SITE02-0007,43,SYSBP,Systolic Blood Pressure,141.8,mmHg,141.8,141.8,mmHg,,,,,5.0,MONTH 6,TREATMENT,2024-09-29,193,,,,,,MILESTONE 1
BI-1245.110,VS,BI-1245.110-JPN_SITE02-0007,44,TEMP,Temperature,36.9,C,36.9,36.9,C,,,,,5.0,MONTH 6,TREATMENT,2024-09-29,193,,,,,,MILESTONE 1
BI-1245.110,VS,BI-1245.110-JPN_SITE02-0007,45,WEIGHT,Weight,67.0,kg,67.0,67.0,kg,,,,,5.0,MONTH 6,TREATMENT,2024-09-29,193,,,,,,MILESTONE 1
BI-1245.110,VS,BI-1245.110-JPN_SITE02-0007,46,BMI,BMI,,,22.8,22.8,kg/m2,,,,Y,6.0,MONTH 12,TREATMENT,2025-03-24,369,,,,,,MILESTONE 1
BI-1245.110,VS,BI-1245.110-JPN_SITE02-0007,47,DIABP,Diastolic Blood Pressure,,,,,,NOT DONE,,,,6.0,MONTH 12,TREATMENT,2025-03-24,369,,,,,,MILESTONE 1
BI-1245.110,VS,BI-1245.110-JPN_SITE02-0007,48,HEIGHT,Height,172.0,cm,172.0,172.0,cm,,,,,6.0,MONTH 12,TREATMENT,2025-03-24,369,,,,,,MILESTONE 1
BI-1245.110,VS,BI-1245.110-JPN_SITE02-0007,49,PULSE,Pulse Rate,64.9,beats/min,64.9,64.9,beats/min,,,,,6.0,MONTH 12,TREATMENT,2025-03-24,369,,,,,,MILESTONE 1
BI-1245.110,VS,BI-1245.110-JPN_SITE02-0007,50,RESP,Respiratory Rate,15.8,breaths/min,15.8,15.8,breaths/min,,,,,6.0,MONTH 12,TREATMENT,2025-03-24,369,,,,,,MILESTONE 1
BI-1245.110,VS,BI-1245.110-JPN_SITE02-0007,51,SYSBP,Systolic Blood Pressure,140.0,mmHg,140.0,140.0,mmHg,,,,,6.0,MONTH 12,TREATMENT,2025-03-24,369,,,,,,MILESTONE 1
BI-1245.110,VS,BI-1245.110-JPN_SITE02-0007,52,TEMP,Temperature,37.4,C,37.4,37.4,C,,,,,6.0,MONTH 12,TREATMENT,2025-03-24,369,,,,,,MILESTONE 1
BI-1245.110,VS,BI-1245.110-JPN_SITE02-0007,53,WEIGHT,Weight,67.5,kg,67.5,67.5,kg,,,,,6.0,MONTH 12,TREATMENT,2025-03-24,369,,,,,,MILESTONE 1
BI-1245.110,VS,BI-1245.110-JPN_SITE02-0007,54,BMI,BMI,,,22.5,22.5,kg/m2,,,,Y,7.0,MONTH 18,TREATMENT,2025-09-08,537,,,,,,MILESTONE 1
BI-1245.110,VS,BI-1245.110-JPN_SITE02-0007,55,DIABP,Diastolic Blood Pressure,93.9,mmHg,93.9,93.9,mmHg,,,,,7.0,MONTH 18,TREATMENT,2025-09-08,537,,,,,,MILESTONE 1
BI-1245.110,VS,BI-1245.110-JPN_SITE02-0007,56,HEIGHT,Height,171.9,cm,171.9,171.9,cm,,,,,7.0,MONTH 18,TREATMENT,2025-09-08,537,,,,,,MILESTONE 1
BI-1245.110,VS,BI-1245.110-JPN_SITE02-0007,57,PULSE,Pulse Rate,64.3,beats/min,64.3,64.3,beats/min,,,,,7.0,MONTH 18,TREATMENT,2025-09-08,537,,,,,,MILESTONE 1
BI-1245.110,VS,BI-1245.110-JPN_SITE02-0007,58,RESP,Respiratory Rate,16.3,breaths/min,16.3,16.3,breaths/min,,,,,7.0,MONTH 18,TREATMENT,2025-09-08,537,,,,,,MILESTONE 1
BI-1245.110,VS,BI-1245.110-JPN_SITE02-0007,59,SYSBP,Systolic Blood Pressure,132.8,mmHg,132.8,132.8,mmHg,,,,,7.0,MONTH 18,TREATMENT,2025-09-08,537,,,,,,MILESTONE 1
BI-1245.110,VS,BI-1245.110-JPN_SITE02-0007,60,TEMP,Temperature,37.7,C,37.7,37.7,C,,,,,7.0,MONTH 18,TREATMENT,2025-09-08,537,,,,,,MILESTONE 1
BI-1245.110,VS,BI-1245.110-JPN_SITE02-0007,61,WEIGHT,Weight,66.5,kg,66.5,66.5,kg,,,,,7.0,MONTH 18,TREATMENT,2025-09-08,537,,,,,,MILESTONE 1
BI-1245.110,VS,BI-1245.110-JPN_SITE02-0007,62,BMI,BMI,,,22.8,22.8,kg/m2,,,,Y,9.0,EOT,TREATMENT,2026-05-28,799,,,,,,MILESTONE 1
BI-1245.110,VS,BI-1245.110-JPN_SITE02-0007,63,DIABP,Diastolic Blood Pressure,95.2,mmHg,95.2,95.2,mmHg,,,,,9.0,EOT,TREATMENT,2026-05-28,799,,,,,,MILESTONE 1
BI-1245.110,VS,BI-1245.110-JPN_SITE02-0007,64,HEIGHT,Height,171.9,cm,171.9,171.9,cm,,,,,9.0,EOT,TREATMENT,2026-05-28,799,,,,,,MILESTONE 1
BI-1245.110,VS,BI-1245.110-JPN_SITE02-0007,65,PULSE,Pulse Rate,66.6,beats/min,66.6,66.6,beats/min,,,,,9.0,EOT,TREATMENT,2026-05-28,799,,,,,,MILESTONE 1
BI-1245.110,VS,BI-1245.110-JPN_SITE02-0007,66,RESP,Respiratory Rate,16.7,breaths/min,16.7,16.7,breaths/min,,,,,9.0,EOT,TREATMENT,2026-05-28,799,,,,,,MILESTONE 1
BI-1245.110,VS,BI-1245.110-JPN_SITE02-0007,67,SYSBP,Systolic Blood Pressure,136.1,mmHg,136.1,136.1,mmHg,,,,,9.0,EOT,TREATMENT,2026-05-28,799,,,,,,MILESTONE 1
BI-1245.110,VS,BI-1245.110-JPN_SITE02-0007,68,TEMP,Temperature,37.5,C,37.5,37.5,C,,,,,9.0,EOT,TREATMENT,2026-05-28,799,,,,,,MILESTONE 1
BI-1245.110,VS,BI-1245.110-JPN_SITE02-0007,69,WEIGHT,Weight,67.3,kg,67.3,67.3,kg,,,,,9.0,EOT,TREATMENT,2026-05-28,799,,,,,,MILESTONE 1
BI-1245.110,VS,BI-1245.110-JPN_SITE02-0014,1,BMI,BMI,,,30.4,30.4,kg/m2,,,,Y,1.0,SCREENING,SCREENING,2024-02-01,-49,,,,,,MILESTONE 1
BI-1245.110,VS,BI-1245.110-JPN_SITE02-0014,2,DIABP,Diastolic Blood Pressure,67.2,mmHg,67.2,67.2,mmHg,,,,,1.0,SCREENING,SCREENING,2024-02-01,-49,,,,,,MILESTONE 1
BI-1245.110,VS,BI-1245.110-JPN_SITE02-0014,3,HEIGHT,Height,164.8,cm,164.8,164.8,cm,,,,,1.0,SCREENING,SCREENING,2024-02-01,-49,,,,,,MILESTONE 1
BI-1245.110,VS,BI-1245.110-JPN_SITE02-0014,4,PULSE,Pulse Rate,82.4,beats/min,82.4,82.4,beats/min,,,,,1.0,SCREENING,SCREENING,2024-02-01,-49,,,,,,MILESTONE 1
BI-1245.110,VS,BI-1245.110-JPN_SITE02-0014,5,RESP,Respiratory Rate,16.3,breaths/min,16.3,16.3,breaths/min,,,,,1.0,SCREENING,SCREENING,2024-02-01,-49,,,,,,MILESTONE 1
BI-1245.110,VS,BI-1245.110-JPN_SITE02-0014,6,SYSBP,Systolic Blood Pressure,132.6,mmHg,132.6,132.6,mmHg,,,,,1.0,SCREENING,SCREENING,2024-02-01,-49,,,,,,MILESTONE 1
BI-1245.110,VS,BI-1245.110-JPN_SITE02-0014,7,TEMP,Temperature,36.9,C,36.9,36.9,C,,,,,1.0,SCREENING,SCREENING,2024-02-01,-49,,,,,,MILESTONE 1
BI-1245.110,VS,BI-1245.110-JPN_SITE02-0014,8,WEIGHT,Weight,82.5,kg,82.5,82.5,kg,,,,,1.0,SCREENING,SCREENING,2024-02-01,-49,,,,,,MILESTONE 1
BI-1245.110,VS,BI-1245.110-JPN_SITE02-0014,9,BMI,BMI,,,29.5,29.5,kg/m2,,Y,Y,Y,2.0,BASELINE,TREATMENT,2024-03-21,1,,,,,,MILESTONE 1
BI-1245.110,VS,BI-1245.110-JPN_SITE02-0014,10,DIABP,Diastolic Blood Pressure,66.8,mmHg,66.8,66.8,mmHg,,Y,Y,,2.0,BASELINE,TREATMENT,2024-03-21T07:45,1,PRE-DOSE,1,-PT15M,DOSE ADMINISTRATION,2024-03-21T08:00,MILESTONE 1
BI-1245.110,VS,BI-1245.110-JPN_SITE02-0014,11,DIABP,Diastolic Blood Pressure,66.9,mmHg,66.9,66.9,mmHg,,,,,2.0,BASELINE,TREATMENT,2024-03-21T09:00,1,1H POST-DOSE,2,PT1H,DOSE ADMINISTRATION,2024-03-21T08:00,MILESTONE 1
BI-1245.110,VS,BI-1245.110-JPN_SITE02-0014,12,HEIGHT,Height,164.5,cm,164.5,164.5,cm,,Y,Y,,2.0,BASELINE,TREATMENT,2024-03-21,1,,,,,,MILESTONE 1
BI-1245.110,VS,BI-1245.110-JPN_SITE02-0014,13,PULSE,Pulse Rate,82.0,beats/min,82.0,82.0,beats/min,,Y,Y,,2.0,BASELINE,TREATMENT,2024-03-21T07:45,1,PRE-DOSE,1,-PT15M,DOSE ADMINISTRATION,2024-03-21T08:00,MILESTONE 1
BI-1245.110,VS,BI-1245.110-JPN_SITE02-0014,14,PULSE,Pulse Rate,83.0,beats/min,83.0,83.0,beats/min,,,,,2.0,BASELINE,TREATMENT,2024-03-21T09:00,1,1H POST-DOSE,2,PT1H,DOSE ADMINISTRATION,2024-03-21T08:00,MILESTONE 1
BI-1245.110,VS,BI-1245.110-JPN_SITE02-0014,15,RESP,Respiratory Rate,16.5,breaths/min,16.5,16.5,breaths/min,,Y,Y,,2.0,BASELINE,TREATMENT,2024-03-21T07:45,1,PRE-DOSE,1,-PT15M,DOSE ADMINISTRATION,2024-03-21T08:00,MILESTONE 1
BI-1245.110,VS,BI-1245.110-JPN_SITE02-0014,16,RESP,Respiratory Rate,16.5,breaths/min,16.5,16.5,breaths/min,,,,,2.0,BASELINE,TREATMENT,2024-03-21T09:00,1,1H POST-DOSE,2,PT1H,DOSE ADMINISTRATION,2024-03-21T08:00,MILESTONE 1
BI-1245.110,VS,BI-1245.110-JPN_SITE02-0014,17,SYSBP,Systolic Blood Pressure,131.8,mmHg,131.8,131.8,mmHg,,Y,Y,,2.0,BASELINE,TREATMENT,2024-03-21T07:45,1,PRE-DOSE,1,-PT15M,DOSE ADMINISTRATION,2024-03-21T08:00,MILESTONE 1
BI-1245.110,VS,BI-1245.110-JPN_SITE02-0014,18,SYSBP,Systolic Blood Pressure,133.4,mmHg,133.4,133.4,mmHg,,,,,2.0,BASELINE,TREATMENT,2024-03-21T09:00,1,1H POST-DOSE,2,PT1H,DOSE ADMINISTRATION,2024-03-21T08:00,MILESTONE 1
BI-1245.110,VS,BI-1245.110-JPN_SITE02-0014,19,TEMP,Temperature,37.0,C,37.0,37.0,C,,Y,Y,,2.0,BASELINE,TREATMENT,2024-03-21T07:45,1,PRE-DOSE,1,-PT15M,DOSE ADMINISTRATION,2024-03-21T08:00,MILESTONE 1
BI-1245.110,VS,BI-1245.110-JPN_SITE02-0014,20,TEMP,Temperature,36.8,C,36.8,36.8,C,,,,,2.0,BASELINE,TREATMENT,2024-03-21T09:00,1,1H POST-DOSE,2,PT1H,DOSE ADMINISTRATION,2024-03-21T08:00,MILESTONE 1
BI-1245.110,VS,BI-1245.110-JPN_SITE02-0014,21,WEIGHT,Weight,79.9,kg,79.9,79.9,kg,,Y,Y,,2.0,BASELINE,TREATMENT,2024-03-21,1,,,,,,MILESTONE 1
BI-1245.110,VS,BI-1245.110-JPN_SITE02-0014,22,BMI,BMI,,,29.4,29.4,kg/m2,,,,Y,3.0,WEEK 4,TREATMENT,2024-04-23,34,,,,,,MILESTONE 1
BI-1245.110,VS,BI-1245.110-JPN_SITE02-0014,23,DIABP,Diastolic Blood Pressure,66.5,mmHg,66.5,66.5,mmHg,,,,,3.0,WEEK 4,TREATMENT,2024-04-23,34,,,,,,MILESTONE 1
BI-1245.110,VS,BI-1245.110-JPN_SITE02-0014,24,HEIGHT,Height,164.8,cm,164.8,164.8,cm,,,,,3.0,WEEK 4,TREATMENT,2024-04-23,34,,,,,,MILESTONE 1
BI-1245.110,VS,BI-1245.110-JPN_SITE02-0014,25,PULSE,Pulse Rate,79.7,beats/min,79.7,79.7,beats/min,,,,,3.0,WEEK 4,TREATMENT,2024-04-23,34,,,,,,MILESTONE 1
BI-1245.110,VS,BI-1245.110-JPN_SITE02-0014,26,RESP,Respiratory Rate,15.5,breaths/min,15.5,15.5,breaths/min,,,,,3.0,WEEK 4,TREATMENT,2024-04-23,34,,,,,,MILESTONE 1
BI-1245.110,VS,BI-1245.110-JPN_SITE02-0014,27,SYSBP,Systolic Blood Pressure,130.7,mmHg,130.7,130.7,mmHg,,,,,3.0,WEEK 4,TREATMENT,2024-04-23,34,,,,,,MILESTONE 1
BI-1245.110,VS,BI-1245.110-JPN_SITE02-0014,28,TEMP,Temperature,36.8,C,36.8,36.8,C,,,,,3.0,WEEK 4,TREATMENT,2024-04-23,34,,,,,,MILESTONE 1
BI-1245.110,VS,BI-1245.110-JPN_SITE02-0014,29,WEIGHT,Weight,79.9,kg,79.9,79.9,kg,,,,,3.0,WEEK 4,TREATMENT,2024-04-23,34,,,,,,MILESTONE 1
BI-1245.110,VS,BI-1245.110-JPN_SITE02-0014,30,BMI,BMI,,,29.1,29.1,kg/m2,,,,Y,4.0,WEEK 12,TREATMENT,2024-06-11,83,,,,,,MILESTONE 1
BI-1245.110,VS,BI-1245.110-JPN_SITE02-0014,31,DIABP,Diastolic Blood Pressure,66.9,mmHg,66.9,66.9,mmHg,,,,,4.0,WEEK 12,TREATMENT,2024-06-11,83,,,,,,MILESTONE 1
BI-1245.110,VS,BI-1245.110-JPN_SITE02-0014,32,HEIGHT,Height,164.5,cm,164.5,164.5,cm,,,,,4.0,WEEK 12,TREATMENT,2024-06-11,83,,,,,,MILESTONE 1
BI-1245.110,VS,BI-1245.110-JPN_SITE02-0014,33,PULSE,Pulse Rate,83.0,beats/min,83.0,83.0,beats/min,,,,,4.0,WEEK 12,TREATMENT,2024-06-11,83,,,,,,MILESTONE 1
BI-1245.110,VS,BI-1245.110-JPN_SITE02-0014,34,RESP,Respiratory Rate,15.1,breaths/min,15.1,15.1,breaths/min,,,,,4.0,WEEK 12,TREATMENT,2024-06-11,83,,,,,,MILESTONE 1
BI-1245.110,VS,BI-1245.110-JPN_SITE02-0014,35,SYSBP,Systolic Blood Pressure,129.4,mmHg,129.4,129.4,mmHg,,,,,4.0,WEEK 12,TREATMENT,2024-06-11,83,,,,,,MILESTONE 1
BI-1245.110,VS,BI-1245.110-JPN_SITE02-0014,36,TEMP,Temperature,36.9,C,36.9,36.9,C,,,,,4.0,WEEK 12,TREATMENT,2024-06-11,83,,,,,,MILESTONE 1
BI-1245.110,VS,BI-1245.110-JPN_SITE02-0014,37,WEIGHT,Weight,78.8,kg,78.8,78.8,kg,,,,,4.0,WEEK 12,TREATMENT,2024-06-11,83,,,,,,MILESTONE 1
BI-1245.110,VS,BI-1245.110-JPN_SITE02-0014,38,BMI,BMI,,,28.7,28.7,kg/m2,,,,Y,5.0,MONTH 6,TREATMENT,2024-09-18,182,,,,,,MILESTONE 1
BI-1245.110,VS,BI-1245.110-JPN_SITE02-0014,39,DIABP,Diastolic Blood Pressure,67.7,mmHg,67.7,67.7,mmHg,,,,,5.0,MONTH 6,TREATMENT,2024-09-18,182,,,,,,MILESTONE 1
BI-1245.110,VS,BI-1245.110-JPN_SITE02-0014,40,HEIGHT,Height,164.4,cm,164.4,164.4,cm,,,,,5.0,MONTH 6,TREATMENT,2024-09-18,182,,,,,,MILESTONE 1
BI-1245.110,VS,BI-1245.110-JPN_SITE02-0014,41,PULSE,Pulse Rate,81.5,beats/min,81.5,81.5,beats/min,,,,,5.0,MONTH 6,TREATMENT,2024-09-18,182,,,,,,MILESTONE 1
BI-1245.110,VS,BI-1245.110-JPN_SITE02-0014,42,RESP,Respiratory Rate,14.8,breaths/min,14.8,14.8,breaths/min,,,,,5.0,MONTH 6,TREATMENT,2024-09-18,182,,,,,,MILESTONE 1
BI-1245.110,VS,BI-1245.110-JPN_SITE02-0014,43,SYSBP,Systolic Blood Pressure,131.4,mmHg,131.4,131.4,mmHg,,,,,5.0,MONTH 6,TREATMENT,2024-09-18,182,,,,,,MILESTONE 1
BI-1245.110,VS,BI-1245.110-JPN_SITE02-0014,44,TEMP,Temperature,37.0,C,37.0,37.0,C,,,,,5.0,MONTH 6,TREATMENT,2024-09-18,182,,,,,,MILESTONE 1
BI-1245.110,VS,BI-1245.110-JPN_SITE02-0014,45,WEIGHT,Weight,77.6,kg,77.6,77.6,kg,,,,,5.0,MONTH 6,TREATMENT,2024-09-18,182,,,,,,MILESTONE 1
BI-1245.110,VS,BI-1245.110-JPN_SITE02-0014,46,BMI,BMI,,,28.0,28.0,kg/m2,,,,Y,6.0,MONTH 12,TREATMENT,2025-04-03,379,,,,,,MILESTONE 1
BI-1245.110,VS,BI-1245.110-JPN_SITE02-0014,47,DIABP,Diastolic Blood Pressure,68.7,mmHg,68.7,68.7,mmHg,,,,,6.0,MONTH 12,TREATMENT,2025-04-03,379,,,,,,MILESTONE 1
BI-1245.110,VS,BI-1245.110-JPN_SITE02-0014,48,HEIGHT,Height,164.2,cm,164.2,164.2,cm,,,,,6.0,MONTH 12,TREATMENT,2025-04-03,379,,,,,,MILESTONE 1
BI-1245.110,VS,BI-1245.110-JPN_SITE02-0014,49,PULSE,Pulse Rate,79.3,beats/min,79.3,79.3,beats/min,,,,,6.0,MONTH 12,TREATMENT,2025-04-03,379,,,,,,MILESTONE 1
BI-1245.110,VS,BI-1245.110-JPN_SITE02-0014,50,RESP,Respiratory Rate,17.7,breaths/min,17.7,17.7,breaths/min,,,,,6.0,MONTH 12,TREATMENT,2025-04-03,379,,,,,,MILESTONE 1
BI-1245.110,VS,BI-1245.110-JPN_SITE02-0014,51,SYSBP,Systolic Blood Pressure,130.8,mmHg,130.8,130.8,mmHg,,,,,6.0,MONTH 12,TREATMENT,2025-04-03,379,,,,,,MILESTONE 1
BI-1245.110,VS,BI-1245.110-JPN_SITE02-0014,52,TEMP,Temperature,36.8,C,36.8,36.8,C,,,,,6.0,MONTH 12,TREATMENT,2025-04-03,379,,,,,,MILESTONE 1
BI-1245.110,VS,BI-1245.110-JPN_SITE02-0014,53,WEIGHT,Weight,75.4,kg,75.4,75.4,kg,,,,,6.0,MONTH 12,TREATMENT,2025-04-03,379,,,,,,MILESTONE 1
BI-1245.110,VS,BI-1245.110-JPN_SITE02-0014,54,BMI,BMI,,,28.2,28.2,kg/m2,,,,Y,7.0,MONTH 18,TREATMENT,2025-09-17,546,,,,,,MILESTONE 1
BI-1245.110,VS,BI-1245.110-JPN_SITE02-0014,55,DIABP,Diastolic Blood Pressure,66.9,mmHg,66.9,66.9,mmHg,,,,,7.0,MONTH 18,TREATMENT,2025-09-17,546,,,,,,MILESTONE 1
BI-1245.110,VS,BI-1245.110-JPN_SITE02-0014,56,HEIGHT,Height,163.5,cm,163.5,163.5,cm,,,,,7.0,MONTH 18,TREATMENT,2025-09-17,546,,,,,,MILESTONE 1
BI-1245.110,VS,BI-1245.110-JPN_SITE02-0014,57,PULSE,Pulse Rate,76.4,beats/min,76.4,76.4,beats/min,,,,,7.0,MONTH 18,TREATMENT,2025-09-17,546,,,,,,MILESTONE 1
BI-1245.110,VS,BI-1245.110-JPN_SITE02-0014,58,RESP,Respiratory Rate,17.3,breaths/min,17.3,17.3,breaths/min,,,,,7.0,MONTH 18,TREATMENT,2025-09-17,546,,,,,,MILESTONE 1
BI-1245.110,VS,BI-1245.110-JPN_SITE02-0014,59,SYSBP,Systolic Blood Pressure,129.8,mmHg,129.8,129.8,mmHg,,,,,7.0,MONTH 18,TREATMENT,2025-09-17,546,,,,,,MILESTONE 1
BI-1245.110,VS,BI-1245.110-JPN_SITE02-0014,60,TEMP,Temperature,36.7,C,36.7,36.7,C,,,,,7.0,MONTH 18,TREATMENT,2025-09-17,546,,,,,,MILESTONE 1
BI-1245.110,VS,BI-1245.110-JPN_SITE02-0014,61,WEIGHT,Weight,75.3,kg,75.3,75.3,kg,,,,,7.0,MONTH 18,TREATMENT,2025-09-17,546,,,,,,MILESTONE 1
BI-1245.110,VS,BI-1245.110-JPN_SITE02-0014,62,BMI,BMI,,,27.6,27.6,kg/m2,,,,Y,8.0,MONTH 24,TREATMENT,2026-03-20,730,,,,,,MILESTONE 1
BI-1245.110,VS,BI-1245.110-JPN_SITE02-0014,63,DIABP,Diastolic Blood Pressure,67.9,mmHg,67.9,67.9,mmHg,,,,,8.0,MONTH 24,TREATMENT,2026-03-20,730,,,,,,MILESTONE 1
BI-1245.110,VS,BI-1245.110-JPN_SITE02-0014,64,HEIGHT,Height,163.6,cm,163.6,163.6,cm,,,,,8.0,MONTH 24,TREATMENT,2026-03-20,730,,,,,,MILESTONE 1
BI-1245.110,VS,BI-1245.110-JPN_SITE02-0014,65,PULSE,Pulse Rate,76.2,beats/min,76.2,76.2,beats/min,,,,,8.0,MONTH 24,TREATMENT,2026-03-20,730,,,,,,MILESTONE 1
BI-1245.110,VS,BI-1245.110-JPN_SITE02-0014,66,RESP,Respiratory Rate,16.2,breaths/min,16.2,16.2,breaths/min,,,,,8.0,MONTH 24,TREATMENT,2026-03-20,730,,,,,,MILESTONE 1
BI-1245.110,VS,BI-1245.110-JPN_SITE02-0014,67,SYSBP,Systolic Blood Pressure,129.0,mmHg,129.0,129.0,mmHg,,,,,8.0,MONTH 24,TREATMENT,2026-03-20,730,,,,,,MILESTONE 1
BI-1245.110,VS,BI-1245.110-JPN_SITE02-0014,68,TEMP,Temperature,36.8,C,36.8,36.8,C,,,,,8.0,MONTH 24,TREATMENT,2026-03-20,730,,,,,,MILESTONE 1
BI-1245.110,VS,BI-1245.110-JPN_SITE02-0014,69,WEIGHT,Weight,73.8,kg,73.8,73.8,kg,,,,,8.0,MONTH 24,TREATMENT,2026-03-20,730,,,,,,MILESTONE 1
BI-1245.110,VS,BI-1245.110-JPN_SITE02-0014,70,BMI,BMI,,,27.6,27.6,kg/m2,,,,Y,9.0,EOT,TREATMENT,2026-05-31,802,,,,,,MILESTONE 1
BI-1245.110,VS,BI-1245.110-JPN_SITE02-0014,71,DIABP,Diastolic Blood Pressure,,,,,,NOT DONE,,,,9.0,EOT,TREATMENT,2026-05-31,802,,,,,,MILESTONE 1
BI-1245.110,VS,BI-1245.110-JPN_SITE02-0014,72,HEIGHT,Height,163.8,cm,163.8,163.8,cm,,,,,9.0,EOT,TREATMENT,2026-05-31,802,,,,,,MILESTONE 1
BI-1245.110,VS,BI-1245.110-JPN_SITE02-0014,73,PULSE,Pulse Rate,72.3,beats/min,72.3,72.3,beats/min,,,,,9.0,EOT,TREATMENT,2026-05-31,802,,,,,,MILESTONE 1
BI-1245.110,VS,BI-1245.110-JPN_SITE02-0014,74,RESP,Respiratory Rate,16.6,breaths/min,16.6,16.6,breaths/min,,,,,9.0,EOT,TREATMENT,2026-05-31,802,,,,,,MILESTONE 1
BI-1245.110,VS,BI-1245.110-JPN_SITE02-0014,75,SYSBP,Systolic Blood Pressure,129.3,mmHg,129.3,129.3,mmHg,,,,,9.0,EOT,TREATMENT,2026-05-31,802,,,,,,MILESTONE 1
BI-1245.110,VS,BI-1245.110-JPN_SITE02-0014,76,TEMP,Temperature,36.8,C,36.8,36.8,C,,,,,9.0,EOT,TREATMENT,2026-05-31,802,,,,,,MILESTONE 1
BI-1245.110,VS,BI-1245.110-JPN_SITE02-0014,77,WEIGHT,Weight,74.1,kg,74.1,74.1,kg,,,,,9.0,EOT,TREATMENT,2026-05-31,802,,,,,,MILESTONE 1
BI-1245.110,VS,BI-1245.110-JPN_SITE02-0014,78,BMI,BMI,,,27.9,27.9,kg/m2,,,,Y,10.0,SAFETY FU,FOLLOW-UP,2026-07-06,838,,,,,,MILESTONE 1
BI-1245.110,VS,BI-1245.110-JPN_SITE02-0014,79,DIABP,Diastolic Blood Pressure,67.7,mmHg,67.7,67.7,mmHg,,,,,10.0,SAFETY FU,FOLLOW-UP,2026-07-06,838,,,,,,MILESTONE 1
BI-1245.110,VS,BI-1245.110-JPN_SITE02-0014,80,HEIGHT,Height,164.1,cm,164.1,164.1,cm,,,,,10.0,SAFETY FU,FOLLOW-UP,2026-07-06,838,,,,,,MILESTONE 1
BI-1245.110,VS,BI-1245.110-JPN_SITE02-0014,81,PULSE,Pulse Rate,72.5,beats/min,72.5,72.5,beats/min,,,,,10.0,SAFETY FU,FOLLOW-UP,2026-07-06,838,,,,,,MILESTONE 1
BI-1245.110,VS,BI-1245.110-JPN_SITE02-0014,82,RESP,Respiratory Rate,17.2,breaths/min,17.2,17.2,breaths/min,,,,,10.0,SAFETY FU,FOLLOW-UP,2026-07-06,838,,,,,,MILESTONE 1
BI-1245.110,VS,BI-1245.110-JPN_SITE02-0014,83,SYSBP,Systolic Blood Pressure,128.8,mmHg,128.8,128.8,mmHg,,,,,10.0,SAFETY FU,FOLLOW-UP,2026-07-06,838,,,,,,MILESTONE 1
BI-1245.110,VS,BI-1245.110-JPN_SITE02-0014,84,TEMP,Temperature,36.9,C,36.9,36.9,C,,,,,10.0,SAFETY FU,FOLLOW-UP,2026-07-06,838,,,,,,MILESTONE 1
BI-1245.110,VS,BI-1245.110-JPN_SITE02-0014,85,WEIGHT,Weight,75.1,kg,75.1,75.1,kg,,,,,10.0,SAFETY FU,FOLLOW-UP,2026-07-06,838,,,,,,MILESTONE 1
BI-1245.110,VS,BI-1245.110-KOR_SITE01-0012,1,BMI,BMI,,,35.5,35.5,kg/m2,,,,Y,1.0,SCREENING,SCREENING,2024-03-29,-35,,,,,,MILESTONE 1
BI-1245.110,VS,BI-1245.110-KOR_SITE01-0012,2,DIABP,Diastolic Blood Pressure,76.3,mmHg,76.3,76.3,mmHg,,,,,1.0,SCREENING,SCREENING,2024-03-29,-35,,,,,,MILESTONE 1
BI-1245.110,VS,BI-1245.110-KOR_SITE01-0012,3,HEIGHT,Height,156.8,cm,156.8,156.8,cm,,,,,1.0,SCREENING,SCREENING,2024-03-29,-35,,,,,,MILESTONE 1
BI-1245.110,VS,BI-1245.110-KOR_SITE01-0012,4,PULSE,Pulse Rate,87.2,beats/min,87.2,87.2,beats/min,,Y,Y,,1.0,SCREENING,SCREENING,2024-03-29,-35,,,,,,MILESTONE 1
BI-1245.110,VS,BI-1245.110-KOR_SITE01-0012,5,RESP,Respiratory Rate,25.5,breaths/min,25.5,25.5,breaths/min,,,,,1.0,SCREENING,SCREENING,2024-03-29,-35,,,,,,MILESTONE 1
BI-1245.110,VS,BI-1245.110-KOR_SITE01-0012,6,SYSBP,Systolic Blood Pressure,158.2,mmHg,158.2,158.2,mmHg,,,,,1.0,SCREENING,SCREENING,2024-03-29,-35,,,,,,MILESTONE 1
BI-1245.110,VS,BI-1245.110-KOR_SITE01-0012,7,TEMP,Temperature,36.5,C,36.5,36.5,C,,,,,1.0,SCREENING,SCREENING,2024-03-29,-35,,,,,,MILESTONE 1
BI-1245.110,VS,BI-1245.110-KOR_SITE01-0012,8,WEIGHT,Weight,87.4,kg,87.4,87.4,kg,,,,,1.0,SCREENING,SCREENING,2024-03-29,-35,,,,,,MILESTONE 1
BI-1245.110,VS,BI-1245.110-KOR_SITE01-0012,9,BMI,BMI,,,36.1,36.1,kg/m2,,Y,Y,Y,2.0,BASELINE,TREATMENT,2024-05-03,1,,,,,,MILESTONE 1
BI-1245.110,VS,BI-1245.110-KOR_SITE01-0012,10,DIABP,Diastolic Blood Pressure,76.3,mmHg,76.3,76.3,mmHg,,Y,Y,,2.0,BASELINE,TREATMENT,2024-05-03T07:45,1,PRE-DOSE,1,-PT15M,DOSE ADMINISTRATION,2024-05-03T08:00,MILESTONE 1
BI-1245.110,VS,BI-1245.110-KOR_SITE01-0012,11,DIABP,Diastolic Blood Pressure,76.0,mmHg,76.0,76.0,mmHg,,,,,2.0,BASELINE,TREATMENT,2024-05-03T09:00,1,1H POST-DOSE,2,PT1H,DOSE ADMINISTRATION,2024-05-03T08:00,MILESTONE 1
BI-1245.110,VS,BI-1245.110-KOR_SITE01-0012,12,HEIGHT,Height,156.8,cm,156.8,156.8,cm,,Y,Y,,2.0,BASELINE,TREATMENT,2024-05-03,1,,,,,,MILESTONE 1
BI-1245.110,VS,BI-1245.110-KOR_SITE01-0012,13,PULSE,Pulse Rate,,,,,,NOT DONE,,,,2.0,BASELINE,TREATMENT,2024-05-03,1,,,,,,MILESTONE 1
BI-1245.110,VS,BI-1245.110-KOR_SITE01-0012,14,RESP,Respiratory Rate,24.5,breaths/min,24.5,24.5,breaths/min,,Y,Y,,2.0,BASELINE,TREATMENT,2024-05-03T07:45,1,PRE-DOSE,1,-PT15M,DOSE ADMINISTRATION,2024-05-03T08:00,MILESTONE 1
BI-1245.110,VS,BI-1245.110-KOR_SITE01-0012,15,RESP,Respiratory Rate,24.1,breaths/min,24.1,24.1,breaths/min,,,,,2.0,BASELINE,TREATMENT,2024-05-03T09:00,1,1H POST-DOSE,2,PT1H,DOSE ADMINISTRATION,2024-05-03T08:00,MILESTONE 1
BI-1245.110,VS,BI-1245.110-KOR_SITE01-0012,16,SYSBP,Systolic Blood Pressure,159.4,mmHg,159.4,159.4,mmHg,,Y,Y,,2.0,BASELINE,TREATMENT,2024-05-03T07:45,1,PRE-DOSE,1,-PT15M,DOSE ADMINISTRATION,2024-05-03T08:00,MILESTONE 1
BI-1245.110,VS,BI-1245.110-KOR_SITE01-0012,17,SYSBP,Systolic Blood Pressure,157.1,mmHg,157.1,157.1,mmHg,,,,,2.0,BASELINE,TREATMENT,2024-05-03T09:00,1,1H POST-DOSE,2,PT1H,DOSE ADMINISTRATION,2024-05-03T08:00,MILESTONE 1
BI-1245.110,VS,BI-1245.110-KOR_SITE01-0012,18,TEMP,Temperature,36.2,C,36.2,36.2,C,,Y,Y,,2.0,BASELINE,TREATMENT,2024-05-03T07:45,1,PRE-DOSE,1,-PT15M,DOSE ADMINISTRATION,2024-05-03T08:00,MILESTONE 1
BI-1245.110,VS,BI-1245.110-KOR_SITE01-0012,19,TEMP,Temperature,37.3,C,37.3,37.3,C,,,,,2.0,BASELINE,TREATMENT,2024-05-03T09:00,1,1H POST-DOSE,2,PT1H,DOSE ADMINISTRATION,2024-05-03T08:00,MILESTONE 1
BI-1245.110,VS,BI-1245.110-KOR_SITE01-0012,20,WEIGHT,Weight,88.8,kg,88.8,88.8,kg,,Y,Y,,2.0,BASELINE,TREATMENT,2024-05-03,1,,,,,,MILESTONE 1
BI-1245.110,VS,BI-1245.110-MEX_SITE01-0016,1,BMI,BMI,,,27.7,27.7,kg/m2,,,,Y,1.0,SCREENING,SCREENING,2024-02-04,-35,,,,,,MILESTONE 1
BI-1245.110,VS,BI-1245.110-MEX_SITE01-0016,2,DIABP,Diastolic Blood Pressure,96.1,mmHg,96.1,96.1,mmHg,,,,,1.0,SCREENING,SCREENING,2024-02-04,-35,,,,,,MILESTONE 1
BI-1245.110,VS,BI-1245.110-MEX_SITE01-0016,3,HEIGHT,Height,140.0,cm,140.0,140.0,cm,,,,,1.0,SCREENING,SCREENING,2024-02-04,-35,,,,,,MILESTONE 1
BI-1245.110,VS,BI-1245.110-MEX_SITE01-0016,4,PULSE,Pulse Rate,51.6,beats/min,51.6,51.6,beats/min,,,,,1.0,SCREENING,SCREENING,2024-02-04,-35,,,,,,MILESTONE 1
BI-1245.110,VS,BI-1245.110-MEX_SITE01-0016,5,RESP,Respiratory Rate,18.5,breaths/min,18.5,18.5,breaths/min,,,,,1.0,SCREENING,SCREENING,2024-02-04,-35,,,,,,MILESTONE 1
BI-1245.110,VS,BI-1245.110-MEX_SITE01-0016,6,SYSBP,Systolic Blood Pressure,172.6,mmHg,172.6,172.6,mmHg,,,,,1.0,SCREENING,SCREENING,2024-02-04,-35,,,,,,MILESTONE 1
BI-1245.110,VS,BI-1245.110-MEX_SITE01-0016,7,TEMP,Temperature,36.2,C,36.2,36.2,C,,,,,1.0,SCREENING,SCREENING,2024-02-04,-35,,,,,,MILESTONE 1
BI-1245.110,VS,BI-1245.110-MEX_SITE01-0016,8,WEIGHT,Weight,54.2,kg,54.2,54.2,kg,,,,,1.0,SCREENING,SCREENING,2024-02-04,-35,,,,,,MILESTONE 1
BI-1245.110,VS,BI-1245.110-MEX_SITE01-0016,9,BMI,BMI,,,28.4,28.4,kg/m2,,Y,Y,Y,2.0,BASELINE,TREATMENT,2024-03-10,1,,,,,,MILESTONE 1
BI-1245.110,VS,BI-1245.110-MEX_SITE01-0016,10,DIABP,Diastolic Blood Pressure,95.1,mmHg,95.1,95.1,mmHg,,Y,Y,,2.0,BASELINE,TREATMENT,2024-03-10T07:45,1,PRE-DOSE,1,-PT15M,DOSE ADMINISTRATION,2024-03-10T08:00,MILESTONE 1
BI-1245.110,VS,BI-1245.110-MEX_SITE01-0016,11,DIABP,Diastolic Blood Pressure,96.3,mmHg,96.3,96.3,mmHg,,,,,2.0,BASELINE,TREATMENT,2024-03-10T09:00,1,1H POST-DOSE,2,PT1H,DOSE ADMINISTRATION,2024-03-10T08:00,MILESTONE 1
BI-1245.110,VS,BI-1245.110-MEX_SITE01-0016,12,HEIGHT,Height,140.0,cm,140.0,140.0,cm,,Y,Y,,2.0,BASELINE,TREATMENT,2024-03-10,1,,,,,,MILESTONE 1
BI-1245.110,VS,BI-1245.110-MEX_SITE01-0016,13,PULSE,Pulse Rate,52.3,beats/min,52.3,52.3,beats/min,,Y,Y,,2.0,BASELINE,TREATMENT,2024-03-10T07:45,1,PRE-DOSE,1,-PT15M,DOSE ADMINISTRATION,2024-03-10T08:00,MILESTONE 1
BI-1245.110,VS,BI-1245.110-MEX_SITE01-0016,14,PULSE,Pulse Rate,53.8,beats/min,53.8,53.8,beats/min,,,,,2.0,BASELINE,TREATMENT,2024-03-10T09:00,1,1H POST-DOSE,2,PT1H,DOSE ADMINISTRATION,2024-03-10T08:00,MILESTONE 1
BI-1245.110,VS,BI-1245.110-MEX_SITE01-0016,15,RESP,Respiratory Rate,16.8,breaths/min,16.8,16.8,breaths/min,,Y,Y,,2.0,BASELINE,TREATMENT,2024-03-10T07:45,1,PRE-DOSE,1,-PT15M,DOSE ADMINISTRATION,2024-03-10T08:00,MILESTONE 1
BI-1245.110,VS,BI-1245.110-MEX_SITE01-0016,16,RESP,Respiratory Rate,16.9,breaths/min,16.9,16.9,breaths/min,,,,,2.0,BASELINE,TREATMENT,2024-03-10T09:00,1,1H POST-DOSE,2,PT1H,DOSE ADMINISTRATION,2024-03-10T08:00,MILESTONE 1
BI-1245.110,VS,BI-1245.110-MEX_SITE01-0016,17,SYSBP,Systolic Blood Pressure,169.6,mmHg,169.6,169.6,mmHg,,Y,Y,,2.0,BASELINE,TREATMENT,2024-03-10T07:45,1,PRE-DOSE,1,-PT15M,DOSE ADMINISTRATION,2024-03-10T08:00,MILESTONE 1
BI-1245.110,VS,BI-1245.110-MEX_SITE01-0016,18,SYSBP,Systolic Blood Pressure,171.4,mmHg,171.4,171.4,mmHg,,,,,2.0,BASELINE,TREATMENT,2024-03-10T09:00,1,1H POST-DOSE,2,PT1H,DOSE ADMINISTRATION,2024-03-10T08:00,MILESTONE 1
BI-1245.110,VS,BI-1245.110-MEX_SITE01-0016,19,TEMP,Temperature,35.8,C,35.8,35.8,C,,Y,Y,,2.0,BASELINE,TREATMENT,2024-03-10T07:45,1,PRE-DOSE,1,-PT15M,DOSE ADMINISTRATION,2024-03-10T08:00,MILESTONE 1
BI-1245.110,VS,BI-1245.110-MEX_SITE01-0016,20,TEMP,Temperature,35.6,C,35.6,35.6,C,,,,,2.0,BASELINE,TREATMENT,2024-03-10T09:00,1,1H POST-DOSE,2,PT1H,DOSE ADMINISTRATION,2024-03-10T08:00,MILESTONE 1
BI-1245.110,VS,BI-1245.110-MEX_SITE01-0016,21,WEIGHT,Weight,55.6,kg,55.6,55.6,kg,,Y,Y,,2.0,BASELINE,TREATMENT,2024-03-10,1,,,,,,MILESTONE 1
BI-1245.110,VS,BI-1245.110-MEX_SITE01-0016,22,BMI,BMI,,,29.0,29.0,kg/m2,,,,Y,3.0,WEEK 4,TREATMENT,2024-04-02,24,,,,,,MILESTONE 1
BI-1245.110,VS,BI-1245.110-MEX_SITE01-0016,23,DIABP,Diastolic Blood Pressure,95.1,mmHg,95.1,95.1,mmHg,,,,,3.0,WEEK 4,TREATMENT,2024-04-02,24,,,,,,MILESTONE 1
BI-1245.110,VS,BI-1245.110-MEX_SITE01-0016,24,HEIGHT,Height,140.0,cm,140.0,140.0,cm,,,,,3.0,WEEK 4,TREATMENT,2024-04-02,24,,,,,,MILESTONE 1
BI-1245.110,VS,BI-1245.110-MEX_SITE01-0016,25,PULSE,Pulse Rate,50.9,beats/min,50.9,50.9,beats/min,,,,,3.0,WEEK 4,TREATMENT,2024-04-02,24,,,,,,MILESTONE 1
BI-1245.110,VS,BI-1245.110-MEX_SITE01-0016,26,RESP,Respiratory Rate,16.8,breaths/min,16.8,16.8,breaths/min,,,,,3.0,WEEK 4,TREATMENT,2024-04-02,24,,,,,,MILESTONE 1
BI-1245.110,VS,BI-1245.110-MEX_SITE01-0016,27,SYSBP,Systolic Blood Pressure,168.8,mmHg,168.8,168.8,mmHg,,,,,3.0,WEEK 4,TREATMENT,2024-04-02,24,,,,,,MILESTONE 1
BI-1245.110,VS,BI-1245.110-MEX_SITE01-0016,28,TEMP,Temperature,35.8,C,35.8,35.8,C,,,,,3.0,WEEK 4,TREATMENT,2024-04-02,24,,,,,,MILESTONE 1
BI-1245.110,VS,BI-1245.110-MEX_SITE01-0016,29,WEIGHT,Weight,56.8,kg,56.8,56.8,kg,,,,,3.0,WEEK 4,TREATMENT,2024-04-02,24,,,,,,MILESTONE 1
BI-1245.110,VS,BI-1245.110-MEX_SITE01-0016,30,BMI,BMI,,,29.0,29.0,kg/m2,,,,Y,4.0,WEEK 12,TREATMENT,2024-05-27,79,,,,,,MILESTONE 1
BI-1245.110,VS,BI-1245.110-MEX_SITE01-0016,31,DIABP,Diastolic Blood Pressure,97.0,mmHg,97.0,97.0,mmHg,,,,,4.0,WEEK 12,TREATMENT,2024-05-27,79,,,,,,MILESTONE 1
BI-1245.110,VS,BI-1245.110-MEX_SITE01-0016,32,HEIGHT,Height,140.0,cm,140.0,140.0,cm,,,,,4.0,WEEK 12,TREATMENT,2024-05-27,79,,,,,,MILESTONE 1
BI-1245.110,VS,BI-1245.110-MEX_SITE01-0016,33,PULSE,Pulse Rate,56.2,beats/min,56.2,56.2,beats/min,,,,,4.0,WEEK 12,TREATMENT,2024-05-27,79,,,,,,MILESTONE 1
BI-1245.110,VS,BI-1245.110-MEX_SITE01-0016,34,RESP,Respiratory Rate,20.0,breaths/min,20.0,20.0,breaths/min,,,,,4.0,WEEK 12,TREATMENT,2024-05-27,79,,,,,,MILESTONE 1
BI-1245.110,VS,BI-1245.110-MEX_SITE01-0016,35,SYSBP,Systolic Blood Pressure,171.5,mmHg,171.5,171.5,mmHg,,,,,4.0,WEEK 12,TREATMENT,2024-05-27,79,,,,,,MILESTONE 1
BI-1245.110,VS,BI-1245.110-MEX_SITE01-0016,36,TEMP,Temperature,35.9,C,35.9,35.9,C,,,,,4.0,WEEK 12,TREATMENT,2024-05-27,79,,,,,,MILESTONE 1
BI-1245.110,VS,BI-1245.110-MEX_SITE01-0016,37,WEIGHT,Weight,56.9,kg,56.9,56.9,kg,,,,,4.0,WEEK 12,TREATMENT,2024-05-27,79,,,,,,MILESTONE 1
BI-1245.110,VS,BI-1245.110-MEX_SITE01-0016,38,BMI,BMI,,,29.0,29.0,kg/m2,,,,Y,5.0,MONTH 6,TREATMENT,2024-09-21,196,,,,,,MILESTONE 1
BI-1245.110,VS,BI-1245.110-MEX_SITE01-0016,39,DIABP,Diastolic Blood Pressure,80.3,mmHg,80.3,80.3,mmHg,,,,,5.0,MONTH 6,TREATMENT,2024-09-21,196,,,,,,MILESTONE 1
BI-1245.110,VS,BI-1245.110-MEX_SITE01-0016,40,HEIGHT,Height,140.0,cm,140.0,140.0,cm,,,,,5.0,MONTH 6,TREATMENT,2024-09-21,196,,,,,,MILESTONE 1
BI-1245.110,VS,BI-1245.110-MEX_SITE01-0016,41,PULSE,Pulse Rate,56.3,beats/min,56.3,56.3,beats/min,,,,,5.0,MONTH 6,TREATMENT,2024-09-21,196,,,,,,MILESTONE 1
BI-1245.110,VS,BI-1245.110-MEX_SITE01-0016,42,RESP,Respiratory Rate,19.0,breaths/min,19.0,19.0,breaths/min,,,,,5.0,MONTH 6,TREATMENT,2024-09-21,196,,,,,,MILESTONE 1
BI-1245.110,VS,BI-1245.110-MEX_SITE01-0016,43,SYSBP,Systolic Blood Pressure,142.8,mmHg,142.8,142.8,mmHg,,,,,5.0,MONTH 6,TREATMENT,2024-09-21,196,,,,,,MILESTONE 1
BI-1245.110,VS,BI-1245.110-MEX_SITE01-0016,44,TEMP,Temperature,36.0,C,36.0,36.0,C,,,,,5.0,MONTH 6,TREATMENT,2024-09-21,196,,,,,,MILESTONE 1
BI-1245.110,VS,BI-1245.110-MEX_SITE01-0016,45,WEIGHT,Weight,56.9,kg,56.9,56.9,kg,,,,,5.0,MONTH 6,TREATMENT,2024-09-21,196,,,,,,MILESTONE 1
BI-1245.110,VS,BI-1245.110-MEX_SITE01-0016,46,BMI,BMI,,,27.9,27.9,kg/m2,,,,Y,6.0,MONTH 12,TREATMENT,2025-03-11,367,,,,,,MILESTONE 1
BI-1245.110,VS,BI-1245.110-MEX_SITE01-0016,47,DIABP,Diastolic Blood Pressure,97.1,mmHg,97.1,97.1,mmHg,,,,,6.0,MONTH 12,TREATMENT,2025-03-11,367,,,,,,MILESTONE 1
BI-1245.110,VS,BI-1245.110-MEX_SITE01-0016,48,HEIGHT,Height,140.0,cm,140.0,140.0,cm,,,,,6.0,MONTH 12,TREATMENT,2025-03-11,367,,,,,,MILESTONE 1
BI-1245.110,VS,BI-1245.110-MEX_SITE01-0016,49,PULSE,Pulse Rate,51.5,beats/min,51.5,51.5,beats/min,,,,,6.0,MONTH 12,TREATMENT,2025-03-11,367,,,,,,MILESTONE 1
BI-1245.110,VS,BI-1245.110-MEX_SITE01-0016,50,RESP,Respiratory Rate,18.1,breaths/min,18.1,18.1,breaths/min,,,,,6.0,MONTH 12,TREATMENT,2025-03-11,367,,,,,,MILESTONE 1
BI-1245.110,VS,BI-1245.110-MEX_SITE01-0016,51,SYSBP,Systolic Blood Pressure,170.8,mmHg,170.8,170.8,mmHg,,,,,6.0,MONTH 12,TREATMENT,2025-03-11,367,,,,,,MILESTONE 1
BI-1245.110,VS,BI-1245.110-MEX_SITE01-0016,52,TEMP,Temperature,36.0,C,36.0,36.0,C,,,,,6.0,MONTH 12,TREATMENT,2025-03-11,367,,,,,,MILESTONE 1
BI-1245.110,VS,BI-1245.110-MEX_SITE01-0016,53,WEIGHT,Weight,54.7,kg,54.7,54.7,kg,,,,,6.0,MONTH 12,TREATMENT,2025-03-11,367,,,,,,MILESTONE 1
BI-1245.110,VS,BI-1245.110-MEX_SITE01-0016,54,BMI,BMI,,,26.4,26.4,kg/m2,,,,Y,7.0,MONTH 18,TREATMENT,2025-08-28,537,,,,,,MILESTONE 1
BI-1245.110,VS,BI-1245.110-MEX_SITE01-0016,55,DIABP,Diastolic Blood Pressure,96.6,mmHg,96.6,96.6,mmHg,,,,,7.0,MONTH 18,TREATMENT,2025-08-28,537,,,,,,MILESTONE 1
BI-1245.110,VS,BI-1245.110-MEX_SITE01-0016,56,HEIGHT,Height,140.0,cm,140.0,140.0,cm,,,,,7.0,MONTH 18,TREATMENT,2025-08-28,537,,,,,,MILESTONE 1
BI-1245.110,VS,BI-1245.110-MEX_SITE01-0016,57,PULSE,Pulse Rate,49.6,beats/min,49.6,49.6,beats/min,,,,,7.0,MONTH 18,TREATMENT,2025-08-28,537,,,,,,MILESTONE 1
BI-1245.110,VS,BI-1245.110-MEX_SITE01-0016,58,RESP,Respiratory Rate,19.0,breaths/min,19.0,19.0,breaths/min,,,,,7.0,MONTH 18,TREATMENT,2025-08-28,537,,,,,,MILESTONE 1
BI-1245.110,VS,BI-1245.110-MEX_SITE01-0016,59,SYSBP,Systolic Blood Pressure,170.8,mmHg,170.8,170.8,mmHg,,,,,7.0,MONTH 18,TREATMENT,2025-08-28,537,,,,,,MILESTONE 1
BI-1245.110,VS,BI-1245.110-MEX_SITE01-0016,60,TEMP,Temperature,35.8,C,35.8,35.8,C,,,,,7.0,MONTH 18,TREATMENT,2025-08-28,537,,,,,,MILESTONE 1
BI-1245.110,VS,BI-1245.110-MEX_SITE01-0016,61,WEIGHT,Weight,51.8,kg,51.8,51.8,kg,,,,,7.0,MONTH 18,TREATMENT,2025-08-28,537,,,,,,MILESTONE 1
BI-1245.110,VS,BI-1245.110-MEX_SITE01-0019,1,BMI,BMI,,,22.0,22.0,kg/m2,,,,Y,1.0,SCREENING,SCREENING,2024-01-13,-47,,,,,,MILESTONE 1
BI-1245.110,VS,BI-1245.110-MEX_SITE01-0019,2,DIABP,Diastolic Blood Pressure,97.6,mmHg,97.6,97.6,mmHg,,,,,1.0,SCREENING,SCREENING,2024-01-13,-47,,,,,,MILESTONE 1
BI-1245.110,VS,BI-1245.110-MEX_SITE01-0019,3,HEIGHT,Height,182.8,cm,182.8,182.8,cm,,,,,1.0,SCREENING,SCREENING,2024-01-13,-47,,,,,,MILESTONE 1
BI-1245.110,VS,BI-1245.110-MEX_SITE01-0019,4,PULSE,Pulse Rate,79.5,beats/min,79.5,79.5,beats/min,,,,,1.0,SCREENING,SCREENING,2024-01-13,-47,,,,,,MILESTONE 1
BI-1245.110,VS,BI-1245.110-MEX_SITE01-0019,5,RESP,Respiratory Rate,16.3,breaths/min,16.3,16.3,breaths/min,,,,,1.0,SCREENING,SCREENING,2024-01-13,-47,,,,,,MILESTONE 1
BI-1245.110,VS,BI-1245.110-MEX_SITE01-0019,6,SYSBP,Systolic Blood Pressure,144.5,mmHg,144.5,144.5,mmHg,,,,,1.0,SCREENING,SCREENING,2024-01-13,-47,,,,,,MILESTONE 1
BI-1245.110,VS,BI-1245.110-MEX_SITE01-0019,7,TEMP,Temperature,36.8,C,36.8,36.8,C,,,,,1.0,SCREENING,SCREENING,2024-01-13,-47,,,,,,MILESTONE 1
BI-1245.110,VS,BI-1245.110-MEX_SITE01-0019,8,WEIGHT,Weight,73.6,kg,73.6,73.6,kg,,,,,1.0,SCREENING,SCREENING,2024-01-13,-47,,,,,,MILESTONE 1
BI-1245.110,VS,BI-1245.110-MEX_SITE01-0019,9,BMI,BMI,,,22.6,22.6,kg/m2,,Y,Y,Y,2.0,BASELINE,TREATMENT,2024-02-29,1,,,,,,MILESTONE 1
BI-1245.110,VS,BI-1245.110-MEX_SITE01-0019,10,DIABP,Diastolic Blood Pressure,97.3,mmHg,97.3,97.3,mmHg,,Y,Y,,2.0,BASELINE,TREATMENT,2024-02-29T07:45,1,PRE-DOSE,1,-PT15M,DOSE ADMINISTRATION,2024-02-29T08:00,MILESTONE 1
BI-1245.110,VS,BI-1245.110-MEX_SITE01-0019,11,DIABP,Diastolic Blood Pressure,99.1,mmHg,99.1,99.1,mmHg,,,,,2.0,BASELINE,TREATMENT,2024-02-29T09:00,1,1H POST-DOSE,2,PT1H,DOSE ADMINISTRATION,2024-02-29T08:00,MILESTONE 1
BI-1245.110,VS,BI-1245.110-MEX_SITE01-0019,12,HEIGHT,Height,182.8,cm,182.8,182.8,cm,,Y,Y,,2.0,BASELINE,TREATMENT,2024-02-29,1,,,,,,MILESTONE 1
BI-1245.110,VS,BI-1245.110-MEX_SITE01-0019,13,PULSE,Pulse Rate,77.2,beats/min,77.2,77.2,beats/min,,Y,Y,,2.0,BASELINE,TREATMENT,2024-02-29T07:45,1,PRE-DOSE,1,-PT15M,DOSE ADMINISTRATION,2024-02-29T08:00,MILESTONE 1
BI-1245.110,VS,BI-1245.110-MEX_SITE01-0019,14,PULSE,Pulse Rate,76.0,beats/min,76.0,76.0,beats/min,,,,,2.0,BASELINE,TREATMENT,2024-02-29T09:00,1,1H POST-DOSE,2,PT1H,DOSE ADMINISTRATION,2024-02-29T08:00,MILESTONE 1
BI-1245.110,VS,BI-1245.110-MEX_SITE01-0019,15,RESP,Respiratory Rate,16.3,breaths/min,16.3,16.3,breaths/min,,Y,Y,,2.0,BASELINE,TREATMENT,2024-02-29T07:45,1,PRE-DOSE,1,-PT15M,DOSE ADMINISTRATION,2024-02-29T08:00,MILESTONE 1
BI-1245.110,VS,BI-1245.110-MEX_SITE01-0019,16,RESP,Respiratory Rate,15.8,breaths/min,15.8,15.8,breaths/min,,,,,2.0,BASELINE,TREATMENT,2024-02-29T09:00,1,1H POST-DOSE,2,PT1H,DOSE ADMINISTRATION,2024-02-29T08:00,MILESTONE 1
BI-1245.110,VS,BI-1245.110-MEX_SITE01-0019,17,SYSBP,Systolic Blood Pressure,146.3,mmHg,146.3,146.3,mmHg,,Y,Y,,2.0,BASELINE,TREATMENT,2024-02-29T07:45,1,PRE-DOSE,1,-PT15M,DOSE ADMINISTRATION,2024-02-29T08:00,MILESTONE 1
BI-1245.110,VS,BI-1245.110-MEX_SITE01-0019,18,SYSBP,Systolic Blood Pressure,147.2,mmHg,147.2,147.2,mmHg,,,,,2.0,BASELINE,TREATMENT,2024-02-29T09:00,1,1H POST-DOSE,2,PT1H,DOSE ADMINISTRATION,2024-02-29T08:00,MILESTONE 1
BI-1245.110,VS,BI-1245.110-MEX_SITE01-0019,19,TEMP,Temperature,36.9,C,36.9,36.9,C,,Y,Y,,2.0,BASELINE,TREATMENT,2024-02-29T07:45,1,PRE-DOSE,1,-PT15M,DOSE ADMINISTRATION,2024-02-29T08:00,MILESTONE 1
BI-1245.110,VS,BI-1245.110-MEX_SITE01-0019,20,TEMP,Temperature,37.1,C,37.1,37.1,C,,,,,2.0,BASELINE,TREATMENT,2024-02-29T09:00,1,1H POST-DOSE,2,PT1H,DOSE ADMINISTRATION,2024-02-29T08:00,MILESTONE 1
BI-1245.110,VS,BI-1245.110-MEX_SITE01-0019,21,WEIGHT,Weight,75.4,kg,75.4,75.4,kg,,Y,Y,,2.0,BASELINE,TREATMENT,2024-02-29,1,,,,,,MILESTONE 1
BI-1245.110,VS,BI-1245.110-MEX_SITE01-0019,22,BMI,BMI,,,22.0,22.0,kg/m2,,,,Y,3.0,WEEK 4,TREATMENT,2024-03-25,26,,,,,,MILESTONE 1
BI-1245.110,VS,BI-1245.110-MEX_SITE01-0019,23,DIABP,Diastolic Blood Pressure,96.5,mmHg,96.5,96.5,mmHg,,,,,3.0,WEEK 4,TREATMENT,2024-03-25,26,,,,,,MILESTONE 1
BI-1245.110,VS,BI-1245.110-MEX_SITE01-0019,24,HEIGHT,Height,181.8,cm,181.8,181.8,cm,,,,,3.0,WEEK 4,TREATMENT,2024-03-25,26,,,,,,MILESTONE 1
BI-1245.110,VS,BI-1245.110-MEX_SITE01-0019,25,PULSE,Pulse Rate,76.1,beats/min,76.1,76.1,beats/min,,,,,3.0,WEEK 4,TREATMENT,2024-03-25,26,,,,,,MILESTONE 1
BI-1245.110,VS,BI-1245.110-MEX_SITE01-0019,26,RESP,Respiratory Rate,16.0,breaths/min,16.0,16.0,breaths/min,,,,,3.0,WEEK 4,TREATMENT,2024-03-25,26,,,,,,MILESTONE 1
BI-1245.110,VS,BI-1245.110-MEX_SITE01-0019,27,SYSBP,Systolic Blood Pressure,145.2,mmHg,145.2,145.2,mmHg,,,,,3.0,WEEK 4,TREATMENT,2024-03-25,26,,,,,,MILESTONE 1
BI-1245.110,VS,BI-1245.110-MEX_SITE01-0019,28,TEMP,Temperature,37.1,C,37.1,37.1,C,,,,,3.0,WEEK 4,TREATMENT,2024-03-25,26,,,,,,MILESTONE 1
BI-1245.110,VS,BI-1245.110-MEX_SITE01-0019,29,WEIGHT,Weight,72.7,kg,72.7,72.7,kg,,,,,3.0,WEEK 4,TREATMENT,2024-03-25,26,,,,,,MILESTONE 1
BI-1245.110,VS,BI-1245.110-MEX_SITE01-0019,30,BMI,BMI,,,21.7,21.7,kg/m2,,,,Y,4.0,WEEK 12,TREATMENT,2024-05-22,84,,,,,,MILESTONE 1
BI-1245.110,VS,BI-1245.110-MEX_SITE01-0019,31,DIABP,Diastolic Blood Pressure,96.7,mmHg,96.7,96.7,mmHg,,,,,4.0,WEEK 12,TREATMENT,2024-05-22,84,,,,,,MILESTONE 1
BI-1245.110,VS,BI-1245.110-MEX_SITE01-0019,32,HEIGHT,Height,181.7,cm,181.7,181.7,cm,,,,,4.0,WEEK 12,TREATMENT,2024-05-22,84,,,,,,MILESTONE 1
BI-1245.110,VS,BI-1245.110-MEX_SITE01-0019,33,PULSE,Pulse Rate,74.4,beats/min,74.4,74.4,beats/min,,,,,4.0,WEEK 12,TREATMENT,2024-05-22,84,,,,,,MILESTONE 1
BI-1245.110,VS,BI-1245.110-MEX_SITE01-0019,34,RESP,Respiratory Rate,18.0,breaths/min,18.0,18.0,breaths/min,,,,,4.0,WEEK 12,TREATMENT,2024-05-22,84,,,,,,MILESTONE 1
BI-1245.110,VS,BI-1245.110-MEX_SITE01-0019,35,SYSBP,Systolic Blood Pressure,147.0,mmHg,147.0,147.0,mmHg,,,,,4.0,WEEK 12,TREATMENT,2024-05-22,84,,,,,,MILESTONE 1
BI-1245.110,VS,BI-1245.110-MEX_SITE01-0019,36,TEMP,Temperature,36.9,C,36.9,36.9,C,,,,,4.0,WEEK 12,TREATMENT,2024-05-22,84,,,,,,MILESTONE 1
BI-1245.110,VS,BI-1245.110-MEX_SITE01-0019,37,WEIGHT,Weight,71.6,kg,71.6,71.6,kg,,,,,4.0,WEEK 12,TREATMENT,2024-05-22,84,,,,,,MILESTONE 1
BI-1245.110,VS,BI-1245.110-MEX_SITE01-0019,38,BMI,BMI,,,21.4,21.4,kg/m2,,,,Y,5.0,MONTH 6,TREATMENT,2024-08-31,185,,,,,,MILESTONE 1
BI-1245.110,VS,BI-1245.110-MEX_SITE01-0019,39,DIABP,Diastolic Blood Pressure,95.3,mmHg,95.3,95.3,mmHg,,,,,5.0,MONTH 6,TREATMENT,2024-08-31,185,,,,,,MILESTONE 1
BI-1245.110,VS,BI-1245.110-MEX_SITE01-0019,40,HEIGHT,Height,182.1,cm,182.1,182.1,cm,,,,,5.0,MONTH 6,TREATMENT,2024-08-31,185,,,,,,MILESTONE 1
BI-1245.110,VS,BI-1245.110-MEX_SITE01-0019,41,PULSE,Pulse Rate,79.9,beats/min,79.9,79.9,beats/min,,,,,5.0,MONTH 6,TREATMENT,2024-08-31,185,,,,,,MILESTONE 1
BI-1245.110,VS,BI-1245.110-MEX_SITE01-0019,42,RESP,Respiratory Rate,17.9,breaths/min,17.9,17.9,breaths/min,,,,,5.0,MONTH 6,TREATMENT,2024-08-31,185,,,,,,MILESTONE 1
BI-1245.110,VS,BI-1245.110-MEX_SITE01-0019,43,SYSBP,Systolic Blood Pressure,144.1,mmHg,144.1,144.1,mmHg,,,,,5.0,MONTH 6,TREATMENT,2024-08-31,185,,,,,,MILESTONE 1
BI-1245.110,VS,BI-1245.110-MEX_SITE01-0019,44,TEMP,Temperature,37.2,C,37.2,37.2,C,,,,,5.0,MONTH 6,TREATMENT,2024-08-31,185,,,,,,MILESTONE 1
BI-1245.110,VS,BI-1245.110-MEX_SITE01-0019,45,WEIGHT,Weight,71.0,kg,71.0,71.0,kg,,,,,5.0,MONTH 6,TREATMENT,2024-08-31,185,,,,,,MILESTONE 1
BI-1245.110,VS,BI-1245.110-MEX_SITE01-0019,46,BMI,BMI,,,21.0,21.0,kg/m2,,,,Y,6.0,MONTH 12,TREATMENT,2025-03-11,377,,,,,,MILESTONE 1
BI-1245.110,VS,BI-1245.110-MEX_SITE01-0019,47,DIABP,Diastolic Blood Pressure,94.9,mmHg,94.9,94.9,mmHg,,,,,6.0,MONTH 12,TREATMENT,2025-03-11,377,,,,,,MILESTONE 1
BI-1245.110,VS,BI-1245.110-MEX_SITE01-0019,48,HEIGHT,Height,182.1,cm,182.1,182.1,cm,,,,,6.0,MONTH 12,TREATMENT,2025-03-11,377,,,,,,MILESTONE 1
BI-1245.110,VS,BI-1245.110-MEX_SITE01-0019,49,PULSE,Pulse Rate,81.8,beats/min,81.8,81.8,beats/min,,,,,6.0,MONTH 12,TREATMENT,2025-03-11,377,,,,,,MILESTONE 1
BI-1245.110,VS,BI-1245.110-MEX_SITE01-0019,50,RESP,Respiratory Rate,17.3,breaths/min,17.3,17.3,breaths/min,,,,,6.0,MONTH 12,TREATMENT,2025-03-11,377,,,,,,MILESTONE 1
BI-1245.110,VS,BI-1245.110-MEX_SITE01-0019,51,SYSBP,Systolic Blood Pressure,141.3,mmHg,141.3,141.3,mmHg,,,,,6.0,MONTH 12,TREATMENT,2025-03-11,377,,,,,,MILESTONE 1
BI-1245.110,VS,BI-1245.110-MEX_SITE01-0019,52,TEMP,Temperature,37.2,C,37.2,37.2,C,,,,,6.0,MONTH 12,TREATMENT,2025-03-11,377,,,,,,MILESTONE 1
BI-1245.110,VS,BI-1245.110-MEX_SITE01-0019,53,WEIGHT,Weight,69.8,kg,69.8,69.8,kg,,,,,6.0,MONTH 12,TREATMENT,2025-03-11,377,,,,,,MILESTONE 1
BI-1245.110,VS,BI-1245.110-MEX_SITE01-0019,54,BMI,BMI,,,21.5,21.5,kg/m2,,,,Y,8.0,MONTH 24,TREATMENT,2026-02-16,719,,,,,,MILESTONE 1
BI-1245.110,VS,BI-1245.110-MEX_SITE01-0019,55,DIABP,Diastolic Blood Pressure,92.5,mmHg,92.5,92.5,mmHg,,,,,8.0,MONTH 24,TREATMENT,2026-02-16,719,,,,,,MILESTONE 1
BI-1245.110,VS,BI-1245.110-MEX_SITE01-0019,56,HEIGHT,Height,182.6,cm,182.6,182.6,cm,,,,,8.0,MONTH 24,TREATMENT,2026-02-16,719,,,,,,MILESTONE 1
BI-1245.110,VS,BI-1245.110-MEX_SITE01-0019,57,PULSE,Pulse Rate,82.2,beats/min,82.2,82.2,beats/min,,,,,8.0,MONTH 24,TREATMENT,2026-02-16,719,,,,,,MILESTONE 1
BI-1245.110,VS,BI-1245.110-MEX_SITE01-0019,58,RESP,Respiratory Rate,,,,,,NOT DONE,,,,8.0,MONTH 24,TREATMENT,2026-02-16,719,,,,,,MILESTONE 1
BI-1245.110,VS,BI-1245.110-MEX_SITE01-0019,59,SYSBP,Systolic Blood Pressure,137.0,mmHg,137.0,137.0,mmHg,,,,,8.0,MONTH 24,TREATMENT,2026-02-16,719,,,,,,MILESTONE 1
BI-1245.110,VS,BI-1245.110-MEX_SITE01-0019,60,TEMP,Temperature,37.2,C,37.2,37.2,C,,,,,8.0,MONTH 24,TREATMENT,2026-02-16,719,,,,,,MILESTONE 1
BI-1245.110,VS,BI-1245.110-MEX_SITE01-0019,61,WEIGHT,Weight,71.6,kg,71.6,71.6,kg,,,,,8.0,MONTH 24,TREATMENT,2026-02-16,719,,,,,,MILESTONE 1
BI-1245.110,VS,BI-1245.110-POL_SITE01-0004,1,BMI,BMI,,,25.4,25.4,kg/m2,,,,Y,1.0,SCREENING,SCREENING,2024-01-04,-39,,,,,,MILESTONE 1
BI-1245.110,VS,BI-1245.110-POL_SITE01-0004,2,DIABP,Diastolic Blood Pressure,84.0,mmHg,84.0,84.0,mmHg,,,,,1.0,SCREENING,SCREENING,2024-01-04,-39,,,,,,MILESTONE 1
BI-1245.110,VS,BI-1245.110-POL_SITE01-0004,3,HEIGHT,Height,170.1,cm,170.1,170.1,cm,,,,,1.0,SCREENING,SCREENING,2024-01-04,-39,,,,,,MILESTONE 1
BI-1245.110,VS,BI-1245.110-POL_SITE01-0004,4,PULSE,Pulse Rate,75.4,beats/min,75.4,75.4,beats/min,,,,,1.0,SCREENING,SCREENING,2024-01-04,-39,,,,,,MILESTONE 1
BI-1245.110,VS,BI-1245.110-POL_SITE01-0004,5,RESP,Respiratory Rate,13.0,breaths/min,13.0,13.0,breaths/min,,,,,1.0,SCREENING,SCREENING,2024-01-04,-39,,,,,,MILESTONE 1
BI-1245.110,VS,BI-1245.110-POL_SITE01-0004,6,SYSBP,Systolic Blood Pressure,139.4,mmHg,139.4,139.4,mmHg,,,,,1.0,SCREENING,SCREENING,2024-01-04,-39,,,,,,MILESTONE 1
BI-1245.110,VS,BI-1245.110-POL_SITE01-0004,7,TEMP,Temperature,36.9,C,36.9,36.9,C,,,,,1.0,SCREENING,SCREENING,2024-01-04,-39,,,,,,MILESTONE 1
BI-1245.110,VS,BI-1245.110-POL_SITE01-0004,8,WEIGHT,Weight,73.4,kg,73.4,73.4,kg,,,,,1.0,SCREENING,SCREENING,2024-01-04,-39,,,,,,MILESTONE 1
BI-1245.110,VS,BI-1245.110-POL_SITE01-0004,9,BMI,BMI,,,24.6,24.6,kg/m2,,Y,Y,Y,2.0,BASELINE,TREATMENT,2024-02-12,1,,,,,,MILESTONE 1
BI-1245.110,VS,BI-1245.110-POL_SITE01-0004,10,DIABP,Diastolic Blood Pressure,82.3,mmHg,82.3,82.3,mmHg,,Y,Y,,2.0,BASELINE,TREATMENT,2024-02-12T07:45,1,PRE-DOSE,1,-PT15M,DOSE ADMINISTRATION,2024-02-12T08:00,MILESTONE 1
BI-1245.110,VS,BI-1245.110-POL_SITE01-0004,11,DIABP,Diastolic Blood Pressure,83.4,mmHg,83.4,83.4,mmHg,,,,,2.0,BASELINE,TREATMENT,2024-02-12T09:00,1,1H POST-DOSE,2,PT1H,DOSE ADMINISTRATION,2024-02-12T08:00,MILESTONE 1
BI-1245.110,VS,BI-1245.110-POL_SITE01-0004,12,HEIGHT,Height,170.5,cm,170.5,170.5,cm,,Y,Y,,2.0,BASELINE,TREATMENT,2024-02-12,1,,,,,,MILESTONE 1
BI-1245.110,VS,BI-1245.110-POL_SITE01-0004,13,PULSE,Pulse Rate,67.8,beats/min,67.8,67.8,beats/min,,Y,Y,,2.0,BASELINE,TREATMENT,2024-02-12T07:45,1,PRE-DOSE,1,-PT15M,DOSE ADMINISTRATION,2024-02-12T08:00,MILESTONE 1
BI-1245.110,VS,BI-1245.110-POL_SITE01-0004,14,PULSE,Pulse Rate,66.3,beats/min,66.3,66.3,beats/min,,,,,2.0,BASELINE,TREATMENT,2024-02-12T09:00,1,1H POST-DOSE,2,PT1H,DOSE ADMINISTRATION,2024-02-12T08:00,MILESTONE 1
BI-1245.110,VS,BI-1245.110-POL_SITE01-0004,15,RESP,Respiratory Rate,13.8,breaths/min,13.8,13.8,breaths/min,,Y,Y,,2.0,BASELINE,TREATMENT,2024-02-12T07:45,1,PRE-DOSE,1,-PT15M,DOSE ADMINISTRATION,2024-02-12T08:00,MILESTONE 1
BI-1245.110,VS,BI-1245.110-POL_SITE01-0004,16,RESP,Respiratory Rate,14.2,breaths/min,14.2,14.2,breaths/min,,,,,2.0,BASELINE,TREATMENT,2024-02-12T09:00,1,1H POST-DOSE,2,PT1H,DOSE ADMINISTRATION,2024-02-12T08:00,MILESTONE 1
BI-1245.110,VS,BI-1245.110-POL_SITE01-0004,17,SYSBP,Systolic Blood Pressure,138.4,mmHg,138.4,138.4,mmHg,,Y,Y,,2.0,BASELINE,TREATMENT,2024-02-12T07:45,1,PRE-DOSE,1,-PT15M,DOSE ADMINISTRATION,2024-02-12T08:00,MILESTONE 1
BI-1245.110,VS,BI-1245.110-POL_SITE01-0004,18,SYSBP,Systolic Blood Pressure,138.8,mmHg,138.8,138.8,mmHg,,,,,2.0,BASELINE,TREATMENT,2024-02-12T09:00,1,1H POST-DOSE,2,PT1H,DOSE ADMINISTRATION,2024-02-12T08:00,MILESTONE 1
BI-1245.110,VS,BI-1245.110-POL_SITE01-0004,19,TEMP,Temperature,36.7,C,36.7,36.7,C,,Y,Y,,2.0,BASELINE,TREATMENT,2024-02-12T07:45,1,PRE-DOSE,1,-PT15M,DOSE ADMINISTRATION,2024-02-12T08:00,MILESTONE 1
BI-1245.110,VS,BI-1245.110-POL_SITE01-0004,20,TEMP,Temperature,37.3,C,37.3,37.3,C,,,,,2.0,BASELINE,TREATMENT,2024-02-12T09:00,1,1H POST-DOSE,2,PT1H,DOSE ADMINISTRATION,2024-02-12T08:00,MILESTONE 1
BI-1245.110,VS,BI-1245.110-POL_SITE01-0004,21,WEIGHT,Weight,71.6,kg,71.6,71.6,kg,,Y,Y,,2.0,BASELINE,TREATMENT,2024-02-12,1,,,,,,MILESTONE 1
BI-1245.110,VS,BI-1245.110-POL_SITE01-0004,22,DIABP,Diastolic Blood Pressure,59.0,mmHg,59.0,59.0,mmHg,,,,,3.0,WEEK 4,TREATMENT,2024-03-12,30,,,,,,MILESTONE 1
BI-1245.110,VS,BI-1245.110-POL_SITE01-0004,23,HEIGHT,Height,169.8,cm,169.8,169.8,cm,,,,,3.0,WEEK 4,TREATMENT,2024-03-12,30,,,,,,MILESTONE 1
BI-1245.110,VS,BI-1245.110-POL_SITE01-0004,24,PULSE,Pulse Rate,73.0,beats/min,73.0,73.0,beats/min,,,,,3.0,WEEK 4,TREATMENT,2024-03-12,30,,,,,,MILESTONE 1
BI-1245.110,VS,BI-1245.110-POL_SITE01-0004,25,RESP,Respiratory Rate,12.5,breaths/min,12.5,12.5,breaths/min,,,,,3.0,WEEK 4,TREATMENT,2024-03-12,30,,,,,,MILESTONE 1
BI-1245.110,VS,BI-1245.110-POL_SITE01-0004,26,SYSBP,Systolic Blood Pressure,96.7,mmHg,96.7,96.7,mmHg,,,,,3.0,WEEK 4,TREATMENT,2024-03-12,30,,,,,,MILESTONE 1
BI-1245.110,VS,BI-1245.110-POL_SITE01-0004,27,TEMP,Temperature,36.5,C,36.5,36.5,C,,,,,3.0,WEEK 4,TREATMENT,2024-03-12,30,,,,,,MILESTONE 1
BI-1245.110,VS,BI-1245.110-POL_SITE01-0004,28,WEIGHT,Weight,,,,,,NOT DONE,,,,3.0,WEEK 4,TREATMENT,2024-03-12,30,,,,,,MILESTONE 1
BI-1245.110,VS,BI-1245.110-POL_SITE01-0004,29,BMI,BMI,,,26.3,26.3,kg/m2,,,,Y,4.0,WEEK 12,TREATMENT,2024-05-03,82,,,,,,MILESTONE 1
BI-1245.110,VS,BI-1245.110-POL_SITE01-0004,30,DIABP,Diastolic Blood Pressure,82.0,mmHg,82.0,82.0,mmHg,,,,,4.0,WEEK 12,TREATMENT,2024-05-03,82,,,,,,MILESTONE 1
BI-1245.110,VS,BI-1245.110-POL_SITE01-0004,31,HEIGHT,Height,170.1,cm,170.1,170.1,cm,,,,,4.0,WEEK 12,TREATMENT,2024-05-03,82,,,,,,MILESTONE 1
BI-1245.110,VS,BI-1245.110-POL_SITE01-0004,32,PULSE,Pulse Rate,108.0,beats/min,108.0,108.0,beats/min,,,,,4.0,WEEK 12,TREATMENT,2024-05-03,82,,,,,,MILESTONE 1
BI-1245.110,VS,BI-1245.110-POL_SITE01-0004,33,RESP,Respiratory Rate,12.1,breaths/min,12.1,12.1,breaths/min,,,,,4.0,WEEK 12,TREATMENT,2024-05-03,82,,,,,,MILESTONE 1
BI-1245.110,VS,BI-1245.110-POL_SITE01-0004,34,SYSBP,Systolic Blood Pressure,111.6,mmHg,111.6,111.6,mmHg,,,,,4.0,WEEK 12,TREATMENT,2024-05-03,82,,,,,,MILESTONE 1
BI-1245.110,VS,BI-1245.110-POL_SITE01-0004,35,TEMP,Temperature,36.7,C,36.7,36.7,C,,,,,4.0,WEEK 12,TREATMENT,2024-05-03,82,,,,,,MILESTONE 1
BI-1245.110,VS,BI-1245.110-POL_SITE01-0004,36,WEIGHT,Weight,76.1,kg,76.1,76.1,kg,,,,,4.0,WEEK 12,TREATMENT,2024-05-03,82,,,,,,MILESTONE 1
BI-1245.110,VS,BI-1245.110-POL_SITE01-0004,37,BMI,BMI,,,25.8,25.8,kg/m2,,,,Y,5.0,MONTH 6,TREATMENT,2024-08-02,173,,,,,,MILESTONE 1
BI-1245.110,VS,BI-1245.110-POL_SITE01-0004,38,DIABP,Diastolic Blood Pressure,84.0,mmHg,84.0,84.0,mmHg,,,,,5.0,MONTH 6,TREATMENT,2024-08-02,173,,,,,,MILESTONE 1
BI-1245.110,VS,BI-1245.110-POL_SITE01-0004,39,HEIGHT,Height,170.2,cm,170.2,170.2,cm,,,,,5.0,MONTH 6,TREATMENT,2024-08-02,173,,,,,,MILESTONE 1
BI-1245.110,VS,BI-1245.110-POL_SITE01-0004,40,PULSE,Pulse Rate,72.6,beats/min,72.6,72.6,beats/min,,,,,5.0,MONTH 6,TREATMENT,2024-08-02,173,,,,,,MILESTONE 1
BI-1245.110,VS,BI-1245.110-POL_SITE01-0004,41,RESP,Respiratory Rate,12.0,breaths/min,12.0,12.0,breaths/min,,,,,5.0,MONTH 6,TREATMENT,2024-08-02,173,,,,,,MILESTONE 1
BI-1245.110,VS,BI-1245.110-POL_SITE01-0004,42,SYSBP,Systolic Blood Pressure,135.9,mmHg,135.9,135.9,mmHg,,,,,5.0,MONTH 6,TREATMENT,2024-08-02,173,,,,,,MILESTONE 1
BI-1245.110,VS,BI-1245.110-POL_SITE01-0004,43,TEMP,Temperature,37.0,C,37.0,37.0,C,,,,,5.0,MONTH 6,TREATMENT,2024-08-02,173,,,,,,MILESTONE 1
BI-1245.110,VS,BI-1245.110-POL_SITE01-0004,44,WEIGHT,Weight,74.7,kg,74.7,74.7,kg,,,,,5.0,MONTH 6,TREATMENT,2024-08-02,173,,,,,,MILESTONE 1
BI-1245.110,VS,BI-1245.110-POL_SITE01-0004,45,BMI,BMI,,,25.3,25.3,kg/m2,,,,Y,6.0,MONTH 12,TREATMENT,2025-01-31,355,,,,,,MILESTONE 1
BI-1245.110,VS,BI-1245.110-POL_SITE01-0004,46,DIABP,Diastolic Blood Pressure,85.6,mmHg,85.6,85.6,mmHg,,,,,6.0,MONTH 12,TREATMENT,2025-01-31,355,,,,,,MILESTONE 1
BI-1245.110,VS,BI-1245.110-POL_SITE01-0004,47,HEIGHT,Height,169.3,cm,169.3,169.3,cm,,,,,6.0,MONTH 12,TREATMENT,2025-01-31,355,,,,,,MILESTONE 1
BI-1245.110,VS,BI-1245.110-POL_SITE01-0004,48,PULSE,Pulse Rate,67.0,beats/min,67.0,67.0,beats/min,,,,,6.0,MONTH 12,TREATMENT,2025-01-31,355,,,,,,MILESTONE 1
BI-1245.110,VS,BI-1245.110-POL_SITE01-0004,49,RESP,Respiratory Rate,11.5,breaths/min,11.5,11.5,breaths/min,,,,,6.0,MONTH 12,TREATMENT,2025-01-31,355,,,,,,MILESTONE 1
BI-1245.110,VS,BI-1245.110-POL_SITE01-0004,50,SYSBP,Systolic Blood Pressure,137.0,mmHg,137.0,137.0,mmHg,,,,,6.0,MONTH 12,TREATMENT,2025-01-31,355,,,,,,MILESTONE 1
BI-1245.110,VS,BI-1245.110-POL_SITE01-0004,51,TEMP,Temperature,36.9,C,36.9,36.9,C,,,,,6.0,MONTH 12,TREATMENT,2025-01-31,355,,,,,,MILESTONE 1
BI-1245.110,VS,BI-1245.110-POL_SITE01-0004,52,WEIGHT,Weight,72.5,kg,72.5,72.5,kg,,,,,6.0,MONTH 12,TREATMENT,2025-01-31,355,,,,,,MILESTONE 1
BI-1245.110,VS,BI-1245.110-POL_SITE01-0004,53,BMI,BMI,,,25.3,25.3,kg/m2,,,,Y,9.0,EOT,TREATMENT,2026-04-19,798,,,,,,MILESTONE 1
BI-1245.110,VS,BI-1245.110-POL_SITE01-0004,54,DIABP,Diastolic Blood Pressure,69.0,mmHg,69.0,69.0,mmHg,,,,,9.0,EOT,TREATMENT,2026-04-19,798,,,,,,MILESTONE 1
BI-1245.110,VS,BI-1245.110-POL_SITE01-0004,55,HEIGHT,Height,169.9,cm,169.9,169.9,cm,,,,,9.0,EOT,TREATMENT,2026-04-19,798,,,,,,MILESTONE 1
BI-1245.110,VS,BI-1245.110-POL_SITE01-0004,56,PULSE,Pulse Rate,61.9,beats/min,61.9,61.9,beats/min,,,,,9.0,EOT,TREATMENT,2026-04-19,798,,,,,,MILESTONE 1
BI-1245.110,VS,BI-1245.110-POL_SITE01-0004,57,RESP,Respiratory Rate,12.7,breaths/min,12.7,12.7,breaths/min,,,,,9.0,EOT,TREATMENT,2026-04-19,798,,,,,,MILESTONE 1
BI-1245.110,VS,BI-1245.110-POL_SITE01-0004,58,SYSBP,Systolic Blood Pressure,108.1,mmHg,108.1,108.1,mmHg,,,,,9.0,EOT,TREATMENT,2026-04-19,798,,,,,,MILESTONE 1
BI-1245.110,VS,BI-1245.110-POL_SITE01-0004,59,TEMP,Temperature,36.7,C,36.7,36.7,C,,,,,9.0,EOT,TREATMENT,2026-04-19,798,,,,,,MILESTONE 1
BI-1245.110,VS,BI-1245.110-POL_SITE01-0004,60,WEIGHT,Weight,73.0,kg,73.0,73.0,kg,,,,,9.0,EOT,TREATMENT,2026-04-19,798,,,,,,MILESTONE 1
BI-1245.110,VS,BI-1245.110-POL_SITE01-0006,1,BMI,BMI,,,17.0,17.0,kg/m2,,,,Y,1.0,SCREENING,SCREENING,2024-03-07,-36,,,,,,MILESTONE 1
BI-1245.110,VS,BI-1245.110-POL_SITE01-0006,2,DIABP,Diastolic Blood Pressure,94.4,mmHg,94.4,94.4,mmHg,,,,,1.0,SCREENING,SCREENING,2024-03-07,-36,,,,,,MILESTONE 1
BI-1245.110,VS,BI-1245.110-POL_SITE01-0006,3,HEIGHT,Height,187.5,cm,187.5,187.5,cm,,,,,1.0,SCREENING,SCREENING,2024-03-07,-36,,,,,,MILESTONE 1
BI-1245.110,VS,BI-1245.110-POL_SITE01-0006,4,PULSE,Pulse Rate,81.0,beats/min,81.0,81.0,beats/min,,,,,1.0,SCREENING,SCREENING,2024-03-07,-36,,,,,,MILESTONE 1
BI-1245.110,VS,BI-1245.110-POL_SITE01-0006,5,RESP,Respiratory Rate,17.5,breaths/min,17.5,17.5,breaths/min,,,,,1.0,SCREENING,SCREENING,2024-03-07,-36,,,,,,MILESTONE 1
BI-1245.110,VS,BI-1245.110-POL_SITE01-0006,6,SYSBP,Systolic Blood Pressure,135.1,mmHg,135.1,135.1,mmHg,,,,,1.0,SCREENING,SCREENING,2024-03-07,-36,,,,,,MILESTONE 1
BI-1245.110,VS,BI-1245.110-POL_SITE01-0006,7,TEMP,Temperature,37.1,C,37.1,37.1,C,,,,,1.0,SCREENING,SCREENING,2024-03-07,-36,,,,,,MILESTONE 1
BI-1245.110,VS,BI-1245.110-POL_SITE01-0006,8,WEIGHT,Weight,59.9,kg,59.9,59.9,kg,,,,,1.0,SCREENING,SCREENING,2024-03-07,-36,,,,,,MILESTONE 1
BI-1245.110,VS,BI-1245.110-POL_SITE01-0006,9,BMI,BMI,,,17.6,17.6,kg/m2,,Y,Y,Y,2.0,BASELINE,TREATMENT,2024-04-12,1,,,,,,MILESTONE 1
BI-1245.110,VS,BI-1245.110-POL_SITE01-0006,10,DIABP,Diastolic Blood Pressure,94.8,mmHg,94.8,94.8,mmHg,,Y,Y,,2.0,BASELINE,TREATMENT,2024-04-12T07:45,1,PRE-DOSE,1,-PT15M,DOSE ADMINISTRATION,2024-04-12T08:00,MILESTONE 1
BI-1245.110,VS,BI-1245.110-POL_SITE01-0006,11,DIABP,Diastolic Blood Pressure,94.3,mmHg,94.3,94.3,mmHg,,,,,2.0,BASELINE,TREATMENT,2024-04-12T09:00,1,1H POST-DOSE,2,PT1H,DOSE ADMINISTRATION,2024-04-12T08:00,MILESTONE 1
BI-1245.110,VS,BI-1245.110-POL_SITE01-0006,12,HEIGHT,Height,186.8,cm,186.8,186.8,cm,,Y,Y,,2.0,BASELINE,TREATMENT,2024-04-12,1,,,,,,MILESTONE 1
BI-1245.110,VS,BI-1245.110-POL_SITE01-0006,13,PULSE,Pulse Rate,79.1,beats/min,79.1,79.1,beats/min,,Y,Y,,2.0,BASELINE,TREATMENT,2024-04-12T07:45,1,PRE-DOSE,1,-PT15M,DOSE ADMINISTRATION,2024-04-12T08:00,MILESTONE 1
BI-1245.110,VS,BI-1245.110-POL_SITE01-0006,14,PULSE,Pulse Rate,79.1,beats/min,79.1,79.1,beats/min,,,,,2.0,BASELINE,TREATMENT,2024-04-12T09:00,1,1H POST-DOSE,2,PT1H,DOSE ADMINISTRATION,2024-04-12T08:00,MILESTONE 1
BI-1245.110,VS,BI-1245.110-POL_SITE01-0006,15,RESP,Respiratory Rate,19.1,breaths/min,19.1,19.1,breaths/min,,Y,Y,,2.0,BASELINE,TREATMENT,2024-04-12T07:45,1,PRE-DOSE,1,-PT15M,DOSE ADMINISTRATION,2024-04-12T08:00,MILESTONE 1
BI-1245.110,VS,BI-1245.110-POL_SITE01-0006,16,RESP,Respiratory Rate,19.4,breaths/min,19.4,19.4,breaths/min,,,,,2.0,BASELINE,TREATMENT,2024-04-12T09:00,1,1H POST-DOSE,2,PT1H,DOSE ADMINISTRATION,2024-04-12T08:00,MILESTONE 1
BI-1245.110,VS,BI-1245.110-POL_SITE01-0006,17,SYSBP,Systolic Blood Pressure,136.2,mmHg,136.2,136.2,mmHg,,Y,Y,,2.0,BASELINE,TREATMENT,2024-04-12T07:45,1,PRE-DOSE,1,-PT15M,DOSE ADMINISTRATION,2024-04-12T08:00,MILESTONE 1
BI-1245.110,VS,BI-1245.110-POL_SITE01-0006,18,SYSBP,Systolic Blood Pressure,132.9,mmHg,132.9,132.9,mmHg,,,,,2.0,BASELINE,TREATMENT,2024-04-12T09:00,1,1H POST-DOSE,2,PT1H,DOSE ADMINISTRATION,2024-04-12T08:00,MILESTONE 1
BI-1245.110,VS,BI-1245.110-POL_SITE01-0006,19,TEMP,Temperature,37.1,C,37.1,37.1,C,,Y,Y,,2.0,BASELINE,TREATMENT,2024-04-12T07:45,1,PRE-DOSE,1,-PT15M,DOSE ADMINISTRATION,2024-04-12T08:00,MILESTONE 1
BI-1245.110,VS,BI-1245.110-POL_SITE01-0006,20,TEMP,Temperature,36.2,C,36.2,36.2,C,,,,,2.0,BASELINE,TREATMENT,2024-04-12T09:00,1,1H POST-DOSE,2,PT1H,DOSE ADMINISTRATION,2024-04-12T08:00,MILESTONE 1
BI-1245.110,VS,BI-1245.110-POL_SITE01-0006,21,WEIGHT,Weight,61.5,kg,61.5,61.5,kg,,Y,Y,,2.0,BASELINE,TREATMENT,2024-04-12,1,,,,,,MILESTONE 1
BI-1245.110,VS,BI-1245.110-POL_SITE01-0006,22,BMI,BMI,,,17.0,17.0,kg/m2,,,,Y,4.0,WEEK 12,TREATMENT,2024-06-28,78,,,,,,MILESTONE 1
BI-1245.110,VS,BI-1245.110-POL_SITE01-0006,23,DIABP,Diastolic Blood Pressure,92.8,mmHg,92.8,92.8,mmHg,,,,,4.0,WEEK 12,TREATMENT,2024-06-28,78,,,,,,MILESTONE 1
BI-1245.110,VS,BI-1245.110-POL_SITE01-0006,24,HEIGHT,Height,187.8,cm,187.8,187.8,cm,,,,,4.0,WEEK 12,TREATMENT,2024-06-28,78,,,,,,MILESTONE 1
BI-1245.110,VS,BI-1245.110-POL_SITE01-0006,25,PULSE,Pulse Rate,74.4,beats/min,74.4,74.4,beats/min,,,,,4.0,WEEK 12,TREATMENT,2024-06-28,78,,,,,,MILESTONE 1
BI-1245.110,VS,BI-1245.110-POL_SITE01-0006,26,RESP,Respiratory Rate,18.7,breaths/min,18.7,18.7,breaths/min,,,,,4.0,WEEK 12,TREATMENT,2024-06-28,78,,,,,,MILESTONE 1
BI-1245.110,VS,BI-1245.110-POL_SITE01-0006,27,SYSBP,Systolic Blood Pressure,133.2,mmHg,133.2,133.2,mmHg,,,,,4.0,WEEK 12,TREATMENT,2024-06-28,78,,,,,,MILESTONE 1
BI-1245.110,VS,BI-1245.110-POL_SITE01-0006,28,TEMP,Temperature,37.2,C,37.2,37.2,C,,,,,4.0,WEEK 12,TREATMENT,2024-06-28,78,,,,,,MILESTONE 1
BI-1245.110,VS,BI-1245.110-POL_SITE01-0006,29,WEIGHT,Weight,59.8,kg,59.8,59.8,kg,,,,,4.0,WEEK 12,TREATMENT,2024-06-28,78,,,,,,MILESTONE 1
BI-1245.110,VS,BI-1245.110-POL_SITE01-0006,30,BMI,BMI,,,16.7,16.7,kg/m2,,,,Y,5.0,MONTH 6,TREATMENT,2024-10-14,186,,,,,,MILESTONE 1
BI-1245.110,VS,BI-1245.110-POL_SITE01-0006,31,DIABP,Diastolic Blood Pressure,93.3,mmHg,93.3,93.3,mmHg,,,,,5.0,MONTH 6,TREATMENT,2024-10-14,186,,,,,,MILESTONE 1
BI-1245.110,VS,BI-1245.110-POL_SITE01-0006,32,HEIGHT,Height,188.4,cm,188.4,188.4,cm,,,,,5.0,MONTH 6,TREATMENT,2024-10-14,186,,,,,,MILESTONE 1
BI-1245.110,VS,BI-1245.110-POL_SITE01-0006,33,PULSE,Pulse Rate,77.6,beats/min,77.6,77.6,beats/min,,,,,5.0,MONTH 6,TREATMENT,2024-10-14,186,,,,,,MILESTONE 1
BI-1245.110,VS,BI-1245.110-POL_SITE01-0006,34,RESP,Respiratory Rate,17.9,breaths/min,17.9,17.9,breaths/min,,,,,5.0,MONTH 6,TREATMENT,2024-10-14,186,,,,,,MILESTONE 1
BI-1245.110,VS,BI-1245.110-POL_SITE01-0006,35,SYSBP,Systolic Blood Pressure,133.1,mmHg,133.1,133.1,mmHg,,,,,5.0,MONTH 6,TREATMENT,2024-10-14,186,,,,,,MILESTONE 1
BI-1245.110,VS,BI-1245.110-POL_SITE01-0006,36,TEMP,Temperature,37.1,C,37.1,37.1,C,,,,,5.0,MONTH 6,TREATMENT,2024-10-14,186,,,,,,MILESTONE 1
BI-1245.110,VS,BI-1245.110-POL_SITE01-0006,37,WEIGHT,Weight,59.4,kg,59.4,59.4,kg,,,,,5.0,MONTH 6,TREATMENT,2024-10-14,186,,,,,,MILESTONE 1
BI-1245.110,VS,BI-1245.110-POL_SITE01-0006,38,BMI,BMI,,,17.6,17.6,kg/m2,,,,Y,7.0,MONTH 18,TREATMENT,2025-10-07,544,,,,,,MILESTONE 1
BI-1245.110,VS,BI-1245.110-POL_SITE01-0006,39,DIABP,Diastolic Blood Pressure,94.1,mmHg,94.1,94.1,mmHg,,,,,7.0,MONTH 18,TREATMENT,2025-10-07,544,,,,,,MILESTONE 1
BI-1245.110,VS,BI-1245.110-POL_SITE01-0006,40,HEIGHT,Height,188.4,cm,188.4,188.4,cm,,,,,7.0,MONTH 18,TREATMENT,2025-10-07,544,,,,,,MILESTONE 1
BI-1245.110,VS,BI-1245.110-POL_SITE01-0006,41,PULSE,Pulse Rate,92.9,beats/min,92.9,92.9,beats/min,,,,,7.0,MONTH 18,TREATMENT,2025-10-07,544,,,,,,MILESTONE 1
BI-1245.110,VS,BI-1245.110-POL_SITE01-0006,42,RESP,Respiratory Rate,16.5,breaths/min,16.5,16.5,breaths/min,,,,,7.0,MONTH 18,TREATMENT,2025-10-07,544,,,,,,MILESTONE 1
BI-1245.110,VS,BI-1245.110-POL_SITE01-0006,43,SYSBP,Systolic Blood Pressure,,,,,,NOT DONE,,,,7.0,MONTH 18,TREATMENT,2025-10-07,544,,,,,,MILESTONE 1
BI-1245.110,VS,BI-1245.110-POL_SITE01-0006,44,TEMP,Temperature,37.0,C,37.0,37.0,C,,,,,7.0,MONTH 18,TREATMENT,2025-10-07,544,,,,,,MILESTONE 1
BI-1245.110,VS,BI-1245.110-POL_SITE01-0006,45,WEIGHT,Weight,62.5,kg,62.5,62.5,kg,,,,,7.0,MONTH 18,TREATMENT,2025-10-07,544,,,,,,MILESTONE 1
BI-1245.110,VS,BI-1245.110-POL_SITE01-0006,46,BMI,BMI,,,17.7,17.7,kg/m2,,,,Y,8.0,MONTH 24,TREATMENT,2026-04-05,724,,,,,,MILESTONE 1
BI-1245.110,VS,BI-1245.110-POL_SITE01-0006,47,DIABP,Diastolic Blood Pressure,93.1,mmHg,93.1,93.1,mmHg,,,,,8.0,MONTH 24,TREATMENT,2026-04-05,724,,,,,,MILESTONE 1
BI-1245.110,VS,BI-1245.110-POL_SITE01-0006,48,HEIGHT,Height,188.9,cm,188.9,188.9,cm,,,,,8.0,MONTH 24,TREATMENT,2026-04-05,724,,,,,,MILESTONE 1
BI-1245.110,VS,BI-1245.110-POL_SITE01-0006,49,PULSE,Pulse Rate,83.2,beats/min,83.2,83.2,beats/min,,,,,8.0,MONTH 24,TREATMENT,2026-04-05,724,,,,,,MILESTONE 1
BI-1245.110,VS,BI-1245.110-POL_SITE01-0006,50,RESP,Respiratory Rate,18.8,breaths/min,18.8,18.8,breaths/min,,,,,8.0,MONTH 24,TREATMENT,2026-04-05,724,,,,,,MILESTONE 1
BI-1245.110,VS,BI-1245.110-POL_SITE01-0006,51,SYSBP,Systolic Blood Pressure,131.3,mmHg,131.3,131.3,mmHg,,,,,8.0,MONTH 24,TREATMENT,2026-04-05,724,,,,,,MILESTONE 1
BI-1245.110,VS,BI-1245.110-POL_SITE01-0006,52,TEMP,Temperature,37.3,C,37.3,37.3,C,,,,,8.0,MONTH 24,TREATMENT,2026-04-05,724,,,,,,MILESTONE 1
BI-1245.110,VS,BI-1245.110-POL_SITE01-0006,53,WEIGHT,Weight,63.1,kg,63.1,63.1,kg,,,,,8.0,MONTH 24,TREATMENT,2026-04-05,724,,,,,,MILESTONE 1
BI-1245.110,VS,BI-1245.110-POL_SITE01-0006,54,BMI,BMI,,,18.4,18.4,kg/m2,,,,Y,9.0,EOT,TREATMENT,2026-07-09,819,,,,,,MILESTONE 1
BI-1245.110,VS,BI-1245.110-POL_SITE01-0006,55,DIABP,Diastolic Blood Pressure,94.7,mmHg,94.7,94.7,mmHg,,,,,9.0,EOT,TREATMENT,2026-07-09,819,,,,,,MILESTONE 1
BI-1245.110,VS,BI-1245.110-POL_SITE01-0006,56,HEIGHT,Height,189.1,cm,189.1,189.1,cm,,,,,9.0,EOT,TREATMENT,2026-07-09,819,,,,,,MILESTONE 1
BI-1245.110,VS,BI-1245.110-POL_SITE01-0006,57,PULSE,Pulse Rate,89.0,beats/min,89.0,89.0,beats/min,,,,,9.0,EOT,TREATMENT,2026-07-09,819,,,,,,MILESTONE 1
BI-1245.110,VS,BI-1245.110-POL_SITE01-0006,58,RESP,Respiratory Rate,19.1,breaths/min,19.1,19.1,breaths/min,,,,,9.0,EOT,TREATMENT,2026-07-09,819,,,,,,MILESTONE 1
BI-1245.110,VS,BI-1245.110-POL_SITE01-0006,59,SYSBP,Systolic Blood Pressure,130.5,mmHg,130.5,130.5,mmHg,,,,,9.0,EOT,TREATMENT,2026-07-09,819,,,,,,MILESTONE 1
BI-1245.110,VS,BI-1245.110-POL_SITE01-0006,60,TEMP,Temperature,37.2,C,37.2,37.2,C,,,,,9.0,EOT,TREATMENT,2026-07-09,819,,,,,,MILESTONE 1
BI-1245.110,VS,BI-1245.110-POL_SITE01-0006,61,WEIGHT,Weight,65.8,kg,65.8,65.8,kg,,,,,9.0,EOT,TREATMENT,2026-07-09,819,,,,,,MILESTONE 1
BI-1245.110,VS,BI-1245.110-POL_SITE01-0006,62,BMI,BMI,,,19.1,19.1,kg/m2,,,,Y,10.0,SAFETY FU,FOLLOW-UP,2026-07-21,831,,,,,,MILESTONE 1
BI-1245.110,VS,BI-1245.110-POL_SITE01-0006,63,DIABP,Diastolic Blood Pressure,96.0,mmHg,96.0,96.0,mmHg,,,,,10.0,SAFETY FU,FOLLOW-UP,2026-07-21,831,,,,,,MILESTONE 1
BI-1245.110,VS,BI-1245.110-POL_SITE01-0006,64,HEIGHT,Height,188.4,cm,188.4,188.4,cm,,,,,10.0,SAFETY FU,FOLLOW-UP,2026-07-21,831,,,,,,MILESTONE 1
BI-1245.110,VS,BI-1245.110-POL_SITE01-0006,65,PULSE,Pulse Rate,,,,,,NOT DONE,,,,10.0,SAFETY FU,FOLLOW-UP,2026-07-21,831,,,,,,MILESTONE 1
BI-1245.110,VS,BI-1245.110-POL_SITE01-0006,66,RESP,Respiratory Rate,17.7,breaths/min,17.7,17.7,breaths/min,,,,,10.0,SAFETY FU,FOLLOW-UP,2026-07-21,831,,,,,,MILESTONE 1
BI-1245.110,VS,BI-1245.110-POL_SITE01-0006,67,SYSBP,Systolic Blood Pressure,133.9,mmHg,133.9,133.9,mmHg,,,,,10.0,SAFETY FU,FOLLOW-UP,2026-07-21,831,,,,,,MILESTONE 1
BI-1245.110,VS,BI-1245.110-POL_SITE01-0006,68,TEMP,Temperature,36.9,C,36.9,36.9,C,,,,,10.0,SAFETY FU,FOLLOW-UP,2026-07-21,831,,,,,,MILESTONE 1
BI-1245.110,VS,BI-1245.110-POL_SITE01-0006,69,WEIGHT,Weight,67.8,kg,67.8,67.8,kg,,,,,10.0,SAFETY FU,FOLLOW-UP,2026-07-21,831,,,,,,MILESTONE 1
BI-1245.110,VS,BI-1245.110-RUS_SITE01-0011,1,BMI,BMI,,,25.1,25.1,kg/m2,,,,Y,1.0,SCREENING,SCREENING,2024-02-27,-48,,,,,,MILESTONE 1
BI-1245.110,VS,BI-1245.110-RUS_SITE01-0011,2,DIABP,Diastolic Blood Pressure,86.5,mmHg,86.5,86.5,mmHg,,,,,1.0,SCREENING,SCREENING,2024-02-27,-48,,,,,,MILESTONE 1
BI-1245.110,VS,BI-1245.110-RUS_SITE01-0011,3,HEIGHT,Height,158.5,cm,158.5,158.5,cm,,,,,1.0,SCREENING,SCREENING,2024-02-27,-48,,,,,,MILESTONE 1
BI-1245.110,VS,BI-1245.110-RUS_SITE01-0011,4,PULSE,Pulse Rate,52.0,beats/min,52.0,52.0,beats/min,,,,,1.0,SCREENING,SCREENING,2024-02-27,-48,,,,,,MILESTONE 1
BI-1245.110,VS,BI-1245.110-RUS_SITE01-0011,5,RESP,Respiratory Rate,20.6,breaths/min,20.6,20.6,breaths/min,,,,,1.0,SCREENING,SCREENING,2024-02-27,-48,,,,,,MILESTONE 1
BI-1245.110,VS,BI-1245.110-RUS_SITE01-0011,6,SYSBP,Systolic Blood Pressure,163.0,mmHg,163.0,163.0,mmHg,,,,,1.0,SCREENING,SCREENING,2024-02-27,-48,,,,,,MILESTONE 1
BI-1245.110,VS,BI-1245.110-RUS_SITE01-0011,7,TEMP,Temperature,36.8,C,36.8,36.8,C,,,,,1.0,SCREENING,SCREENING,2024-02-27,-48,,,,,,MILESTONE 1
BI-1245.110,VS,BI-1245.110-RUS_SITE01-0011,8,WEIGHT,Weight,63.0,kg,63.0,63.0,kg,,,,,1.0,SCREENING,SCREENING,2024-02-27,-48,,,,,,MILESTONE 1
BI-1245.110,VS,BI-1245.110-RUS_SITE01-0011,9,BMI,BMI,,,24.9,24.9,kg/m2,,Y,Y,Y,2.0,BASELINE,TREATMENT,2024-04-15,1,,,,,,MILESTONE 1
BI-1245.110,VS,BI-1245.110-RUS_SITE01-0011,10,DIABP,Diastolic Blood Pressure,87.7,mmHg,87.7,87.7,mmHg,,Y,Y,,2.0,BASELINE,TREATMENT,2024-04-15T07:45,1,PRE-DOSE,1,-PT15M,DOSE ADMINISTRATION,2024-04-15T08:00,MILESTONE 1
BI-1245.110,VS,BI-1245.110-RUS_SITE01-0011,11,DIABP,Diastolic Blood Pressure,88.1,mmHg,88.1,88.1,mmHg,,,,,2.0,BASELINE,TREATMENT,2024-04-15T09:00,1,1H POST-DOSE,2,PT1H,DOSE ADMINISTRATION,2024-04-15T08:00,MILESTONE 1
BI-1245.110,VS,BI-1245.110-RUS_SITE01-0011,12,HEIGHT,Height,158.8,cm,158.8,158.8,cm,,Y,Y,,2.0,BASELINE,TREATMENT,2024-04-15,1,,,,,,MILESTONE 1
BI-1245.110,VS,BI-1245.110-RUS_SITE01-0011,13,PULSE,Pulse Rate,49.9,beats/min,49.9,49.9,beats/min,,Y,Y,,2.0,BASELINE,TREATMENT,2024-04-15T07:45,1,PRE-DOSE,1,-PT15M,DOSE ADMINISTRATION,2024-04-15T08:00,MILESTONE 1
BI-1245.110,VS,BI-1245.110-RUS_SITE01-0011,14,PULSE,Pulse Rate,50.4,beats/min,50.4,50.4,beats/min,,,,,2.0,BASELINE,TREATMENT,2024-04-15T09:00,1,1H POST-DOSE,2,PT1H,DOSE ADMINISTRATION,2024-04-15T08:00,MILESTONE 1
BI-1245.110,VS,BI-1245.110-RUS_SITE01-0011,15,RESP,Respiratory Rate,20.7,breaths/min,20.7,20.7,breaths/min,,Y,Y,,2.0,BASELINE,TREATMENT,2024-04-15T07:45,1,PRE-DOSE,1,-PT15M,DOSE ADMINISTRATION,2024-04-15T08:00,MILESTONE 1
BI-1245.110,VS,BI-1245.110-RUS_SITE01-0011,16,RESP,Respiratory Rate,20.2,breaths/min,20.2,20.2,breaths/min,,,,,2.0,BASELINE,TREATMENT,2024-04-15T09:00,1,1H POST-DOSE,2,PT1H,DOSE ADMINISTRATION,2024-04-15T08:00,MILESTONE 1
BI-1245.110,VS,BI-1245.110-RUS_SITE01-0011,17,SYSBP,Systolic Blood Pressure,165.9,mmHg,165.9,165.9,mmHg,,Y,Y,,2.0,BASELINE,TREATMENT,2024-04-15T07:45,1,PRE-DOSE,1,-PT15M,DOSE ADMINISTRATION,2024-04-15T08:00,MILESTONE 1
BI-1245.110,VS,BI-1245.110-RUS_SITE01-0011,18,SYSBP,Systolic Blood Pressure,158.7,mmHg,158.7,158.7,mmHg,,,,,2.0,BASELINE,TREATMENT,2024-04-15T09:00,1,1H POST-DOSE,2,PT1H,DOSE ADMINISTRATION,2024-04-15T08:00,MILESTONE 1
BI-1245.110,VS,BI-1245.110-RUS_SITE01-0011,19,TEMP,Temperature,36.9,C,36.9,36.9,C,,Y,Y,,2.0,BASELINE,TREATMENT,2024-04-15T07:45,1,PRE-DOSE,1,-PT15M,DOSE ADMINISTRATION,2024-04-15T08:00,MILESTONE 1
BI-1245.110,VS,BI-1245.110-RUS_SITE01-0011,20,TEMP,Temperature,37.6,C,37.6,37.6,C,,,,,2.0,BASELINE,TREATMENT,2024-04-15T09:00,1,1H POST-DOSE,2,PT1H,DOSE ADMINISTRATION,2024-04-15T08:00,MILESTONE 1
BI-1245.110,VS,BI-1245.110-RUS_SITE01-0011,21,WEIGHT,Weight,62.9,kg,62.9,62.9,kg,,Y,Y,,2.0,BASELINE,TREATMENT,2024-04-15,1,,,,,,MILESTONE 1
BI-1245.110,VS,BI-1245.110-RUS_SITE01-0011,22,BMI,BMI,,,26.0,26.0,kg/m2,,,,Y,3.0,WEEK 4,TREATMENT,2024-05-18,34,,,,,,MILESTONE 1
BI-1245.110,VS,BI-1245.110-RUS_SITE01-0011,23,DIABP,Diastolic Blood Pressure,87.4,mmHg,87.4,87.4,mmHg,,,,,3.0,WEEK 4,TREATMENT,2024-05-18,34,,,,,,MILESTONE 1
BI-1245.110,VS,BI-1245.110-RUS_SITE01-0011,24,HEIGHT,Height,158.4,cm,158.4,158.4,cm,,,,,3.0,WEEK 4,TREATMENT,2024-05-18,34,,,,,,MILESTONE 1
BI-1245.110,VS,BI-1245.110-RUS_SITE01-0011,25,PULSE,Pulse Rate,50.6,beats/min,50.6,50.6,beats/min,,,,,3.0,WEEK 4,TREATMENT,2024-05-18,34,,,,,,MILESTONE 1
BI-1245.110,VS,BI-1245.110-RUS_SITE01-0011,26,RESP,Respiratory Rate,18.2,breaths/min,18.2,18.2,breaths/min,,,,,3.0,WEEK 4,TREATMENT,2024-05-18,34,,,,,,MILESTONE 1
BI-1245.110,VS,BI-1245.110-RUS_SITE01-0011,27,SYSBP,Systolic Blood Pressure,164.4,mmHg,164.4,164.4,mmHg,,,,,3.0,WEEK 4,TREATMENT,2024-05-18,34,,,,,,MILESTONE 1
BI-1245.110,VS,BI-1245.110-RUS_SITE01-0011,28,TEMP,Temperature,36.9,C,36.9,36.9,C,,,,,3.0,WEEK 4,TREATMENT,2024-05-18,34,,,,,,MILESTONE 1
BI-1245.110,VS,BI-1245.110-RUS_SITE01-0011,29,WEIGHT,Weight,65.3,kg,65.3,65.3,kg,,,,,3.0,WEEK 4,TREATMENT,2024-05-18,34,,,,,,MILESTONE 1
BI-1245.110,VS,BI-1245.110-RUS_SITE01-0011,30,BMI,BMI,,,25.5,25.5,kg/m2,,,,Y,4.0,WEEK 12,TREATMENT,2024-07-05,82,,,,,,MILESTONE 1
BI-1245.110,VS,BI-1245.110-RUS_SITE01-0011,31,DIABP,Diastolic Blood Pressure,87.7,mmHg,87.7,87.7,mmHg,,,,,4.0,WEEK 12,TREATMENT,2024-07-05,82,,,,,,MILESTONE 1
BI-1245.110,VS,BI-1245.110-RUS_SITE01-0011,32,HEIGHT,Height,158.3,cm,158.3,158.3,cm,,,,,4.0,WEEK 12,TREATMENT,2024-07-05,82,,,,,,MILESTONE 1
BI-1245.110,VS,BI-1245.110-RUS_SITE01-0011,33,PULSE,Pulse Rate,48.1,beats/min,48.1,48.1,beats/min,,,,,4.0,WEEK 12,TREATMENT,2024-07-05,82,,,,,,MILESTONE 1
BI-1245.110,VS,BI-1245.110-RUS_SITE01-0011,34,RESP,Respiratory Rate,18.0,breaths/min,18.0,18.0,breaths/min,,,,,4.0,WEEK 12,TREATMENT,2024-07-05,82,,,,,,MILESTONE 1
BI-1245.110,VS,BI-1245.110-RUS_SITE01-0011,35,SYSBP,Systolic Blood Pressure,161.4,mmHg,161.4,161.4,mmHg,,,,,4.0,WEEK 12,TREATMENT,2024-07-05,82,,,,,,MILESTONE 1
BI-1245.110,VS,BI-1245.110-RUS_SITE01-0011,36,TEMP,Temperature,36.8,C,36.8,36.8,C,,,,,4.0,WEEK 12,TREATMENT,2024-07-05,82,,,,,,MILESTONE 1
BI-1245.110,VS,BI-1245.110-RUS_SITE01-0011,37,WEIGHT,Weight,63.9,kg,63.9,63.9,kg,,,,,4.0,WEEK 12,TREATMENT,2024-07-05,82,,,,,,MILESTONE 1
BI-1245.110,VS,BI-1245.110-RUS_SITE01-0011,38,BMI,BMI,,,24.8,24.8,kg/m2,,,,Y,5.0,MONTH 6,TREATMENT,2024-10-04,173,,,,,,MILESTONE 1
BI-1245.110,VS,BI-1245.110-RUS_SITE01-0011,39,DIABP,Diastolic Blood Pressure,86.0,mmHg,86.0,86.0,mmHg,,,,,5.0,MONTH 6,TREATMENT,2024-10-04,173,,,,,,MILESTONE 1
BI-1245.110,VS,BI-1245.110-RUS_SITE01-0011,40,HEIGHT,Height,159.0,cm,159.0,159.0,cm,,,,,5.0,MONTH 6,TREATMENT,2024-10-04,173,,,,,,MILESTONE 1
BI-1245.110,VS,BI-1245.110-RUS_SITE01-0011,41,PULSE,Pulse Rate,56.7,beats/min,56.7,56.7,beats/min,,,,,5.0,MONTH 6,TREATMENT,2024-10-04,173,,,,,,MILESTONE 1
BI-1245.110,VS,BI-1245.110-RUS_SITE01-0011,42,RESP,Respiratory Rate,19.2,breaths/min,19.2,19.2,breaths/min,,,,,5.0,MONTH 6,TREATMENT,2024-10-04,173,,,,,,MILESTONE 1
BI-1245.110,VS,BI-1245.110-RUS_SITE01-0011,43,SYSBP,Systolic Blood Pressure,161.7,mmHg,161.7,161.7,mmHg,,,,,5.0,MONTH 6,TREATMENT,2024-10-04,173,,,,,,MILESTONE 1
BI-1245.110,VS,BI-1245.110-RUS_SITE01-0011,44,TEMP,Temperature,36.8,C,36.8,36.8,C,,,,,5.0,MONTH 6,TREATMENT,2024-10-04,173,,,,,,MILESTONE 1
BI-1245.110,VS,BI-1245.110-RUS_SITE01-0011,45,WEIGHT,Weight,62.6,kg,62.6,62.6,kg,,,,,5.0,MONTH 6,TREATMENT,2024-10-04,173,,,,,,MILESTONE 1
BI-1245.110,VS,BI-1245.110-RUS_SITE01-0011,46,BMI,BMI,,,24.4,24.4,kg/m2,,,,Y,6.0,MONTH 12,TREATMENT,2025-04-24,375,,,,,,MILESTONE 1
BI-1245.110,VS,BI-1245.110-RUS_SITE01-0011,47,DIABP,Diastolic Blood Pressure,85.4,mmHg,85.4,85.4,mmHg,,,,,6.0,MONTH 12,TREATMENT,2025-04-24,375,,,,,,MILESTONE 1
BI-1245.110,VS,BI-1245.110-RUS_SITE01-0011,48,HEIGHT,Height,159.0,cm,159.0,159.0,cm,,,,,6.0,MONTH 12,TREATMENT,2025-04-24,375,,,,,,MILESTONE 1
BI-1245.110,VS,BI-1245.110-RUS_SITE01-0011,49,PULSE,Pulse Rate,54.7,beats/min,54.7,54.7,beats/min,,,,,6.0,MONTH 12,TREATMENT,2025-04-24,375,,,,,,MILESTONE 1
BI-1245.110,VS,BI-1245.110-RUS_SITE01-0011,50,RESP,Respiratory Rate,19.3,breaths/min,19.3,19.3,breaths/min,,,,,6.0,MONTH 12,TREATMENT,2025-04-24,375,,,,,,MILESTONE 1
BI-1245.110,VS,BI-1245.110-RUS_SITE01-0011,51,SYSBP,Systolic Blood Pressure,163.9,mmHg,163.9,163.9,mmHg,,,,,6.0,MONTH 12,TREATMENT,2025-04-24,375,,,,,,MILESTONE 1
BI-1245.110,VS,BI-1245.110-RUS_SITE01-0011,52,TEMP,Temperature,36.8,C,36.8,36.8,C,,,,,6.0,MONTH 12,TREATMENT,2025-04-24,375,,,,,,MILESTONE 1
BI-1245.110,VS,BI-1245.110-RUS_SITE01-0011,53,WEIGHT,Weight,61.7,kg,61.7,61.7,kg,,,,,6.0,MONTH 12,TREATMENT,2025-04-24,375,,,,,,MILESTONE 1
BI-1245.110,VS,BI-1245.110-RUS_SITE01-0011,54,BMI,BMI,,,24.2,24.2,kg/m2,,,,Y,7.0,MONTH 18,TREATMENT,2025-09-29,533,,,,,,MILESTONE 1
BI-1245.110,VS,BI-1245.110-RUS_SITE01-0011,55,DIABP,Diastolic Blood Pressure,83.4,mmHg,83.4,83.4,mmHg,,,,,7.0,MONTH 18,TREATMENT,2025-09-29,533,,,,,,MILESTONE 1
BI-1245.110,VS,BI-1245.110-RUS_SITE01-0011,56,HEIGHT,Height,159.3,cm,159.3,159.3,cm,,,,,7.0,MONTH 18,TREATMENT,2025-09-29,533,,,,,,MILESTONE 1
BI-1245.110,VS,BI-1245.110-RUS_SITE01-0011,57,PULSE,Pulse Rate,53.6,beats/min,53.6,53.6,beats/min,,,,,7.0,MONTH 18,TREATMENT,2025-09-29,533,,,,,,MILESTONE 1
BI-1245.110,VS,BI-1245.110-RUS_SITE01-0011,58,RESP,Respiratory Rate,19.8,breaths/min,19.8,19.8,breaths/min,,,,,7.0,MONTH 18,TREATMENT,2025-09-29,533,,,,,,MILESTONE 1
BI-1245.110,VS,BI-1245.110-RUS_SITE01-0011,59,SYSBP,Systolic Blood Pressure,161.3,mmHg,161.3,161.3,mmHg,,,,,7.0,MONTH 18,TREATMENT,2025-09-29,533,,,,,,MILESTONE 1
BI-1245.110,VS,BI-1245.110-RUS_SITE01-0011,60,TEMP,Temperature,36.8,C,36.8,36.8,C,,,,,7.0,MONTH 18,TREATMENT,2025-09-29,533,,,,,,MILESTONE 1
BI-1245.110,VS,BI-1245.110-RUS_SITE01-0011,61,WEIGHT,Weight,61.3,kg,61.3,61.3,kg,,,,,7.0,MONTH 18,TREATMENT,2025-09-29,533,,,,,,MILESTONE 1
BI-1245.110,VS,BI-1245.110-RUS_SITE01-0011,62,BMI,BMI,,,24.5,24.5,kg/m2,,,,Y,8.0,MONTH 24,TREATMENT,2026-04-19,735,,,,,,MILESTONE 1
BI-1245.110,VS,BI-1245.110-RUS_SITE01-0011,63,DIABP,Diastolic Blood Pressure,82.9,mmHg,82.9,82.9,mmHg,,,,,8.0,MONTH 24,TREATMENT,2026-04-19,735,,,,,,MILESTONE 1
BI-1245.110,VS,BI-1245.110-RUS_SITE01-0011,64,HEIGHT,Height,159.4,cm,159.4,159.4,cm,,,,,8.0,MONTH 24,TREATMENT,2026-04-19,735,,,,,,MILESTONE 1
BI-1245.110,VS,BI-1245.110-RUS_SITE01-0011,65,PULSE,Pulse Rate,54.9,beats/min,54.9,54.9,beats/min,,,,,8.0,MONTH 24,TREATMENT,2026-04-19,735,,,,,,MILESTONE 1
BI-1245.110,VS,BI-1245.110-RUS_SITE01-0011,66,RESP,Respiratory Rate,19.5,breaths/min,19.5,19.5,breaths/min,,,,,8.0,MONTH 24,TREATMENT,2026-04-19,735,,,,,,MILESTONE 1
BI-1245.110,VS,BI-1245.110-RUS_SITE01-0011,67,SYSBP,Systolic Blood Pressure,157.8,mmHg,157.8,157.8,mmHg,,,,,8.0,MONTH 24,TREATMENT,2026-04-19,735,,,,,,MILESTONE 1
BI-1245.110,VS,BI-1245.110-RUS_SITE01-0011,68,TEMP,Temperature,37.0,C,37.0,37.0,C,,,,,8.0,MONTH 24,TREATMENT,2026-04-19,735,,,,,,MILESTONE 1
BI-1245.110,VS,BI-1245.110-RUS_SITE01-0011,69,WEIGHT,Weight,62.2,kg,62.2,62.2,kg,,,,,8.0,MONTH 24,TREATMENT,2026-04-19,735,,,,,,MILESTONE 1
BI-1245.110,VS,BI-1245.110-RUS_SITE01-0011,70,BMI,BMI,,,24.0,24.0,kg/m2,,,,Y,9.0,EOT,TREATMENT,2026-06-21,798,,,,,,MILESTONE 1
BI-1245.110,VS,BI-1245.110-RUS_SITE01-0011,71,DIABP,Diastolic Blood Pressure,80.7,mmHg,80.7,80.7,mmHg,,,,,9.0,EOT,TREATMENT,2026-06-21,798,,,,,,MILESTONE 1
BI-1245.110,VS,BI-1245.110-RUS_SITE01-0011,72,HEIGHT,Height,159.5,cm,159.5,159.5,cm,,,,,9.0,EOT,TREATMENT,2026-06-21,798,,,,,,MILESTONE 1
BI-1245.110,VS,BI-1245.110-RUS_SITE01-0011,73,PULSE,Pulse Rate,45.5,beats/min,45.5,45.5,beats/min,,,,,9.0,EOT,TREATMENT,2026-06-21,798,,,,,,MILESTONE 1
BI-1245.110,VS,BI-1245.110-RUS_SITE01-0011,74,RESP,Respiratory Rate,19.8,breaths/min,19.8,19.8,breaths/min,,,,,9.0,EOT,TREATMENT,2026-06-21,798,,,,,,MILESTONE 1
BI-1245.110,VS,BI-1245.110-RUS_SITE01-0011,75,SYSBP,Systolic Blood Pressure,155.3,mmHg,155.3,155.3,mmHg,,,,,9.0,EOT,TREATMENT,2026-06-21,798,,,,,,MILESTONE 1
BI-1245.110,VS,BI-1245.110-RUS_SITE01-0011,76,TEMP,Temperature,37.0,C,37.0,37.0,C,,,,,9.0,EOT,TREATMENT,2026-06-21,798,,,,,,MILESTONE 1
BI-1245.110,VS,BI-1245.110-RUS_SITE01-0011,77,WEIGHT,Weight,61.0,kg,61.0,61.0,kg,,,,,9.0,EOT,TREATMENT,2026-06-21,798,,,,,,MILESTONE 1
BI-1245.110,VS,BI-1245.110-USA_SITE01-0005,1,BMI,BMI,,,34.1,34.1,kg/m2,,,,Y,1.0,SCREENING,SCREENING,2024-01-28,-49,,,,,,MILESTONE 1
BI-1245.110,VS,BI-1245.110-USA_SITE01-0005,2,DIABP,Diastolic Blood Pressure,69.6,mmHg,69.6,69.6,mmHg,,,,,1.0,SCREENING,SCREENING,2024-01-28,-49,,,,,,MILESTONE 1
BI-1245.110,VS,BI-1245.110-USA_SITE01-0005,3,HEIGHT,Height,142.7,cm,142.7,142.7,cm,,,,,1.0,SCREENING,SCREENING,2024-01-28,-49,,,,,,MILESTONE 1
BI-1245.110,VS,BI-1245.110-USA_SITE01-0005,4,PULSE,Pulse Rate,106.3,beats/min,106.3,106.3,beats/min,,,,,1.0,SCREENING,SCREENING,2024-01-28,-49,,,,,,MILESTONE 1
BI-1245.110,VS,BI-1245.110-USA_SITE01-0005,5,RESP,Respiratory Rate,18.7,breaths/min,18.7,18.7,breaths/min,,,,,1.0,SCREENING,SCREENING,2024-01-28,-49,,,,,,MILESTONE 1
BI-1245.110,VS,BI-1245.110-USA_SITE01-0005,6,SYSBP,Systolic Blood Pressure,125.3,mmHg,125.3,125.3,mmHg,,,,,1.0,SCREENING,SCREENING,2024-01-28,-49,,,,,,MILESTONE 1
BI-1245.110,VS,BI-1245.110-USA_SITE01-0005,7,TEMP,Temperature,36.9,C,36.9,36.9,C,,,,,1.0,SCREENING,SCREENING,2024-01-28,-49,,,,,,MILESTONE 1
BI-1245.110,VS,BI-1245.110-USA_SITE01-0005,8,WEIGHT,Weight,69.4,kg,69.4,69.4,kg,,,,,1.0,SCREENING,SCREENING,2024-01-28,-49,,,,,,MILESTONE 1
BI-1245.110,VS,BI-1245.110-USA_SITE01-0005,9,BMI,BMI,,,33.5,33.5,kg/m2,,Y,Y,Y,2.0,BASELINE,TREATMENT,2024-03-17,1,,,,,,MILESTONE 1
BI-1245.110,VS,BI-1245.110-USA_SITE01-0005,10,DIABP,Diastolic Blood Pressure,69.7,mmHg,69.7,69.7,mmHg,,Y,Y,,2.0,BASELINE,TREATMENT,2024-03-17T07:45,1,PRE-DOSE,1,-PT15M,DOSE ADMINISTRATION,2024-03-17T08:00,MILESTONE 1
BI-1245.110,VS,BI-1245.110-USA_SITE01-0005,11,DIABP,Diastolic Blood Pressure,70.6,mmHg,70.6,70.6,mmHg,,,,,2.0,BASELINE,TREATMENT,2024-03-17T09:00,1,1H POST-DOSE,2,PT1H,DOSE ADMINISTRATION,2024-03-17T08:00,MILESTONE 1
BI-1245.110,VS,BI-1245.110-USA_SITE01-0005,12,HEIGHT,Height,143.3,cm,143.3,143.3,cm,,Y,Y,,2.0,BASELINE,TREATMENT,2024-03-17,1,,,,,,MILESTONE 1
BI-1245.110,VS,BI-1245.110-USA_SITE01-0005,13,PULSE,Pulse Rate,104.9,beats/min,104.9,104.9,beats/min,,Y,Y,,2.0,BASELINE,TREATMENT,2024-03-17T07:45,1,PRE-DOSE,1,-PT15M,DOSE ADMINISTRATION,2024-03-17T08:00,MILESTONE 1
BI-1245.110,VS,BI-1245.110-USA_SITE01-0005,14,PULSE,Pulse Rate,105.4,beats/min,105.4,105.4,beats/min,,,,,2.0,BASELINE,TREATMENT,2024-03-17T09:00,1,1H POST-DOSE,2,PT1H,DOSE ADMINISTRATION,2024-03-17T08:00,MILESTONE 1
BI-1245.110,VS,BI-1245.110-USA_SITE01-0005,15,RESP,Respiratory Rate,19.5,breaths/min,19.5,19.5,breaths/min,,Y,Y,,2.0,BASELINE,TREATMENT,2024-03-17T07:45,1,PRE-DOSE,1,-PT15M,DOSE ADMINISTRATION,2024-03-17T08:00,MILESTONE 1
BI-1245.110,VS,BI-1245.110-USA_SITE01-0005,16,RESP,Respiratory Rate,19.7,breaths/min,19.7,19.7,breaths/min,,,,,2.0,BASELINE,TREATMENT,2024-03-17T09:00,1,1H POST-DOSE,2,PT1H,DOSE ADMINISTRATION,2024-03-17T08:00,MILESTONE 1
BI-1245.110,VS,BI-1245.110-USA_SITE01-0005,17,SYSBP,Systolic Blood Pressure,127.4,mmHg,127.4,127.4,mmHg,,Y,Y,,2.0,BASELINE,TREATMENT,2024-03-17T07:45,1,PRE-DOSE,1,-PT15M,DOSE ADMINISTRATION,2024-03-17T08:00,MILESTONE 1
BI-1245.110,VS,BI-1245.110-USA_SITE01-0005,18,SYSBP,Systolic Blood Pressure,127.6,mmHg,127.6,127.6,mmHg,,,,,2.0,BASELINE,TREATMENT,2024-03-17T09:00,1,1H POST-DOSE,2,PT1H,DOSE ADMINISTRATION,2024-03-17T08:00,MILESTONE 1
BI-1245.110,VS,BI-1245.110-USA_SITE01-0005,19,TEMP,Temperature,37.0,C,37.0,37.0,C,,Y,Y,,2.0,BASELINE,TREATMENT,2024-03-17T07:45,1,PRE-DOSE,1,-PT15M,DOSE ADMINISTRATION,2024-03-17T08:00,MILESTONE 1
BI-1245.110,VS,BI-1245.110-USA_SITE01-0005,20,TEMP,Temperature,38.0,C,38.0,38.0,C,,,,,2.0,BASELINE,TREATMENT,2024-03-17T09:00,1,1H POST-DOSE,2,PT1H,DOSE ADMINISTRATION,2024-03-17T08:00,MILESTONE 1
BI-1245.110,VS,BI-1245.110-USA_SITE01-0005,21,WEIGHT,Weight,68.8,kg,68.8,68.8,kg,,Y,Y,,2.0,BASELINE,TREATMENT,2024-03-17,1,,,,,,MILESTONE 1
BI-1245.110,VS,BI-1245.110-USA_SITE01-0005,22,BMI,BMI,,,33.7,33.7,kg/m2,,,,Y,3.0,WEEK 4,TREATMENT,2024-04-16,31,,,,,,MILESTONE 1
BI-1245.110,VS,BI-1245.110-USA_SITE01-0005,23,DIABP,Diastolic Blood Pressure,67.2,mmHg,67.2,67.2,mmHg,,,,,3.0,WEEK 4,TREATMENT,2024-04-16,31,,,,,,MILESTONE 1
BI-1245.110,VS,BI-1245.110-USA_SITE01-0005,24,HEIGHT,Height,142.8,cm,142.8,142.8,cm,,,,,3.0,WEEK 4,TREATMENT,2024-04-16,31,,,,,,MILESTONE 1
BI-1245.110,VS,BI-1245.110-USA_SITE01-0005,25,PULSE,Pulse Rate,102.1,beats/min,102.1,102.1,beats/min,,,,,3.0,WEEK 4,TREATMENT,2024-04-16,31,,,,,,MILESTONE 1
BI-1245.110,VS,BI-1245.110-USA_SITE01-0005,26,RESP,Respiratory Rate,21.3,breaths/min,21.3,21.3,breaths/min,,,,,3.0,WEEK 4,TREATMENT,2024-04-16,31,,,,,,MILESTONE 1
BI-1245.110,VS,BI-1245.110-USA_SITE01-0005,27,SYSBP,Systolic Blood Pressure,127.8,mmHg,127.8,127.8,mmHg,,,,,3.0,WEEK 4,TREATMENT,2024-04-16,31,,,,,,MILESTONE 1
BI-1245.110,VS,BI-1245.110-USA_SITE01-0005,28,TEMP,Temperature,36.9,C,36.9,36.9,C,,,,,3.0,WEEK 4,TREATMENT,2024-04-16,31,,,,,,MILESTONE 1
BI-1245.110,VS,BI-1245.110-USA_SITE01-0005,29,WEIGHT,Weight,68.7,kg,68.7,68.7,kg,,,,,3.0,WEEK 4,TREATMENT,2024-04-16,31,,,,,,MILESTONE 1
BI-1245.110,VS,BI-1245.110-USA_SITE01-0005,30,BMI,BMI,,,34.8,34.8,kg/m2,,,,Y,4.0,WEEK 12,TREATMENT,2024-06-09,85,,,,,,MILESTONE 1
BI-1245.110,VS,BI-1245.110-USA_SITE01-0005,31,DIABP,Diastolic Blood Pressure,67.4,mmHg,67.4,67.4,mmHg,,,,,4.0,WEEK 12,TREATMENT,2024-06-09,85,,,,,,MILESTONE 1
BI-1245.110,VS,BI-1245.110-USA_SITE01-0005,32,HEIGHT,Height,143.4,cm,143.4,143.4,cm,,,,,4.0,WEEK 12,TREATMENT,2024-06-09,85,,,,,,MILESTONE 1
BI-1245.110,VS,BI-1245.110-USA_SITE01-0005,33,PULSE,Pulse Rate,105.0,beats/min,105.0,105.0,beats/min,,,,,4.0,WEEK 12,TREATMENT,2024-06-09,85,,,,,,MILESTONE 1
BI-1245.110,VS,BI-1245.110-USA_SITE01-0005,34,RESP,Respiratory Rate,20.5,breaths/min,20.5,20.5,breaths/min,,,,,4.0,WEEK 12,TREATMENT,2024-06-09,85,,,,,,MILESTONE 1
BI-1245.110,VS,BI-1245.110-USA_SITE01-0005,35,SYSBP,Systolic Blood Pressure,127.3,mmHg,127.3,127.3,mmHg,,,,,4.0,WEEK 12,TREATMENT,2024-06-09,85,,,,,,MILESTONE 1
BI-1245.110,VS,BI-1245.110-USA_SITE01-0005,36,TEMP,Temperature,36.7,C,36.7,36.7,C,,,,,4.0,WEEK 12,TREATMENT,2024-06-09,85,,,,,,MILESTONE 1
BI-1245.110,VS,BI-1245.110-USA_SITE01-0005,37,WEIGHT,Weight,71.6,kg,71.6,71.6,kg,,,,,4.0,WEEK 12,TREATMENT,2024-06-09,85,,,,,,MILESTONE 1
BI-1245.110,VS,BI-1245.110-USA_SITE01-0005,38,BMI,BMI,,,35.6,35.6,kg/m2,,,,Y,5.0,MONTH 6,TREATMENT,2024-09-29,197,,,,,,MILESTONE 1
BI-1245.110,VS,BI-1245.110-USA_SITE01-0005,39,DIABP,Diastolic Blood Pressure,68.6,mmHg,68.6,68.6,mmHg,,,,,5.0,MONTH 6,TREATMENT,2024-09-29,197,,,,,,MILESTONE 1
BI-1245.110,VS,BI-1245.110-USA_SITE01-0005,40,HEIGHT,Height,143.3,cm,143.3,143.3,cm,,,,,5.0,MONTH 6,TREATMENT,2024-09-29,197,,,,,,MILESTONE 1
BI-1245.110,VS,BI-1245.110-USA_SITE01-0005,41,PULSE,Pulse Rate,107.9,beats/min,107.9,107.9,beats/min,,,,,5.0,MONTH 6,TREATMENT,2024-09-29,197,,,,,,MILESTONE 1
BI-1245.110,VS,BI-1245.110-USA_SITE01-0005,42,RESP,Respiratory Rate,17.7,breaths/min,17.7,17.7,breaths/min,,,,,5.0,MONTH 6,TREATMENT,2024-09-29,197,,,,,,MILESTONE 1
BI-1245.110,VS,BI-1245.110-USA_SITE01-0005,43,SYSBP,Systolic Blood Pressure,128.6,mmHg,128.6,128.6,mmHg,,,,,5.0,MONTH 6,TREATMENT,2024-09-29,197,,,,,,MILESTONE 1
BI-1245.110,VS,BI-1245.110-USA_SITE01-0005,44,TEMP,Temperature,37.0,C,37.0,37.0,C,,,,,5.0,MONTH 6,TREATMENT,2024-09-29,197,,,,,,MILESTONE 1
BI-1245.110,VS,BI-1245.110-USA_SITE01-0005,45,WEIGHT,Weight,73.2,kg,73.2,73.2,kg,,,,,5.0,MONTH 6,TREATMENT,2024-09-29,197,,,,,,MILESTONE 1
BI-1245.110,VS,BI-1245.110-USA_SITE01-0005,46,BMI,BMI,,,36.1,36.1,kg/m2,,,,Y,6.0,MONTH 12,TREATMENT,2025-03-26,375,,,,,,MILESTONE 1
BI-1245.110,VS,BI-1245.110-USA_SITE01-0005,47,DIABP,Diastolic Blood Pressure,69.4,mmHg,69.4,69.4,mmHg,,,,,6.0,MONTH 12,TREATMENT,2025-03-26,375,,,,,,MILESTONE 1
BI-1245.110,VS,BI-1245.110-USA_SITE01-0005,48,HEIGHT,Height,143.1,cm,143.1,143.1,cm,,,,,6.0,MONTH 12,TREATMENT,2025-03-26,375,,,,,,MILESTONE 1
BI-1245.110,VS,BI-1245.110-USA_SITE01-0005,49,PULSE,Pulse Rate,105.4,beats/min,105.4,105.4,beats/min,,,,,6.0,MONTH 12,TREATMENT,2025-03-26,375,,,,,,MILESTONE 1
BI-1245.110,VS,BI-1245.110-USA_SITE01-0005,50,RESP,Respiratory Rate,19.3,breaths/min,19.3,19.3,breaths/min,,,,,6.0,MONTH 12,TREATMENT,2025-03-26,375,,,,,,MILESTONE 1
BI-1245.110,VS,BI-1245.110-USA_SITE01-0005,51,SYSBP,Systolic Blood Pressure,128.2,mmHg,128.2,128.2,mmHg,,,,,6.0,MONTH 12,TREATMENT,2025-03-26,375,,,,,,MILESTONE 1
BI-1245.110,VS,BI-1245.110-USA_SITE01-0005,52,TEMP,Temperature,36.8,C,36.8,36.8,C,,,,,6.0,MONTH 12,TREATMENT,2025-03-26,375,,,,,,MILESTONE 1
BI-1245.110,VS,BI-1245.110-USA_SITE01-0005,53,WEIGHT,Weight,74.0,kg,74.0,74.0,kg,,,,,6.0,MONTH 12,TREATMENT,2025-03-26,375,,,,,,MILESTONE 1
BI-1245.110,VS,BI-1245.110-USA_SITE01-0005,54,BMI,BMI,,,36.5,36.5,kg/m2,,,,Y,7.0,MONTH 18,TREATMENT,2025-09-24,557,,,,,,MILESTONE 1
BI-1245.110,VS,BI-1245.110-USA_SITE01-0005,55,DIABP,Diastolic Blood Pressure,68.3,mmHg,68.3,68.3,mmHg,,,,,7.0,MONTH 18,TREATMENT,2025-09-24,557,,,,,,MILESTONE 1
BI-1245.110,VS,BI-1245.110-USA_SITE01-0005,56,HEIGHT,Height,142.9,cm,142.9,142.9,cm,,,,,7.0,MONTH 18,TREATMENT,2025-09-24,557,,,,,,MILESTONE 1
BI-1245.110,VS,BI-1245.110-USA_SITE01-0005,57,PULSE,Pulse Rate,104.7,beats/min,104.7,104.7,beats/min,,,,,7.0,MONTH 18,TREATMENT,2025-09-24,557,,,,,,MILESTONE 1
BI-1245.110,VS,BI-1245.110-USA_SITE01-0005,58,RESP,Respiratory Rate,19.2,breaths/min,19.2,19.2,breaths/min,,,,,7.0,MONTH 18,TREATMENT,2025-09-24,557,,,,,,MILESTONE 1
BI-1245.110,VS,BI-1245.110-USA_SITE01-0005,59,SYSBP,Systolic Blood Pressure,124.8,mmHg,124.8,124.8,mmHg,,,,,7.0,MONTH 18,TREATMENT,2025-09-24,557,,,,,,MILESTONE 1
BI-1245.110,VS,BI-1245.110-USA_SITE01-0005,60,TEMP,Temperature,37.2,C,37.2,37.2,C,,,,,7.0,MONTH 18,TREATMENT,2025-09-24,557,,,,,,MILESTONE 1
BI-1245.110,VS,BI-1245.110-USA_SITE01-0005,61,WEIGHT,Weight,74.5,kg,74.5,74.5,kg,,,,,7.0,MONTH 18,TREATMENT,2025-09-24,557,,,,,,MILESTONE 1
BI-1245.110,VS,BI-1245.110-USA_SITE01-0005,62,BMI,BMI,,,36.4,36.4,kg/m2,,,,Y,8.0,MONTH 24,TREATMENT,2026-03-09,723,,,,,,MILESTONE 1
BI-1245.110,VS,BI-1245.110-USA_SITE01-0005,63,DIABP,Diastolic Blood Pressure,55.7,mmHg,55.7,55.7,mmHg,,,,,8.0,MONTH 24,TREATMENT,2026-03-09,723,,,,,,MILESTONE 1
BI-1245.110,VS,BI-1245.110-USA_SITE01-0005,64,HEIGHT,Height,142.9,cm,142.9,142.9,cm,,,,,8.0,MONTH 24,TREATMENT,2026-03-09,723,,,,,,MILESTONE 1
BI-1245.110,VS,BI-1245.110-USA_SITE01-0005,65,PULSE,Pulse Rate,105.9,beats/min,105.9,105.9,beats/min,,,,,8.0,MONTH 24,TREATMENT,2026-03-09,723,,,,,,MILESTONE 1
BI-1245.110,VS,BI-1245.110-USA_SITE01-0005,66,RESP,Respiratory Rate,16.8,breaths/min,16.8,16.8,breaths/min,,,,,8.0,MONTH 24,TREATMENT,2026-03-09,723,,,,,,MILESTONE 1
BI-1245.110,VS,BI-1245.110-USA_SITE01-0005,67,SYSBP,Systolic Blood Pressure,104.5,mmHg,104.5,104.5,mmHg,,,,,8.0,MONTH 24,TREATMENT,2026-03-09,723,,,,,,MILESTONE 1
BI-1245.110,VS,BI-1245.110-USA_SITE01-0005,68,TEMP,Temperature,37.0,C,37.0,37.0,C,,,,,8.0,MONTH 24,TREATMENT,2026-03-09,723,,,,,,MILESTONE 1
BI-1245.110,VS,BI-1245.110-USA_SITE01-0005,69,WEIGHT,Weight,74.3,kg,74.3,74.3,kg,,,,,8.0,MONTH 24,TREATMENT,2026-03-09,723,,,,,,MILESTONE 1
BI-1245.110,VS,BI-1245.110-USA_SITE01-0005,70,BMI,BMI,,,36.4,36.4,kg/m2,,,,Y,9.0,EOT,TREATMENT,2026-05-25,800,,,,,,MILESTONE 1
BI-1245.110,VS,BI-1245.110-USA_SITE01-0005,71,DIABP,Diastolic Blood Pressure,67.8,mmHg,67.8,67.8,mmHg,,,,,9.0,EOT,TREATMENT,2026-05-25,800,,,,,,MILESTONE 1
BI-1245.110,VS,BI-1245.110-USA_SITE01-0005,72,HEIGHT,Height,143.2,cm,143.2,143.2,cm,,,,,9.0,EOT,TREATMENT,2026-05-25,800,,,,,,MILESTONE 1
BI-1245.110,VS,BI-1245.110-USA_SITE01-0005,73,PULSE,Pulse Rate,106.1,beats/min,106.1,106.1,beats/min,,,,,9.0,EOT,TREATMENT,2026-05-25,800,,,,,,MILESTONE 1
BI-1245.110,VS,BI-1245.110-USA_SITE01-0005,74,RESP,Respiratory Rate,17.7,breaths/min,17.7,17.7,breaths/min,,,,,9.0,EOT,TREATMENT,2026-05-25,800,,,,,,MILESTONE 1
BI-1245.110,VS,BI-1245.110-USA_SITE01-0005,75,SYSBP,Systolic Blood Pressure,124.2,mmHg,124.2,124.2,mmHg,,,,,9.0,EOT,TREATMENT,2026-05-25,800,,,,,,MILESTONE 1
BI-1245.110,VS,BI-1245.110-USA_SITE01-0005,76,TEMP,Temperature,36.6,C,36.6,36.6,C,,,,,9.0,EOT,TREATMENT,2026-05-25,800,,,,,,MILESTONE 1
BI-1245.110,VS,BI-1245.110-USA_SITE01-0005,77,WEIGHT,Weight,74.7,kg,74.7,74.7,kg,,,,,9.0,EOT,TREATMENT,2026-05-25,800,,,,,,MILESTONE 1
BI-1245.110,VS,BI-1245.110-USA_SITE01-0018,1,BMI,BMI,,,26.0,26.0,kg/m2,,,,Y,1.0,SCREENING,SCREENING,2024-01-02,-30,,,,,,MILESTONE 1
BI-1245.110,VS,BI-1245.110-USA_SITE01-0018,2,DIABP,Diastolic Blood Pressure,107.5,mmHg,107.5,107.5,mmHg,,,,,1.0,SCREENING,SCREENING,2024-01-02,-30,,,,,,MILESTONE 1
BI-1245.110,VS,BI-1245.110-USA_SITE01-0018,3,HEIGHT,Height,166.6,cm,166.6,166.6,cm,,,,,1.0,SCREENING,SCREENING,2024-01-02,-30,,,,,,MILESTONE 1
BI-1245.110,VS,BI-1245.110-USA_SITE01-0018,4,PULSE,Pulse Rate,86.3,beats/min,86.3,86.3,beats/min,,,,,1.0,SCREENING,SCREENING,2024-01-02,-30,,,,,,MILESTONE 1
BI-1245.110,VS,BI-1245.110-USA_SITE01-0018,5,RESP,Respiratory Rate,13.6,breaths/min,13.6,13.6,breaths/min,,,,,1.0,SCREENING,SCREENING,2024-01-02,-30,,,,,,MILESTONE 1
BI-1245.110,VS,BI-1245.110-USA_SITE01-0018,6,SYSBP,Systolic Blood Pressure,148.4,mmHg,148.4,148.4,mmHg,,,,,1.0,SCREENING,SCREENING,2024-01-02,-30,,,,,,MILESTONE 1
BI-1245.110,VS,BI-1245.110-USA_SITE01-0018,7,TEMP,Temperature,36.9,C,36.9,36.9,C,,,,,1.0,SCREENING,SCREENING,2024-01-02,-30,,,,,,MILESTONE 1
BI-1245.110,VS,BI-1245.110-USA_SITE01-0018,8,WEIGHT,Weight,72.2,kg,72.2,72.2,kg,,,,,1.0,SCREENING,SCREENING,2024-01-02,-30,,,,,,MILESTONE 1
BI-1245.110,VS,BI-1245.110-USA_SITE01-0018,9,BMI,BMI,,,26.4,26.4,kg/m2,,Y,Y,Y,2.0,BASELINE,TREATMENT,2024-02-01,1,,,,,,MILESTONE 1
BI-1245.110,VS,BI-1245.110-USA_SITE01-0018,10,DIABP,Diastolic Blood Pressure,105.0,mmHg,105.0,105.0,mmHg,,Y,Y,,2.0,BASELINE,TREATMENT,2024-02-01T07:45,1,PRE-DOSE,1,-PT15M,DOSE ADMINISTRATION,2024-02-01T08:00,MILESTONE 1
BI-1245.110,VS,BI-1245.110-USA_SITE01-0018,11,DIABP,Diastolic Blood Pressure,103.8,mmHg,103.8,103.8,mmHg,,,,,2.0,BASELINE,TREATMENT,2024-02-01T09:00,1,1H POST-DOSE,2,PT1H,DOSE ADMINISTRATION,2024-02-01T08:00,MILESTONE 1
BI-1245.110,VS,BI-1245.110-USA_SITE01-0018,12,HEIGHT,Height,165.6,cm,165.6,165.6,cm,,Y,Y,,2.0,BASELINE,TREATMENT,2024-02-01,1,,,,,,MILESTONE 1
BI-1245.110,VS,BI-1245.110-USA_SITE01-0018,13,PULSE,Pulse Rate,85.8,beats/min,85.8,85.8,beats/min,,Y,Y,,2.0,BASELINE,TREATMENT,2024-02-01T07:45,1,PRE-DOSE,1,-PT15M,DOSE ADMINISTRATION,2024-02-01T08:00,MILESTONE 1
BI-1245.110,VS,BI-1245.110-USA_SITE01-0018,14,PULSE,Pulse Rate,85.2,beats/min,85.2,85.2,beats/min,,,,,2.0,BASELINE,TREATMENT,2024-02-01T09:00,1,1H POST-DOSE,2,PT1H,DOSE ADMINISTRATION,2024-02-01T08:00,MILESTONE 1
BI-1245.110,VS,BI-1245.110-USA_SITE01-0018,15,RESP,Respiratory Rate,13.6,breaths/min,13.6,13.6,breaths/min,,Y,Y,,2.0,BASELINE,TREATMENT,2024-02-01T07:45,1,PRE-DOSE,1,-PT15M,DOSE ADMINISTRATION,2024-02-01T08:00,MILESTONE 1
BI-1245.110,VS,BI-1245.110-USA_SITE01-0018,16,RESP,Respiratory Rate,13.9,breaths/min,13.9,13.9,breaths/min,,,,,2.0,BASELINE,TREATMENT,2024-02-01T09:00,1,1H POST-DOSE,2,PT1H,DOSE ADMINISTRATION,2024-02-01T08:00,MILESTONE 1
BI-1245.110,VS,BI-1245.110-USA_SITE01-0018,17,SYSBP,Systolic Blood Pressure,146.8,mmHg,146.8,146.8,mmHg,,Y,Y,,2.0,BASELINE,TREATMENT,2024-02-01T07:45,1,PRE-DOSE,1,-PT15M,DOSE ADMINISTRATION,2024-02-01T08:00,MILESTONE 1
BI-1245.110,VS,BI-1245.110-USA_SITE01-0018,18,SYSBP,Systolic Blood Pressure,147.6,mmHg,147.6,147.6,mmHg,,,,,2.0,BASELINE,TREATMENT,2024-02-01T09:00,1,1H POST-DOSE,2,PT1H,DOSE ADMINISTRATION,2024-02-01T08:00,MILESTONE 1
BI-1245.110,VS,BI-1245.110-USA_SITE01-0018,19,TEMP,Temperature,37.0,C,37.0,37.0,C,,Y,Y,,2.0,BASELINE,TREATMENT,2024-02-01T07:45,1,PRE-DOSE,1,-PT15M,DOSE ADMINISTRATION,2024-02-01T08:00,MILESTONE 1
BI-1245.110,VS,BI-1245.110-USA_SITE01-0018,20,TEMP,Temperature,36.4,C,36.4,36.4,C,,,,,2.0,BASELINE,TREATMENT,2024-02-01T09:00,1,1H POST-DOSE,2,PT1H,DOSE ADMINISTRATION,2024-02-01T08:00,MILESTONE 1
BI-1245.110,VS,BI-1245.110-USA_SITE01-0018,21,WEIGHT,Weight,72.4,kg,72.4,72.4,kg,,Y,Y,,2.0,BASELINE,TREATMENT,2024-02-01,1,,,,,,MILESTONE 1
BI-1245.110,VS,BI-1245.110-USA_SITE02-0002,1,BMI,BMI,,,44.7,44.7,kg/m2,,,,Y,1.0,SCREENING,SCREENING,2024-02-26,-44,,,,,,MILESTONE 1
BI-1245.110,VS,BI-1245.110-USA_SITE02-0002,2,DIABP,Diastolic Blood Pressure,81.6,mmHg,81.6,81.6,mmHg,,,,,1.0,SCREENING,SCREENING,2024-02-26,-44,,,,,,MILESTONE 1
BI-1245.110,VS,BI-1245.110-USA_SITE02-0002,3,HEIGHT,Height,151.8,cm,151.8,151.8,cm,,,,,1.0,SCREENING,SCREENING,2024-02-26,-44,,,,,,MILESTONE 1
BI-1245.110,VS,BI-1245.110-USA_SITE02-0002,4,PULSE,Pulse Rate,78.2,beats/min,78.2,78.2,beats/min,,,,,1.0,SCREENING,SCREENING,2024-02-26,-44,,,,,,MILESTONE 1
BI-1245.110,VS,BI-1245.110-USA_SITE02-0002,5,RESP,Respiratory Rate,15.1,breaths/min,15.1,15.1,breaths/min,,,,,1.0,SCREENING,SCREENING,2024-02-26,-44,,,,,,MILESTONE 1
BI-1245.110,VS,BI-1245.110-USA_SITE02-0002,6,SYSBP,Systolic Blood Pressure,139.5,mmHg,139.5,139.5,mmHg,,,,,1.0,SCREENING,SCREENING,2024-02-26,-44,,,,,,MILESTONE 1
BI-1245.110,VS,BI-1245.110-USA_SITE02-0002,7,TEMP,Temperature,35.9,C,35.9,35.9,C,,,,,1.0,SCREENING,SCREENING,2024-02-26,-44,,,,,,MILESTONE 1
BI-1245.110,VS,BI-1245.110-USA_SITE02-0002,8,WEIGHT,Weight,103.0,kg,103.0,103.0,kg,,,,,1.0,SCREENING,SCREENING,2024-02-26,-44,,,,,,MILESTONE 1
BI-1245.110,VS,BI-1245.110-USA_SITE02-0002,9,BMI,BMI,,,44.4,44.4,kg/m2,,Y,Y,Y,2.0,BASELINE,TREATMENT,2024-04-10,1,,,,,,MILESTONE 1
BI-1245.110,VS,BI-1245.110-USA_SITE02-0002,10,DIABP,Diastolic Blood Pressure,80.3,mmHg,80.3,80.3,mmHg,,Y,Y,,2.0,BASELINE,TREATMENT,2024-04-10T07:45,1,PRE-DOSE,1,-PT15M,DOSE ADMINISTRATION,2024-04-10T08:00,MILESTONE 1
BI-1245.110,VS,BI-1245.110-USA_SITE02-0002,11,DIABP,Diastolic Blood Pressure,81.0,mmHg,81.0,81.0,mmHg,,,,,2.0,BASELINE,TREATMENT,2024-04-10T09:00,1,1H POST-DOSE,2,PT1H,DOSE ADMINISTRATION,2024-04-10T08:00,MILESTONE 1
BI-1245.110,VS,BI-1245.110-USA_SITE02-0002,12,HEIGHT,Height,152.1,cm,152.1,152.1,cm,,Y,Y,,2.0,BASELINE,TREATMENT,2024-04-10,1,,,,,,MILESTONE 1
BI-1245.110,VS,BI-1245.110-USA_SITE02-0002,13,PULSE,Pulse Rate,78.4,beats/min,78.4,78.4,beats/min,,Y,Y,,2.0,BASELINE,TREATMENT,2024-04-10T07:45,1,PRE-DOSE,1,-PT15M,DOSE ADMINISTRATION,2024-04-10T08:00,MILESTONE 1
BI-1245.110,VS,BI-1245.110-USA_SITE02-0002,14,PULSE,Pulse Rate,79.1,beats/min,79.1,79.1,beats/min,,,,,2.0,BASELINE,TREATMENT,2024-04-10T09:00,1,1H POST-DOSE,2,PT1H,DOSE ADMINISTRATION,2024-04-10T08:00,MILESTONE 1
BI-1245.110,VS,BI-1245.110-USA_SITE02-0002,15,RESP,Respiratory Rate,15.5,breaths/min,15.5,15.5,breaths/min,,Y,Y,,2.0,BASELINE,TREATMENT,2024-04-10T07:45,1,PRE-DOSE,1,-PT15M,DOSE ADMINISTRATION,2024-04-10T08:00,MILESTONE 1
BI-1245.110,VS,BI-1245.110-USA_SITE02-0002,16,RESP,Respiratory Rate,15.9,breaths/min,15.9,15.9,breaths/min,,,,,2.0,BASELINE,TREATMENT,2024-04-10T09:00,1,1H POST-DOSE,2,PT1H,DOSE ADMINISTRATION,2024-04-10T08:00,MILESTONE 1
BI-1245.110,VS,BI-1245.110-USA_SITE02-0002,17,SYSBP,Systolic Blood Pressure,140.3,mmHg,140.3,140.3,mmHg,,Y,Y,,2.0,BASELINE,TREATMENT,2024-04-10T07:45,1,PRE-DOSE,1,-PT15M,DOSE ADMINISTRATION,2024-04-10T08:00,MILESTONE 1
BI-1245.110,VS,BI-1245.110-USA_SITE02-0002,18,SYSBP,Systolic Blood Pressure,142.8,mmHg,142.8,142.8,mmHg,,,,,2.0,BASELINE,TREATMENT,2024-04-10T09:00,1,1H POST-DOSE,2,PT1H,DOSE ADMINISTRATION,2024-04-10T08:00,MILESTONE 1
BI-1245.110,VS,BI-1245.110-USA_SITE02-0002,19,TEMP,Temperature,35.9,C,35.9,35.9,C,,Y,Y,,2.0,BASELINE,TREATMENT,2024-04-10T07:45,1,PRE-DOSE,1,-PT15M,DOSE ADMINISTRATION,2024-04-10T08:00,MILESTONE 1
BI-1245.110,VS,BI-1245.110-USA_SITE02-0002,20,TEMP,Temperature,34.6,C,34.6,34.6,C,,,,,2.0,BASELINE,TREATMENT,2024-04-10T09:00,1,1H POST-DOSE,2,PT1H,DOSE ADMINISTRATION,2024-04-10T08:00,MILESTONE 1
BI-1245.110,VS,BI-1245.110-USA_SITE02-0002,21,WEIGHT,Weight,102.8,kg,102.8,102.8,kg,,Y,Y,,2.0,BASELINE,TREATMENT,2024-04-10,1,,,,,,MILESTONE 1
BI-1245.110,VS,BI-1245.110-USA_SITE02-0002,22,BMI,BMI,,,45.0,45.0,kg/m2,,,,Y,3.0,WEEK 4,TREATMENT,2024-05-06,27,,,,,,MILESTONE 1
BI-1245.110,VS,BI-1245.110-USA_SITE02-0002,23,DIABP,Diastolic Blood Pressure,79.4,mmHg,79.4,79.4,mmHg,,,,,3.0,WEEK 4,TREATMENT,2024-05-06,27,,,,,,MILESTONE 1
BI-1245.110,VS,BI-1245.110-USA_SITE02-0002,24,HEIGHT,Height,152.6,cm,152.6,152.6,cm,,,,,3.0,WEEK 4,TREATMENT,2024-05-06,27,,,,,,MILESTONE 1
BI-1245.110,VS,BI-1245.110-USA_SITE02-0002,25,PULSE,Pulse Rate,,,,,,NOT DONE,,,,3.0,WEEK 4,TREATMENT,2024-05-06,27,,,,,,MILESTONE 1
BI-1245.110,VS,BI-1245.110-USA_SITE02-0002,26,RESP,Respiratory Rate,15.8,breaths/min,15.8,15.8,breaths/min,,,,,3.0,WEEK 4,TREATMENT,2024-05-06,27,,,,,,MILESTONE 1
BI-1245.110,VS,BI-1245.110-USA_SITE02-0002,27,SYSBP,Systolic Blood Pressure,138.3,mmHg,138.3,138.3,mmHg,,,,,3.0,WEEK 4,TREATMENT,2024-05-06,27,,,,,,MILESTONE 1
BI-1245.110,VS,BI-1245.110-USA_SITE02-0002,28,TEMP,Temperature,36.1,C,36.1,36.1,C,,,,,3.0,WEEK 4,TREATMENT,2024-05-06,27,,,,,,MILESTONE 1
BI-1245.110,VS,BI-1245.110-USA_SITE02-0002,29,WEIGHT,Weight,104.9,kg,104.9,104.9,kg,,,,,3.0,WEEK 4,TREATMENT,2024-05-06,27,,,,,,MILESTONE 1
BI-1245.110,VS,BI-1245.110-USA_SITE02-0002,30,BMI,BMI,,,44.7,44.7,kg/m2,,,,Y,4.0,WEEK 12,TREATMENT,2024-07-07,89,,,,,,MILESTONE 1
BI-1245.110,VS,BI-1245.110-USA_SITE02-0002,31,DIABP,Diastolic Blood Pressure,68.9,mmHg,68.9,68.9,mmHg,,,,,4.0,WEEK 12,TREATMENT,2024-07-07,89,,,,,,MILESTONE 1
BI-1245.110,VS,BI-1245.110-USA_SITE02-0002,32,HEIGHT,Height,152.8,cm,152.8,152.8,cm,,,,,4.0,WEEK 12,TREATMENT,2024-07-07,89,,,,,,MILESTONE 1
BI-1245.110,VS,BI-1245.110-USA_SITE02-0002,33,PULSE,Pulse Rate,77.8,beats/min,77.8,77.8,beats/min,,,,,4.0,WEEK 12,TREATMENT,2024-07-07,89,,,,,,MILESTONE 1
BI-1245.110,VS,BI-1245.110-USA_SITE02-0002,34,RESP,Respiratory Rate,15.4,breaths/min,15.4,15.4,breaths/min,,,,,4.0,WEEK 12,TREATMENT,2024-07-07,89,,,,,,MILESTONE 1
BI-1245.110,VS,BI-1245.110-USA_SITE02-0002,35,SYSBP,Systolic Blood Pressure,117.3,mmHg,117.3,117.3,mmHg,,,,,4.0,WEEK 12,TREATMENT,2024-07-07,89,,,,,,MILESTONE 1
BI-1245.110,VS,BI-1245.110-USA_SITE02-0002,36,TEMP,Temperature,36.0,C,36.0,36.0,C,,,,,4.0,WEEK 12,TREATMENT,2024-07-07,89,,,,,,MILESTONE 1
BI-1245.110,VS,BI-1245.110-USA_SITE02-0002,37,WEIGHT,Weight,104.4,kg,104.4,104.4,kg,,,,,4.0,WEEK 12,TREATMENT,2024-07-07,89,,,,,,MILESTONE 1
BI-1245.110,VS,BI-1245.110-USA_SITE02-0002,38,BMI,BMI,,,44.4,44.4,kg/m2,,,,Y,5.0,MONTH 6,TREATMENT,2024-09-26,170,,,,,,MILESTONE 1
BI-1245.110,VS,BI-1245.110-USA_SITE02-0002,39,DIABP,Diastolic Blood Pressure,76.2,mmHg,76.2,76.2,mmHg,,,,,5.0,MONTH 6,TREATMENT,2024-09-26,170,,,,,,MILESTONE 1
BI-1245.110,VS,BI-1245.110-USA_SITE02-0002,40,HEIGHT,Height,152.6,cm,152.6,152.6,cm,,,,,5.0,MONTH 6,TREATMENT,2024-09-26,170,,,,,,MILESTONE 1
BI-1245.110,VS,BI-1245.110-USA_SITE02-0002,41,PULSE,Pulse Rate,75.0,beats/min,75.0,75.0,beats/min,,,,,5.0,MONTH 6,TREATMENT,2024-09-26,170,,,,,,MILESTONE 1
BI-1245.110,VS,BI-1245.110-USA_SITE02-0002,42,RESP,Respiratory Rate,14.8,breaths/min,14.8,14.8,breaths/min,,,,,5.0,MONTH 6,TREATMENT,2024-09-26,170,,,,,,MILESTONE 1
BI-1245.110,VS,BI-1245.110-USA_SITE02-0002,43,SYSBP,Systolic Blood Pressure,130.6,mmHg,130.6,130.6,mmHg,,,,,5.0,MONTH 6,TREATMENT,2024-09-26,170,,,,,,MILESTONE 1
BI-1245.110,VS,BI-1245.110-USA_SITE02-0002,44,TEMP,Temperature,35.8,C,35.8,35.8,C,,,,,5.0,MONTH 6,TREATMENT,2024-09-26,170,,,,,,MILESTONE 1
BI-1245.110,VS,BI-1245.110-USA_SITE02-0002,45,WEIGHT,Weight,103.4,kg,103.4,103.4,kg,,,,,5.0,MONTH 6,TREATMENT,2024-09-26,170,,,,,,MILESTONE 1
BI-1245.110,VS,BI-1245.110-USA_SITE02-0002,46,BMI,BMI,,,44.7,44.7,kg/m2,,,,Y,6.0,MONTH 12,TREATMENT,2025-04-09,365,,,,,,MILESTONE 1
BI-1245.110,VS,BI-1245.110-USA_SITE02-0002,47,DIABP,Diastolic Blood Pressure,80.8,mmHg,80.8,80.8,mmHg,,,,,6.0,MONTH 12,TREATMENT,2025-04-09,365,,,,,,MILESTONE 1
BI-1245.110,VS,BI-1245.110-USA_SITE02-0002,48,HEIGHT,Height,152.5,cm,152.5,152.5,cm,,,,,6.0,MONTH 12,TREATMENT,2025-04-09,365,,,,,,MILESTONE 1
BI-1245.110,VS,BI-1245.110-USA_SITE02-0002,49,PULSE,Pulse Rate,99.4,beats/min,99.4,99.4,beats/min,,,,,6.0,MONTH 12,TREATMENT,2025-04-09,365,,,,,,MILESTONE 1
BI-1245.110,VS,BI-1245.110-USA_SITE02-0002,50,RESP,Respiratory Rate,15.5,breaths/min,15.5,15.5,breaths/min,,,,,6.0,MONTH 12,TREATMENT,2025-04-09,365,,,,,,MILESTONE 1
BI-1245.110,VS,BI-1245.110-USA_SITE02-0002,51,SYSBP,Systolic Blood Pressure,125.0,mmHg,125.0,125.0,mmHg,,,,,6.0,MONTH 12,TREATMENT,2025-04-09,365,,,,,,MILESTONE 1
BI-1245.110,VS,BI-1245.110-USA_SITE02-0002,52,TEMP,Temperature,35.9,C,35.9,35.9,C,,,,,6.0,MONTH 12,TREATMENT,2025-04-09,365,,,,,,MILESTONE 1
BI-1245.110,VS,BI-1245.110-USA_SITE02-0002,53,WEIGHT,Weight,103.9,kg,103.9,103.9,kg,,,,,6.0,MONTH 12,TREATMENT,2025-04-09,365,,,,,,MILESTONE 1
