{"subject_id":"021IGAN17001-GBR_SITE01-0006","study_id":"021IGAN17001","generated_at":"2026-07-07T05:55:05.821365+00:00","sdtmig_version":"3.4","flags":{"has_serious_ae":true,"has_fatal_ae":false,"has_protocol_deviation":true,"n_protocol_deviations":18,"n_adverse_events":23,"n_concomitant_meds":9,"max_ae_severity":"SEVERE","screen_failure":false,"discontinued_early":false,"discontinuation_reason":null,"death":false,"exposure_days":781},"timeline":[{"dtc":"2006-02-21","dy":"-6579","event":"CM START: HYDROCHLOROTHIAZIDE","domain":"CM","category":"concomitant_med"},{"dtc":"2024-01-06","dy":"-51","event":"VISIT: SCREENING","domain":"SV","category":"visit"},{"dtc":"2024-02-17","dy":"-9","event":"INFORMED CONSENT OBTAINED","domain":"DS","category":"milestone"},{"dtc":"2024-02-26","dy":"1","event":"RANDOMIZED","domain":"DS","category":"milestone"},{"dtc":"2024-02-26","dy":"1","event":"FIRST DOSE: IRBESARTAN","domain":"EX","category":"exposure"},{"dtc":"2024-02-26","dy":"1","event":"VISIT: BASELINE","domain":"SV","category":"visit"},{"dtc":"2024-03-09","dy":"13","event":"VISIT: WEEK 2","domain":"SV","category":"visit"},{"dtc":"2024-03-10","dy":"14","event":"AE: Dizziness (MILD)","domain":"AE","category":"adverse_event"},{"dtc":"2024-03-11","dy":"15","event":"AE: Nausea (MILD)","domain":"AE","category":"adverse_event"},{"dtc":"2024-03-18","dy":"22","event":"DEVIATION: MISSED DOSE","domain":"DV","category":"deviation"},{"dtc":"2024-03-28","dy":"32","event":"VISIT: WEEK 4","domain":"SV","category":"visit"},{"dtc":"2024-04-22","dy":"57","event":"DEVIATION: MISSED ASSESSMENT","domain":"DV","category":"deviation"},{"dtc":"2024-04-22","dy":"57","event":"VISIT: WEEK 8","domain":"SV","category":"visit"},{"dtc":"2024-05-04","dy":"69","event":"DEVIATION: MISSED DOSE","domain":"DV","category":"deviation"},{"dtc":"2024-05-05","dy":"70","event":"AE: Hypotension (MILD)","domain":"AE","category":"adverse_event"},{"dtc":"2024-05-06","dy":"71","event":"AE: Oedema peripheral (MODERATE)","domain":"AE","category":"adverse_event"},{"dtc":"2024-05-06","dy":"71","event":"CM START: FUROSEMIDE","domain":"CM","category":"concomitant_med"},{"dtc":"2024-05-17","dy":"82","event":"VISIT: WEEK 12","domain":"SV","category":"visit"},{"dtc":"2024-05-31","dy":"96","event":"AE: Alanine aminotransferase increased (MILD)","domain":"AE","category":"adverse_event"},{"dtc":"2024-06-24","dy":"120","event":"AE: Oedema peripheral (MILD)","domain":"AE","category":"adverse_event"},{"dtc":"2024-06-24","dy":"120","event":"CM START: FUROSEMIDE","domain":"CM","category":"concomitant_med"},{"dtc":"2024-08-11","dy":"168","event":"VISIT: WEEK 24","domain":"SV","category":"visit"},{"dtc":"2024-08-20","dy":"177","event":"AE: Nausea (SEVERE) [SERIOUS]","domain":"AE","category":"adverse_event"},{"dtc":"2024-08-20","dy":"177","event":"CM START: METOCLOPRAMIDE","domain":"CM","category":"concomitant_med"},{"dtc":"2024-09-15","dy":"203","event":"AE: Hyperkalaemia (MILD)","domain":"AE","category":"adverse_event"},{"dtc":"2024-09-15","dy":"203","event":"CM START: SODIUM POLYSTYRENE SULFONATE","domain":"CM","category":"concomitant_med"},{"dtc":"2024-09-24","dy":"212","event":"AE: Nausea (MILD)","domain":"AE","category":"adverse_event"},{"dtc":"2024-09-30","dy":"218","event":"AE: Oedema peripheral (SEVERE) [SERIOUS]","domain":"AE","category":"adverse_event"},{"dtc":"2024-10-08","dy":"226","event":"AE: Oedema peripheral (MILD)","domain":"AE","category":"adverse_event"},{"dtc":"2024-10-08","dy":"226","event":"CM START: FUROSEMIDE","domain":"CM","category":"concomitant_med"},{"dtc":"2024-10-15","dy":"233","event":"AE: Nausea (MILD)","domain":"AE","category":"adverse_event"},{"dtc":"2024-10-29","dy":"247","event":"DEVIATION: VISIT OCCURRED OUTSIDE VISIT WINDOW","domain":"DV","category":"deviation"},{"dtc":"2024-10-29","dy":"247","event":"VISIT: WEEK 36","domain":"SV","category":"visit"},{"dtc":"2024-10-31","dy":"249","event":"DEVIATION: MISSED DOSE","domain":"DV","category":"deviation"},{"dtc":"2024-11-08","dy":"257","event":"AE: Diarrhoea (MODERATE)","domain":"AE","category":"adverse_event"},{"dtc":"2024-11-08","dy":"257","event":"CM START: LOPERAMIDE","domain":"CM","category":"concomitant_med"},{"dtc":"2024-12-08","dy":"287","event":"AE: Oedema peripheral (MODERATE)","domain":"AE","category":"adverse_event"},{"dtc":"2024-12-08","dy":"287","event":"CM START: FUROSEMIDE","domain":"CM","category":"concomitant_med"},{"dtc":"2024-12-13","dy":"292","event":"AE: Hypotension (MILD)","domain":"AE","category":"adverse_event"},{"dtc":"2024-12-20","dy":"299","event":"AE: Headache (MODERATE)","domain":"AE","category":"adverse_event"},{"dtc":"2024-12-22","dy":"301","event":"DEVIATION: MISSED DOSE","domain":"DV","category":"deviation"},{"dtc":"2024-12-23","dy":"302","event":"AE: Headache (MODERATE)","domain":"AE","category":"adverse_event"},{"dtc":"2024-12-23","dy":"302","event":"DEVIATION: DOSE MODIFICATION","domain":"DV","category":"deviation"},{"dtc":"2024-12-23","dy":"302","event":"CM START: IBUPROFEN","domain":"CM","category":"concomitant_med"},{"dtc":"2024-12-29","dy":"308","event":"DEVIATION: MISSED DOSE","domain":"DV","category":"deviation"},{"dtc":"2025-01-04","dy":"314","event":"AE: Oedema peripheral (MILD)","domain":"AE","category":"adverse_event"},{"dtc":"2025-02-08","dy":"349","event":"DEVIATION: MISSED DOSE","domain":"DV","category":"deviation"},{"dtc":"2025-02-18","dy":"359","event":"AE: Hypotension (MODERATE)","domain":"AE","category":"adverse_event"},{"dtc":"2025-03-01","dy":"370","event":"DEVIATION: MISSED DOSE","domain":"DV","category":"deviation"},{"dtc":"2025-03-03","dy":"372","event":"AE: Hypotension (MILD)","domain":"AE","category":"adverse_event"},{"dtc":"2025-03-31","dy":"400","event":"DEVIATION: VISIT OCCURRED OUTSIDE VISIT WINDOW","domain":"DV","category":"deviation"},{"dtc":"2025-03-31","dy":"400","event":"VISIT: WEEK 58","domain":"SV","category":"visit"},{"dtc":"2025-07-19","dy":"510","event":"DEVIATION: MISSED DOSE","domain":"DV","category":"deviation"},{"dtc":"2025-08-06","dy":"528","event":"DEVIATION: MISSED DOSE","domain":"DV","category":"deviation"},{"dtc":"2025-09-03","dy":"556","event":"DEVIATION: MISSED DOSE","domain":"DV","category":"deviation"},{"dtc":"2025-10-03","dy":"586","event":"DEVIATION: VISIT OCCURRED OUTSIDE VISIT WINDOW","domain":"DV","category":"deviation"},{"dtc":"2025-10-03","dy":"586","event":"VISIT: WEEK 84","domain":"SV","category":"visit"},{"dtc":"2025-10-06","dy":"589","event":"AE: Dizziness (MILD)","domain":"AE","category":"adverse_event"},{"dtc":"2025-12-19","dy":"663","event":"DEVIATION: MISSED DOSE","domain":"DV","category":"deviation"},{"dtc":"2026-01-20","dy":"695","event":"AE: Diarrhoea (MILD)","domain":"AE","category":"adverse_event"},{"dtc":"2026-01-22","dy":"697","event":"DEVIATION: MISSED DOSE","domain":"DV","category":"deviation"},{"dtc":"2026-02-04","dy":"710","event":"DEVIATION: MISSED DOSE","domain":"DV","category":"deviation"},{"dtc":"2026-02-16","dy":"722","event":"AE: Fatigue (MILD)","domain":"AE","category":"adverse_event"},{"dtc":"2026-04-11","dy":"776","event":"VISIT: WEEK 110","domain":"SV","category":"visit"},{"dtc":"2026-04-17","dy":"782","event":"LAST DOSE: IRBESARTAN","domain":"EX","category":"exposure"},{"dtc":"2026-05-10","dy":"805","event":"VISIT: WEEK 114 EOT","domain":"SV","category":"visit"},{"dtc":"2026-05-27","dy":"822","event":"VISIT: SAFETY FU","domain":"SV","category":"visit"},{"dtc":"2026-07-12","dy":"868","event":"COMPLETED","domain":"DS","category":"milestone"}],"section_1_demographics":{"usubjid":"021IGAN17001-GBR_SITE01-0006","subjid":"0006","siteid":"GBR_SITE01","age":"18","ageu":"YEARS","sex":"M","race":"ASIAN","ethnicity":"HISPANIC OR LATINO","country":"GBR","arm":"Irbesartan 300 mg QD (active control)","armcd":"IRBESARTAN","actarm":"Irbesartan 300 mg QD (active control)","actarmcd":"IRBESARTAN","randomization_date":null,"informed_consent_date":"2024-02-17","reference_start_date":"2024-02-26","reference_end_date":"2026-07-12","screen_failure":false,"death_flag":null,"death_date":null,"subject_characteristics":[{"testcd":"ALCUSE","test":"Alcohol Use","orres":"NON-DRINKER","stresc":"NON-DRINKER","visit":null,"dtc":"2024-02-17"},{"testcd":"BMI","test":"Body Mass Index","orres":"16.3","stresc":"16.3","visit":null,"dtc":"2024-02-17"},{"testcd":"DURDIS","test":"Duration of Disease","orres":"243 months","stresc":"243","visit":null,"dtc":"2024-02-17"},{"testcd":"TOBUSE","test":"Tobacco Use","orres":"NEVER SMOKED","stresc":"NEVER SMOKED","visit":null,"dtc":"2024-02-17"}]},"section_2_medical_history":{"items":[{"seq":"1","term":"HAEMATURIA","decod":"HAEMATURIA","cat":"RENAL","scat":null,"presp":null,"occur":null,"status":null,"onset_dtc":"2023-02-17","end_dtc":null,"visit":null},{"seq":"2","term":"HYPERTENSION","decod":"HYPERTENSION","cat":"CARDIOVASCULAR","scat":null,"presp":null,"occur":null,"status":null,"onset_dtc":"2006-02-21","end_dtc":null,"visit":null},{"seq":"3","term":"IGA NEPHROPATHY","decod":"IGA NEPHROPATHY","cat":"RENAL","scat":null,"presp":null,"occur":null,"status":null,"onset_dtc":"2016-02-19","end_dtc":"2023-08-22","visit":null},{"seq":"4","term":"PROTEINURIA","decod":"PROTEINURIA","cat":"RENAL","scat":null,"presp":null,"occur":null,"status":null,"onset_dtc":"2004-02-22","end_dtc":"2009-06-25","visit":null},{"seq":"5","term":"RECURRENT UPPER RESPIRATORY TRACT INFECTION","decod":"RECURRENT UPPER RESPIRATORY TRACT INFECTION","cat":"RESPIRATORY","scat":null,"presp":null,"occur":null,"status":null,"onset_dtc":"2020-02-18","end_dtc":"2021-04-09","visit":null}]},"section_3_inclusion_exclusion":{"criteria":[]},"section_4_trial_participation":{"visits":[{"visitnum":"1.0","visit":"SCREENING","start_dtc":"2024-01-06","end_dtc":"2024-01-06","updes":null},{"visitnum":"2.0","visit":"BASELINE","start_dtc":"2024-02-26","end_dtc":"2024-02-26","updes":null},{"visitnum":"3.0","visit":"WEEK 2","start_dtc":"2024-03-09","end_dtc":"2024-03-09","updes":null},{"visitnum":"4.0","visit":"WEEK 4","start_dtc":"2024-03-28","end_dtc":"2024-03-28","updes":null},{"visitnum":"5.0","visit":"WEEK 8","start_dtc":"2024-04-22","end_dtc":"2024-04-22","updes":null},{"visitnum":"6.0","visit":"WEEK 12","start_dtc":"2024-05-17","end_dtc":"2024-05-17","updes":null},{"visitnum":"7.0","visit":"WEEK 24","start_dtc":"2024-08-11","end_dtc":"2024-08-11","updes":null},{"visitnum":"8.0","visit":"WEEK 36","start_dtc":"2024-10-29","end_dtc":"2024-10-29","updes":null},{"visitnum":"9.0","visit":"WEEK 58","start_dtc":"2025-03-31","end_dtc":"2025-03-31","updes":null},{"visitnum":"10.0","visit":"WEEK 84","start_dtc":"2025-10-03","end_dtc":"2025-10-03","updes":null},{"visitnum":"11.0","visit":"WEEK 110","start_dtc":"2026-04-11","end_dtc":"2026-04-11","updes":null},{"visitnum":"12.0","visit":"WEEK 114 EOT","start_dtc":"2026-05-10","end_dtc":"2026-05-10","updes":null},{"visitnum":"13.0","visit":"SAFETY FU","start_dtc":"2026-05-27","end_dtc":"2026-05-27","updes":null}],"epochs":[{"seq":"1","etcd":"SCRN","element":"Screening","start_dtc":"2024-01-15","end_dtc":"2024-02-26","updes":null},{"seq":"2","etcd":"TRT","element":"Treatment (double-blind)","start_dtc":"2024-02-26","end_dtc":"2026-05-04","updes":null},{"seq":"3","etcd":"FU","element":"Safety follow-up","start_dtc":"2026-05-04","end_dtc":"2026-05-31","updes":null}],"visit_count":13},"section_5_concomitant_medications":{"medications":[{"seq":"1","trt":"HYDROCHLOROTHIAZIDE","decod":"HYDROCHLOROTHIAZIDE","cat":"PRIOR","dose":"25","doseu":null,"dosef":"QD","route":"ORAL","indication":"HYPERTENSION","start_dtc":"2006-02-21","end_dtc":"2026-07-12","ongoing":null,"visit":null},{"seq":"2","trt":"FUROSEMIDE","decod":"FUROSEMIDE","cat":"CONCOMITANT","dose":"20.0","doseu":null,"dosef":"QD","route":"ORAL","indication":"OEDEMA PERIPHERAL","start_dtc":"2024-05-06","end_dtc":"2024-06-05","ongoing":null,"visit":null},{"seq":"3","trt":"FUROSEMIDE","decod":"FUROSEMIDE","cat":"CONCOMITANT","dose":"20.0","doseu":null,"dosef":"QD","route":"ORAL","indication":"OEDEMA PERIPHERAL","start_dtc":"2024-06-24","end_dtc":"2024-07-18","ongoing":null,"visit":null},{"seq":"4","trt":"METOCLOPRAMIDE","decod":"METOCLOPRAMIDE","cat":"CONCOMITANT","dose":"10","doseu":null,"dosef":"TID","route":"ORAL","indication":"NAUSEA","start_dtc":"2024-08-20","end_dtc":"2024-08-23","ongoing":null,"visit":null},{"seq":"5","trt":"SODIUM POLYSTYRENE SULFONATE","decod":"SODIUM POLYSTYRENE SULFONATE","cat":"CONCOMITANT","dose":"15.0","doseu":null,"dosef":"QD","route":"ORAL","indication":"HYPERKALAEMIA","start_dtc":"2024-09-15","end_dtc":"2024-09-22","ongoing":null,"visit":null},{"seq":"6","trt":"FUROSEMIDE","decod":"FUROSEMIDE","cat":"CONCOMITANT","dose":"20.0","doseu":null,"dosef":"QD","route":"ORAL","indication":"OEDEMA PERIPHERAL","start_dtc":"2024-10-08","end_dtc":"2024-10-19","ongoing":null,"visit":null},{"seq":"7","trt":"LOPERAMIDE","decod":"LOPERAMIDE","cat":"CONCOMITANT","dose":"2","doseu":null,"dosef":"PRN","route":"ORAL","indication":"DIARRHOEA","start_dtc":"2024-11-08","end_dtc":"2024-11-28","ongoing":null,"visit":null},{"seq":"8","trt":"FUROSEMIDE","decod":"FUROSEMIDE","cat":"CONCOMITANT","dose":"20.0","doseu":null,"dosef":"QD","route":"ORAL","indication":"OEDEMA PERIPHERAL","start_dtc":"2024-12-08","end_dtc":"2024-12-12","ongoing":null,"visit":null},{"seq":"9","trt":"IBUPROFEN","decod":"IBUPROFEN","cat":"CONCOMITANT","dose":"400","doseu":null,"dosef":"PRN","route":"ORAL","indication":"HEADACHE","start_dtc":"2024-12-23","end_dtc":"2024-12-29","ongoing":null,"visit":null}]},"section_6_exposure":{"exposure_as_administered":[{"seq":"1","trt":"IRBESARTAN","dose":"300.0","doseu":null,"dosef":"QD","route":"ORAL","lot":null,"start_dtc":"2024-02-26","end_dtc":"2024-12-07","start_dy":"1","end_dy":"286","epoch":"TREATMENT","visit":null},{"seq":"2","trt":"IRBESARTAN","dose":"300.0","doseu":null,"dosef":"QD","route":"ORAL","lot":null,"start_dtc":"2024-12-13","end_dtc":"2024-12-22","start_dy":"292","end_dy":"301","epoch":"TREATMENT","visit":null},{"seq":"3","trt":"IRBESARTAN","dose":"150.0","doseu":null,"dosef":"QD","route":"ORAL","lot":null,"start_dtc":"2024-12-23","end_dtc":"2025-02-17","start_dy":"302","end_dy":"358","epoch":"TREATMENT","visit":null},{"seq":"4","trt":"IRBESARTAN","dose":"150.0","doseu":null,"dosef":"QD","route":"ORAL","lot":null,"start_dtc":"2025-02-18","end_dtc":"2026-04-17","start_dy":"359","end_dy":"782","epoch":"TREATMENT","visit":null}],"exposure_as_collected":[{"seq":"1","trt":"IRBESARTAN","dose":"300.0","doseu":null,"dosef":"QD","route":"ORAL","start_dtc":"2024-02-26","end_dtc":"2024-02-26","visit":"BASELINE"},{"seq":"2","trt":"IRBESARTAN","dose":"300.0","doseu":null,"dosef":"QD","route":"ORAL","start_dtc":"2024-02-27","end_dtc":"2024-02-27","visit":"BASELINE"},{"seq":"3","trt":"IRBESARTAN","dose":"300.0","doseu":null,"dosef":"QD","route":"ORAL","start_dtc":"2024-02-28","end_dtc":"2024-02-28","visit":"BASELINE"},{"seq":"4","trt":"IRBESARTAN","dose":"300.0","doseu":null,"dosef":"QD","route":"ORAL","start_dtc":"2024-02-29","end_dtc":"2024-02-29","visit":"BASELINE"},{"seq":"5","trt":"IRBESARTAN","dose":"300.0","doseu":null,"dosef":"QD","route":"ORAL","start_dtc":"2024-03-01","end_dtc":"2024-03-01","visit":null},{"seq":"6","trt":"IRBESARTAN","dose":"300.0","doseu":null,"dosef":"QD","route":"ORAL","start_dtc":"2024-03-02","end_dtc":"2024-03-02","visit":null},{"seq":"7","trt":"IRBESARTAN","dose":"300.0","doseu":null,"dosef":"QD","route":"ORAL","start_dtc":"2024-03-03","end_dtc":"2024-03-03","visit":null},{"seq":"8","trt":"IRBESARTAN","dose":"300.0","doseu":null,"dosef":"QD","route":"ORAL","start_dtc":"2024-03-04","end_dtc":"2024-03-04","visit":null},{"seq":"9","trt":"IRBESARTAN","dose":"300.0","doseu":null,"dosef":"QD","route":"ORAL","start_dtc":"2024-03-05","end_dtc":"2024-03-05","visit":null},{"seq":"10","trt":"IRBESARTAN","dose":"300.0","doseu":null,"dosef":"QD","route":"ORAL","start_dtc":"2024-03-06","end_dtc":"2024-03-06","visit":null},{"seq":"11","trt":"IRBESARTAN","dose":"300.0","doseu":null,"dosef":"QD","route":"ORAL","start_dtc":"2024-03-07","end_dtc":"2024-03-07","visit":null},{"seq":"12","trt":"IRBESARTAN","dose":"300.0","doseu":null,"dosef":"QD","route":"ORAL","start_dtc":"2024-03-08","end_dtc":"2024-03-08","visit":"WEEK 2"},{"seq":"13","trt":"IRBESARTAN","dose":"300.0","doseu":null,"dosef":"QD","route":"ORAL","start_dtc":"2024-03-09","end_dtc":"2024-03-09","visit":"WEEK 2"},{"seq":"14","trt":"IRBESARTAN","dose":"300.0","doseu":null,"dosef":"QD","route":"ORAL","start_dtc":"2024-03-10","end_dtc":"2024-03-10","visit":"WEEK 2"},{"seq":"15","trt":"IRBESARTAN","dose":"300.0","doseu":null,"dosef":"QD","route":"ORAL","start_dtc":"2024-03-11","end_dtc":"2024-03-11","visit":"WEEK 2"},{"seq":"16","trt":"IRBESARTAN","dose":"300.0","doseu":null,"dosef":"QD","route":"ORAL","start_dtc":"2024-03-12","end_dtc":"2024-03-12","visit":"WEEK 2"},{"seq":"17","trt":"IRBESARTAN","dose":"300.0","doseu":null,"dosef":"QD","route":"ORAL","start_dtc":"2024-03-13","end_dtc":"2024-03-13","visit":"WEEK 2"},{"seq":"18","trt":"IRBESARTAN","dose":"300.0","doseu":null,"dosef":"QD","route":"ORAL","start_dtc":"2024-03-14","end_dtc":"2024-03-14","visit":"WEEK 2"},{"seq":"19","trt":"IRBESARTAN","dose":"300.0","doseu":null,"dosef":"QD","route":"ORAL","start_dtc":"2024-03-15","end_dtc":"2024-03-15","visit":null},{"seq":"20","trt":"IRBESARTAN","dose":"300.0","doseu":null,"dosef":"QD","route":"ORAL","start_dtc":"2024-03-16","end_dtc":"2024-03-16","visit":null},{"seq":"21","trt":"IRBESARTAN","dose":"300.0","doseu":null,"dosef":"QD","route":"ORAL","start_dtc":"2024-03-17","end_dtc":"2024-03-17","visit":null},{"seq":"22","trt":"IRBESARTAN","dose":null,"doseu":null,"dosef":"QD","route":"ORAL","start_dtc":"2024-03-18","end_dtc":"2024-03-18","visit":null},{"seq":"23","trt":"IRBESARTAN","dose":"300.0","doseu":null,"dosef":"QD","route":"ORAL","start_dtc":"2024-03-19","end_dtc":"2024-03-19","visit":null},{"seq":"24","trt":"IRBESARTAN","dose":"300.0","doseu":null,"dosef":"QD","route":"ORAL","start_dtc":"2024-03-20","end_dtc":"2024-03-20","visit":null},{"seq":"25","trt":"IRBESARTAN","dose":"300.0","doseu":null,"dosef":"QD","route":"ORAL","start_dtc":"2024-03-21","end_dtc":"2024-03-21","visit":null},{"seq":"26","trt":"IRBESARTAN","dose":"300.0","doseu":null,"dosef":"QD","route":"ORAL","start_dtc":"2024-03-22","end_dtc":"2024-03-22","visit":"WEEK 4"},{"seq":"27","trt":"IRBESARTAN","dose":"300.0","doseu":null,"dosef":"QD","route":"ORAL","start_dtc":"2024-03-23","end_dtc":"2024-03-23","visit":"WEEK 4"},{"seq":"28","trt":"IRBESARTAN","dose":"300.0","doseu":null,"dosef":"QD","route":"ORAL","start_dtc":"2024-03-24","end_dtc":"2024-03-24","visit":"WEEK 4"},{"seq":"29","trt":"IRBESARTAN","dose":"300.0","doseu":null,"dosef":"QD","route":"ORAL","start_dtc":"2024-03-25","end_dtc":"2024-03-25","visit":"WEEK 4"},{"seq":"30","trt":"IRBESARTAN","dose":"300.0","doseu":null,"dosef":"QD","route":"ORAL","start_dtc":"2024-03-26","end_dtc":"2024-03-26","visit":"WEEK 4"},{"seq":"31","trt":"IRBESARTAN","dose":"300.0","doseu":null,"dosef":"QD","route":"ORAL","start_dtc":"2024-03-27","end_dtc":"2024-03-27","visit":"WEEK 4"},{"seq":"32","trt":"IRBESARTAN","dose":"300.0","doseu":null,"dosef":"QD","route":"ORAL","start_dtc":"2024-03-28","end_dtc":"2024-03-28","visit":"WEEK 4"},{"seq":"33","trt":"IRBESARTAN","dose":"300.0","doseu":null,"dosef":"QD","route":"ORAL","start_dtc":"2024-03-29","end_dtc":"2024-03-29","visit":null},{"seq":"34","trt":"IRBESARTAN","dose":"300.0","doseu":null,"dosef":"QD","route":"ORAL","start_dtc":"2024-03-30","end_dtc":"2024-03-30","visit":null},{"seq":"35","trt":"IRBESARTAN","dose":"300.0","doseu":null,"dosef":"QD","route":"ORAL","start_dtc":"2024-03-31","end_dtc":"2024-03-31","visit":null},{"seq":"36","trt":"IRBESARTAN","dose":"300.0","doseu":null,"dosef":"QD","route":"ORAL","start_dtc":"2024-04-01","end_dtc":"2024-04-01","visit":null},{"seq":"37","trt":"IRBESARTAN","dose":"300.0","doseu":null,"dosef":"QD","route":"ORAL","start_dtc":"2024-04-02","end_dtc":"2024-04-02","visit":null},{"seq":"38","trt":"IRBESARTAN","dose":"300.0","doseu":null,"dosef":"QD","route":"ORAL","start_dtc":"2024-04-03","end_dtc":"2024-04-03","visit":null},{"seq":"39","trt":"IRBESARTAN","dose":"300.0","doseu":null,"dosef":"QD","route":"ORAL","start_dtc":"2024-04-04","end_dtc":"2024-04-04","visit":null},{"seq":"40","trt":"IRBESARTAN","dose":"300.0","doseu":null,"dosef":"QD","route":"ORAL","start_dtc":"2024-04-05","end_dtc":"2024-04-05","visit":null},{"seq":"41","trt":"IRBESARTAN","dose":"300.0","doseu":null,"dosef":"QD","route":"ORAL","start_dtc":"2024-04-06","end_dtc":"2024-04-06","visit":null},{"seq":"42","trt":"IRBESARTAN","dose":"300.0","doseu":null,"dosef":"QD","route":"ORAL","start_dtc":"2024-04-07","end_dtc":"2024-04-07","visit":null},{"seq":"43","trt":"IRBESARTAN","dose":"300.0","doseu":null,"dosef":"QD","route":"ORAL","start_dtc":"2024-04-08","end_dtc":"2024-04-08","visit":null},{"seq":"44","trt":"IRBESARTAN","dose":"300.0","doseu":null,"dosef":"QD","route":"ORAL","start_dtc":"2024-04-09","end_dtc":"2024-04-09","visit":null},{"seq":"45","trt":"IRBESARTAN","dose":"300.0","doseu":null,"dosef":"QD","route":"ORAL","start_dtc":"2024-04-10","end_dtc":"2024-04-10","visit":null},{"seq":"46","trt":"IRBESARTAN","dose":"300.0","doseu":null,"dosef":"QD","route":"ORAL","start_dtc":"2024-04-11","end_dtc":"2024-04-11","visit":null},{"seq":"47","trt":"IRBESARTAN","dose":"300.0","doseu":null,"dosef":"QD","route":"ORAL","start_dtc":"2024-04-12","end_dtc":"2024-04-12","visit":null},{"seq":"48","trt":"IRBESARTAN","dose":"300.0","doseu":null,"dosef":"QD","route":"ORAL","start_dtc":"2024-04-13","end_dtc":"2024-04-13","visit":null},{"seq":"49","trt":"IRBESARTAN","dose":"300.0","doseu":null,"dosef":"QD","route":"ORAL","start_dtc":"2024-04-14","end_dtc":"2024-04-14","visit":null},{"seq":"50","trt":"IRBESARTAN","dose":"300.0","doseu":null,"dosef":"QD","route":"ORAL","start_dtc":"2024-04-15","end_dtc":"2024-04-15","visit":null},{"seq":"51","trt":"IRBESARTAN","dose":"300.0","doseu":null,"dosef":"QD","route":"ORAL","start_dtc":"2024-04-16","end_dtc":"2024-04-16","visit":null},{"seq":"52","trt":"IRBESARTAN","dose":"300.0","doseu":null,"dosef":"QD","route":"ORAL","start_dtc":"2024-04-17","end_dtc":"2024-04-17","visit":null},{"seq":"53","trt":"IRBESARTAN","dose":"300.0","doseu":null,"dosef":"QD","route":"ORAL","start_dtc":"2024-04-18","end_dtc":"2024-04-18","visit":null},{"seq":"54","trt":"IRBESARTAN","dose":"300.0","doseu":null,"dosef":"QD","route":"ORAL","start_dtc":"2024-04-19","end_dtc":"2024-04-19","visit":"WEEK 8"},{"seq":"55","trt":"IRBESARTAN","dose":"300.0","doseu":null,"dosef":"QD","route":"ORAL","start_dtc":"2024-04-20","end_dtc":"2024-04-20","visit":"WEEK 8"},{"seq":"56","trt":"IRBESARTAN","dose":"300.0","doseu":null,"dosef":"QD","route":"ORAL","start_dtc":"2024-04-21","end_dtc":"2024-04-21","visit":"WEEK 8"},{"seq":"57","trt":"IRBESARTAN","dose":"300.0","doseu":null,"dosef":"QD","route":"ORAL","start_dtc":"2024-04-22","end_dtc":"2024-04-22","visit":"WEEK 8"},{"seq":"58","trt":"IRBESARTAN","dose":"300.0","doseu":null,"dosef":"QD","route":"ORAL","start_dtc":"2024-04-23","end_dtc":"2024-04-23","visit":"WEEK 8"},{"seq":"59","trt":"IRBESARTAN","dose":"300.0","doseu":null,"dosef":"QD","route":"ORAL","start_dtc":"2024-04-24","end_dtc":"2024-04-24","visit":"WEEK 8"},{"seq":"60","trt":"IRBESARTAN","dose":"300.0","doseu":null,"dosef":"QD","route":"ORAL","start_dtc":"2024-04-25","end_dtc":"2024-04-25","visit":"WEEK 8"},{"seq":"61","trt":"IRBESARTAN","dose":"300.0","doseu":null,"dosef":"QD","route":"ORAL","start_dtc":"2024-04-26","end_dtc":"2024-04-26","visit":null},{"seq":"62","trt":"IRBESARTAN","dose":"300.0","doseu":null,"dosef":"QD","route":"ORAL","start_dtc":"2024-04-27","end_dtc":"2024-04-27","visit":null},{"seq":"63","trt":"IRBESARTAN","dose":"300.0","doseu":null,"dosef":"QD","route":"ORAL","start_dtc":"2024-04-28","end_dtc":"2024-04-28","visit":null},{"seq":"64","trt":"IRBESARTAN","dose":"300.0","doseu":null,"dosef":"QD","route":"ORAL","start_dtc":"2024-04-29","end_dtc":"2024-04-29","visit":null},{"seq":"65","trt":"IRBESARTAN","dose":"300.0","doseu":null,"dosef":"QD","route":"ORAL","start_dtc":"2024-04-30","end_dtc":"2024-04-30","visit":null},{"seq":"66","trt":"IRBESARTAN","dose":"300.0","doseu":null,"dosef":"QD","route":"ORAL","start_dtc":"2024-05-01","end_dtc":"2024-05-01","visit":null},{"seq":"67","trt":"IRBESARTAN","dose":"300.0","doseu":null,"dosef":"QD","route":"ORAL","start_dtc":"2024-05-02","end_dtc":"2024-05-02","visit":null},{"seq":"68","trt":"IRBESARTAN","dose":"300.0","doseu":null,"dosef":"QD","route":"ORAL","start_dtc":"2024-05-03","end_dtc":"2024-05-03","visit":null},{"seq":"69","trt":"IRBESARTAN","dose":null,"doseu":null,"dosef":"QD","route":"ORAL","start_dtc":"2024-05-04","end_dtc":"2024-05-04","visit":null},{"seq":"70","trt":"IRBESARTAN","dose":"300.0","doseu":null,"dosef":"QD","route":"ORAL","start_dtc":"2024-05-05","end_dtc":"2024-05-05","visit":null},{"seq":"71","trt":"IRBESARTAN","dose":"300.0","doseu":null,"dosef":"QD","route":"ORAL","start_dtc":"2024-05-06","end_dtc":"2024-05-06","visit":null},{"seq":"72","trt":"IRBESARTAN","dose":"300.0","doseu":null,"dosef":"QD","route":"ORAL","start_dtc":"2024-05-07","end_dtc":"2024-05-07","visit":null},{"seq":"73","trt":"IRBESARTAN","dose":"300.0","doseu":null,"dosef":"QD","route":"ORAL","start_dtc":"2024-05-08","end_dtc":"2024-05-08","visit":null},{"seq":"74","trt":"IRBESARTAN","dose":"300.0","doseu":null,"dosef":"QD","route":"ORAL","start_dtc":"2024-05-09","end_dtc":"2024-05-09","visit":null},{"seq":"75","trt":"IRBESARTAN","dose":"300.0","doseu":null,"dosef":"QD","route":"ORAL","start_dtc":"2024-05-10","end_dtc":"2024-05-10","visit":null},{"seq":"76","trt":"IRBESARTAN","dose":"300.0","doseu":null,"dosef":"QD","route":"ORAL","start_dtc":"2024-05-11","end_dtc":"2024-05-11","visit":null},{"seq":"77","trt":"IRBESARTAN","dose":"300.0","doseu":null,"dosef":"QD","route":"ORAL","start_dtc":"2024-05-12","end_dtc":"2024-05-12","visit":null},{"seq":"78","trt":"IRBESARTAN","dose":"300.0","doseu":null,"dosef":"QD","route":"ORAL","start_dtc":"2024-05-13","end_dtc":"2024-05-13","visit":null},{"seq":"79","trt":"IRBESARTAN","dose":"300.0","doseu":null,"dosef":"QD","route":"ORAL","start_dtc":"2024-05-14","end_dtc":"2024-05-14","visit":null},{"seq":"80","trt":"IRBESARTAN","dose":"300.0","doseu":null,"dosef":"QD","route":"ORAL","start_dtc":"2024-05-15","end_dtc":"2024-05-15","visit":null},{"seq":"81","trt":"IRBESARTAN","dose":"300.0","doseu":null,"dosef":"QD","route":"ORAL","start_dtc":"2024-05-16","end_dtc":"2024-05-16","visit":null},{"seq":"82","trt":"IRBESARTAN","dose":"300.0","doseu":null,"dosef":"QD","route":"ORAL","start_dtc":"2024-05-17","end_dtc":"2024-05-17","visit":"WEEK 12"},{"seq":"83","trt":"IRBESARTAN","dose":"300.0","doseu":null,"dosef":"QD","route":"ORAL","start_dtc":"2024-05-18","end_dtc":"2024-05-18","visit":"WEEK 12"},{"seq":"84","trt":"IRBESARTAN","dose":"300.0","doseu":null,"dosef":"QD","route":"ORAL","start_dtc":"2024-05-19","end_dtc":"2024-05-19","visit":"WEEK 12"},{"seq":"85","trt":"IRBESARTAN","dose":"300.0","doseu":null,"dosef":"QD","route":"ORAL","start_dtc":"2024-05-20","end_dtc":"2024-05-20","visit":"WEEK 12"},{"seq":"86","trt":"IRBESARTAN","dose":"300.0","doseu":null,"dosef":"QD","route":"ORAL","start_dtc":"2024-05-21","end_dtc":"2024-05-21","visit":"WEEK 12"},{"seq":"87","trt":"IRBESARTAN","dose":"300.0","doseu":null,"dosef":"QD","route":"ORAL","start_dtc":"2024-05-22","end_dtc":"2024-05-22","visit":"WEEK 12"},{"seq":"88","trt":"IRBESARTAN","dose":"300.0","doseu":null,"dosef":"QD","route":"ORAL","start_dtc":"2024-05-23","end_dtc":"2024-05-23","visit":"WEEK 12"},{"seq":"89","trt":"IRBESARTAN","dose":"300.0","doseu":null,"dosef":"QD","route":"ORAL","start_dtc":"2024-05-24","end_dtc":"2024-05-24","visit":null},{"seq":"90","trt":"IRBESARTAN","dose":"300.0","doseu":null,"dosef":"QD","route":"ORAL","start_dtc":"2024-05-25","end_dtc":"2024-05-25","visit":null},{"seq":"91","trt":"IRBESARTAN","dose":"300.0","doseu":null,"dosef":"QD","route":"ORAL","start_dtc":"2024-05-26","end_dtc":"2024-05-26","visit":null},{"seq":"92","trt":"IRBESARTAN","dose":"300.0","doseu":null,"dosef":"QD","route":"ORAL","start_dtc":"2024-05-27","end_dtc":"2024-05-27","visit":null},{"seq":"93","trt":"IRBESARTAN","dose":"300.0","doseu":null,"dosef":"QD","route":"ORAL","start_dtc":"2024-05-28","end_dtc":"2024-05-28","visit":null},{"seq":"94","trt":"IRBESARTAN","dose":"300.0","doseu":null,"dosef":"QD","route":"ORAL","start_dtc":"2024-05-29","end_dtc":"2024-05-29","visit":null},{"seq":"95","trt":"IRBESARTAN","dose":"300.0","doseu":null,"dosef":"QD","route":"ORAL","start_dtc":"2024-05-30","end_dtc":"2024-05-30","visit":null},{"seq":"96","trt":"IRBESARTAN","dose":"300.0","doseu":null,"dosef":"QD","route":"ORAL","start_dtc":"2024-05-31","end_dtc":"2024-05-31","visit":null},{"seq":"97","trt":"IRBESARTAN","dose":"300.0","doseu":null,"dosef":"QD","route":"ORAL","start_dtc":"2024-06-01","end_dtc":"2024-06-01","visit":null},{"seq":"98","trt":"IRBESARTAN","dose":"300.0","doseu":null,"dosef":"QD","route":"ORAL","start_dtc":"2024-06-02","end_dtc":"2024-06-02","visit":null},{"seq":"99","trt":"IRBESARTAN","dose":"300.0","doseu":null,"dosef":"QD","route":"ORAL","start_dtc":"2024-06-03","end_dtc":"2024-06-03","visit":null},{"seq":"100","trt":"IRBESARTAN","dose":"300.0","doseu":null,"dosef":"QD","route":"ORAL","start_dtc":"2024-06-04","end_dtc":"2024-06-04","visit":null},{"seq":"101","trt":"IRBESARTAN","dose":"300.0","doseu":null,"dosef":"QD","route":"ORAL","start_dtc":"2024-06-05","end_dtc":"2024-06-05","visit":null},{"seq":"102","trt":"IRBESARTAN","dose":"300.0","doseu":null,"dosef":"QD","route":"ORAL","start_dtc":"2024-06-06","end_dtc":"2024-06-06","visit":null},{"seq":"103","trt":"IRBESARTAN","dose":"300.0","doseu":null,"dosef":"QD","route":"ORAL","start_dtc":"2024-06-07","end_dtc":"2024-06-07","visit":null},{"seq":"104","trt":"IRBESARTAN","dose":"300.0","doseu":null,"dosef":"QD","route":"ORAL","start_dtc":"2024-06-08","end_dtc":"2024-06-08","visit":null},{"seq":"105","trt":"IRBESARTAN","dose":"300.0","doseu":null,"dosef":"QD","route":"ORAL","start_dtc":"2024-06-09","end_dtc":"2024-06-09","visit":null},{"seq":"106","trt":"IRBESARTAN","dose":"300.0","doseu":null,"dosef":"QD","route":"ORAL","start_dtc":"2024-06-10","end_dtc":"2024-06-10","visit":null},{"seq":"107","trt":"IRBESARTAN","dose":"300.0","doseu":null,"dosef":"QD","route":"ORAL","start_dtc":"2024-06-11","end_dtc":"2024-06-11","visit":null},{"seq":"108","trt":"IRBESARTAN","dose":"300.0","doseu":null,"dosef":"QD","route":"ORAL","start_dtc":"2024-06-12","end_dtc":"2024-06-12","visit":null},{"seq":"109","trt":"IRBESARTAN","dose":"300.0","doseu":null,"dosef":"QD","route":"ORAL","start_dtc":"2024-06-13","end_dtc":"2024-06-13","visit":null},{"seq":"110","trt":"IRBESARTAN","dose":"300.0","doseu":null,"dosef":"QD","route":"ORAL","start_dtc":"2024-06-14","end_dtc":"2024-06-14","visit":null},{"seq":"111","trt":"IRBESARTAN","dose":"300.0","doseu":null,"dosef":"QD","route":"ORAL","start_dtc":"2024-06-15","end_dtc":"2024-06-15","visit":null},{"seq":"112","trt":"IRBESARTAN","dose":"300.0","doseu":null,"dosef":"QD","route":"ORAL","start_dtc":"2024-06-16","end_dtc":"2024-06-16","visit":null},{"seq":"113","trt":"IRBESARTAN","dose":"300.0","doseu":null,"dosef":"QD","route":"ORAL","start_dtc":"2024-06-17","end_dtc":"2024-06-17","visit":null},{"seq":"114","trt":"IRBESARTAN","dose":"300.0","doseu":null,"dosef":"QD","route":"ORAL","start_dtc":"2024-06-18","end_dtc":"2024-06-18","visit":null},{"seq":"115","trt":"IRBESARTAN","dose":"300.0","doseu":null,"dosef":"QD","route":"ORAL","start_dtc":"2024-06-19","end_dtc":"2024-06-19","visit":null},{"seq":"116","trt":"IRBESARTAN","dose":"300.0","doseu":null,"dosef":"QD","route":"ORAL","start_dtc":"2024-06-20","end_dtc":"2024-06-20","visit":null},{"seq":"117","trt":"IRBESARTAN","dose":"300.0","doseu":null,"dosef":"QD","route":"ORAL","start_dtc":"2024-06-21","end_dtc":"2024-06-21","visit":null},{"seq":"118","trt":"IRBESARTAN","dose":"300.0","doseu":null,"dosef":"QD","route":"ORAL","start_dtc":"2024-06-22","end_dtc":"2024-06-22","visit":null},{"seq":"119","trt":"IRBESARTAN","dose":"300.0","doseu":null,"dosef":"QD","route":"ORAL","start_dtc":"2024-06-23","end_dtc":"2024-06-23","visit":null},{"seq":"120","trt":"IRBESARTAN","dose":"300.0","doseu":null,"dosef":"QD","route":"ORAL","start_dtc":"2024-06-24","end_dtc":"2024-06-24","visit":null},{"seq":"121","trt":"IRBESARTAN","dose":"300.0","doseu":null,"dosef":"QD","route":"ORAL","start_dtc":"2024-06-25","end_dtc":"2024-06-25","visit":null},{"seq":"122","trt":"IRBESARTAN","dose":"300.0","doseu":null,"dosef":"QD","route":"ORAL","start_dtc":"2024-06-26","end_dtc":"2024-06-26","visit":null},{"seq":"123","trt":"IRBESARTAN","dose":"300.0","doseu":null,"dosef":"QD","route":"ORAL","start_dtc":"2024-06-27","end_dtc":"2024-06-27","visit":null},{"seq":"124","trt":"IRBESARTAN","dose":"300.0","doseu":null,"dosef":"QD","route":"ORAL","start_dtc":"2024-06-28","end_dtc":"2024-06-28","visit":null},{"seq":"125","trt":"IRBESARTAN","dose":"300.0","doseu":null,"dosef":"QD","route":"ORAL","start_dtc":"2024-06-29","end_dtc":"2024-06-29","visit":null},{"seq":"126","trt":"IRBESARTAN","dose":"300.0","doseu":null,"dosef":"QD","route":"ORAL","start_dtc":"2024-06-30","end_dtc":"2024-06-30","visit":null},{"seq":"127","trt":"IRBESARTAN","dose":"300.0","doseu":null,"dosef":"QD","route":"ORAL","start_dtc":"2024-07-01","end_dtc":"2024-07-01","visit":null},{"seq":"128","trt":"IRBESARTAN","dose":"300.0","doseu":null,"dosef":"QD","route":"ORAL","start_dtc":"2024-07-02","end_dtc":"2024-07-02","visit":null},{"seq":"129","trt":"IRBESARTAN","dose":"300.0","doseu":null,"dosef":"QD","route":"ORAL","start_dtc":"2024-07-03","end_dtc":"2024-07-03","visit":null},{"seq":"130","trt":"IRBESARTAN","dose":"300.0","doseu":null,"dosef":"QD","route":"ORAL","start_dtc":"2024-07-04","end_dtc":"2024-07-04","visit":null},{"seq":"131","trt":"IRBESARTAN","dose":"300.0","doseu":null,"dosef":"QD","route":"ORAL","start_dtc":"2024-07-05","end_dtc":"2024-07-05","visit":null},{"seq":"132","trt":"IRBESARTAN","dose":"300.0","doseu":null,"dosef":"QD","route":"ORAL","start_dtc":"2024-07-06","end_dtc":"2024-07-06","visit":null},{"seq":"133","trt":"IRBESARTAN","dose":"300.0","doseu":null,"dosef":"QD","route":"ORAL","start_dtc":"2024-07-07","end_dtc":"2024-07-07","visit":null},{"seq":"134","trt":"IRBESARTAN","dose":"300.0","doseu":null,"dosef":"QD","route":"ORAL","start_dtc":"2024-07-08","end_dtc":"2024-07-08","visit":null},{"seq":"135","trt":"IRBESARTAN","dose":"300.0","doseu":null,"dosef":"QD","route":"ORAL","start_dtc":"2024-07-09","end_dtc":"2024-07-09","visit":null},{"seq":"136","trt":"IRBESARTAN","dose":"300.0","doseu":null,"dosef":"QD","route":"ORAL","start_dtc":"2024-07-10","end_dtc":"2024-07-10","visit":null},{"seq":"137","trt":"IRBESARTAN","dose":"300.0","doseu":null,"dosef":"QD","route":"ORAL","start_dtc":"2024-07-11","end_dtc":"2024-07-11","visit":null},{"seq":"138","trt":"IRBESARTAN","dose":"300.0","doseu":null,"dosef":"QD","route":"ORAL","start_dtc":"2024-07-12","end_dtc":"2024-07-12","visit":null},{"seq":"139","trt":"IRBESARTAN","dose":"300.0","doseu":null,"dosef":"QD","route":"ORAL","start_dtc":"2024-07-13","end_dtc":"2024-07-13","visit":null},{"seq":"140","trt":"IRBESARTAN","dose":"300.0","doseu":null,"dosef":"QD","route":"ORAL","start_dtc":"2024-07-14","end_dtc":"2024-07-14","visit":null},{"seq":"141","trt":"IRBESARTAN","dose":"300.0","doseu":null,"dosef":"QD","route":"ORAL","start_dtc":"2024-07-15","end_dtc":"2024-07-15","visit":null},{"seq":"142","trt":"IRBESARTAN","dose":"300.0","doseu":null,"dosef":"QD","route":"ORAL","start_dtc":"2024-07-16","end_dtc":"2024-07-16","visit":null},{"seq":"143","trt":"IRBESARTAN","dose":"300.0","doseu":null,"dosef":"QD","route":"ORAL","start_dtc":"2024-07-17","end_dtc":"2024-07-17","visit":null},{"seq":"144","trt":"IRBESARTAN","dose":"300.0","doseu":null,"dosef":"QD","route":"ORAL","start_dtc":"2024-07-18","end_dtc":"2024-07-18","visit":null},{"seq":"145","trt":"IRBESARTAN","dose":"300.0","doseu":null,"dosef":"QD","route":"ORAL","start_dtc":"2024-07-19","end_dtc":"2024-07-19","visit":null},{"seq":"146","trt":"IRBESARTAN","dose":"300.0","doseu":null,"dosef":"QD","route":"ORAL","start_dtc":"2024-07-20","end_dtc":"2024-07-20","visit":null},{"seq":"147","trt":"IRBESARTAN","dose":"300.0","doseu":null,"dosef":"QD","route":"ORAL","start_dtc":"2024-07-21","end_dtc":"2024-07-21","visit":null},{"seq":"148","trt":"IRBESARTAN","dose":"300.0","doseu":null,"dosef":"QD","route":"ORAL","start_dtc":"2024-07-22","end_dtc":"2024-07-22","visit":null},{"seq":"149","trt":"IRBESARTAN","dose":"300.0","doseu":null,"dosef":"QD","route":"ORAL","start_dtc":"2024-07-23","end_dtc":"2024-07-23","visit":null},{"seq":"150","trt":"IRBESARTAN","dose":"300.0","doseu":null,"dosef":"QD","route":"ORAL","start_dtc":"2024-07-24","end_dtc":"2024-07-24","visit":null},{"seq":"151","trt":"IRBESARTAN","dose":"300.0","doseu":null,"dosef":"QD","route":"ORAL","start_dtc":"2024-07-25","end_dtc":"2024-07-25","visit":null},{"seq":"152","trt":"IRBESARTAN","dose":"300.0","doseu":null,"dosef":"QD","route":"ORAL","start_dtc":"2024-07-26","end_dtc":"2024-07-26","visit":null},{"seq":"153","trt":"IRBESARTAN","dose":"300.0","doseu":null,"dosef":"QD","route":"ORAL","start_dtc":"2024-07-27","end_dtc":"2024-07-27","visit":null},{"seq":"154","trt":"IRBESARTAN","dose":"300.0","doseu":null,"dosef":"QD","route":"ORAL","start_dtc":"2024-07-28","end_dtc":"2024-07-28","visit":null},{"seq":"155","trt":"IRBESARTAN","dose":"300.0","doseu":null,"dosef":"QD","route":"ORAL","start_dtc":"2024-07-29","end_dtc":"2024-07-29","visit":null},{"seq":"156","trt":"IRBESARTAN","dose":"300.0","doseu":null,"dosef":"QD","route":"ORAL","start_dtc":"2024-07-30","end_dtc":"2024-07-30","visit":null},{"seq":"157","trt":"IRBESARTAN","dose":"300.0","doseu":null,"dosef":"QD","route":"ORAL","start_dtc":"2024-07-31","end_dtc":"2024-07-31","visit":null},{"seq":"158","trt":"IRBESARTAN","dose":"300.0","doseu":null,"dosef":"QD","route":"ORAL","start_dtc":"2024-08-01","end_dtc":"2024-08-01","visit":null},{"seq":"159","trt":"IRBESARTAN","dose":"300.0","doseu":null,"dosef":"QD","route":"ORAL","start_dtc":"2024-08-02","end_dtc":"2024-08-02","visit":null},{"seq":"160","trt":"IRBESARTAN","dose":"300.0","doseu":null,"dosef":"QD","route":"ORAL","start_dtc":"2024-08-03","end_dtc":"2024-08-03","visit":null},{"seq":"161","trt":"IRBESARTAN","dose":"300.0","doseu":null,"dosef":"QD","route":"ORAL","start_dtc":"2024-08-04","end_dtc":"2024-08-04","visit":null},{"seq":"162","trt":"IRBESARTAN","dose":"300.0","doseu":null,"dosef":"QD","route":"ORAL","start_dtc":"2024-08-05","end_dtc":"2024-08-05","visit":null},{"seq":"163","trt":"IRBESARTAN","dose":"300.0","doseu":null,"dosef":"QD","route":"ORAL","start_dtc":"2024-08-06","end_dtc":"2024-08-06","visit":null},{"seq":"164","trt":"IRBESARTAN","dose":"300.0","doseu":null,"dosef":"QD","route":"ORAL","start_dtc":"2024-08-07","end_dtc":"2024-08-07","visit":null},{"seq":"165","trt":"IRBESARTAN","dose":"300.0","doseu":null,"dosef":"QD","route":"ORAL","start_dtc":"2024-08-08","end_dtc":"2024-08-08","visit":null},{"seq":"166","trt":"IRBESARTAN","dose":"300.0","doseu":null,"dosef":"QD","route":"ORAL","start_dtc":"2024-08-09","end_dtc":"2024-08-09","visit":"WEEK 24"},{"seq":"167","trt":"IRBESARTAN","dose":"300.0","doseu":null,"dosef":"QD","route":"ORAL","start_dtc":"2024-08-10","end_dtc":"2024-08-10","visit":"WEEK 24"},{"seq":"168","trt":"IRBESARTAN","dose":"300.0","doseu":null,"dosef":"QD","route":"ORAL","start_dtc":"2024-08-11","end_dtc":"2024-08-11","visit":"WEEK 24"},{"seq":"169","trt":"IRBESARTAN","dose":"300.0","doseu":null,"dosef":"QD","route":"ORAL","start_dtc":"2024-08-12","end_dtc":"2024-08-12","visit":"WEEK 24"},{"seq":"170","trt":"IRBESARTAN","dose":"300.0","doseu":null,"dosef":"QD","route":"ORAL","start_dtc":"2024-08-13","end_dtc":"2024-08-13","visit":"WEEK 24"},{"seq":"171","trt":"IRBESARTAN","dose":"300.0","doseu":null,"dosef":"QD","route":"ORAL","start_dtc":"2024-08-14","end_dtc":"2024-08-14","visit":"WEEK 24"},{"seq":"172","trt":"IRBESARTAN","dose":"300.0","doseu":null,"dosef":"QD","route":"ORAL","start_dtc":"2024-08-15","end_dtc":"2024-08-15","visit":"WEEK 24"},{"seq":"173","trt":"IRBESARTAN","dose":"300.0","doseu":null,"dosef":"QD","route":"ORAL","start_dtc":"2024-08-16","end_dtc":"2024-08-16","visit":null},{"seq":"174","trt":"IRBESARTAN","dose":"300.0","doseu":null,"dosef":"QD","route":"ORAL","start_dtc":"2024-08-17","end_dtc":"2024-08-17","visit":null},{"seq":"175","trt":"IRBESARTAN","dose":"300.0","doseu":null,"dosef":"QD","route":"ORAL","start_dtc":"2024-08-18","end_dtc":"2024-08-18","visit":null},{"seq":"176","trt":"IRBESARTAN","dose":"300.0","doseu":null,"dosef":"QD","route":"ORAL","start_dtc":"2024-08-19","end_dtc":"2024-08-19","visit":null},{"seq":"177","trt":"IRBESARTAN","dose":"300.0","doseu":null,"dosef":"QD","route":"ORAL","start_dtc":"2024-08-20","end_dtc":"2024-08-20","visit":null},{"seq":"178","trt":"IRBESARTAN","dose":"300.0","doseu":null,"dosef":"QD","route":"ORAL","start_dtc":"2024-08-21","end_dtc":"2024-08-21","visit":null},{"seq":"179","trt":"IRBESARTAN","dose":"300.0","doseu":null,"dosef":"QD","route":"ORAL","start_dtc":"2024-08-22","end_dtc":"2024-08-22","visit":null},{"seq":"180","trt":"IRBESARTAN","dose":"300.0","doseu":null,"dosef":"QD","route":"ORAL","start_dtc":"2024-08-23","end_dtc":"2024-08-23","visit":null},{"seq":"181","trt":"IRBESARTAN","dose":"300.0","doseu":null,"dosef":"QD","route":"ORAL","start_dtc":"2024-08-24","end_dtc":"2024-08-24","visit":null},{"seq":"182","trt":"IRBESARTAN","dose":"300.0","doseu":null,"dosef":"QD","route":"ORAL","start_dtc":"2024-08-25","end_dtc":"2024-08-25","visit":null},{"seq":"183","trt":"IRBESARTAN","dose":"300.0","doseu":null,"dosef":"QD","route":"ORAL","start_dtc":"2024-08-26","end_dtc":"2024-08-26","visit":null},{"seq":"184","trt":"IRBESARTAN","dose":"300.0","doseu":null,"dosef":"QD","route":"ORAL","start_dtc":"2024-08-27","end_dtc":"2024-08-27","visit":null},{"seq":"185","trt":"IRBESARTAN","dose":"300.0","doseu":null,"dosef":"QD","route":"ORAL","start_dtc":"2024-08-28","end_dtc":"2024-08-28","visit":null},{"seq":"186","trt":"IRBESARTAN","dose":"300.0","doseu":null,"dosef":"QD","route":"ORAL","start_dtc":"2024-08-29","end_dtc":"2024-08-29","visit":null},{"seq":"187","trt":"IRBESARTAN","dose":"300.0","doseu":null,"dosef":"QD","route":"ORAL","start_dtc":"2024-08-30","end_dtc":"2024-08-30","visit":null},{"seq":"188","trt":"IRBESARTAN","dose":"300.0","doseu":null,"dosef":"QD","route":"ORAL","start_dtc":"2024-08-31","end_dtc":"2024-08-31","visit":null},{"seq":"189","trt":"IRBESARTAN","dose":"300.0","doseu":null,"dosef":"QD","route":"ORAL","start_dtc":"2024-09-01","end_dtc":"2024-09-01","visit":null},{"seq":"190","trt":"IRBESARTAN","dose":"300.0","doseu":null,"dosef":"QD","route":"ORAL","start_dtc":"2024-09-02","end_dtc":"2024-09-02","visit":null},{"seq":"191","trt":"IRBESARTAN","dose":"300.0","doseu":null,"dosef":"QD","route":"ORAL","start_dtc":"2024-09-03","end_dtc":"2024-09-03","visit":null},{"seq":"192","trt":"IRBESARTAN","dose":"300.0","doseu":null,"dosef":"QD","route":"ORAL","start_dtc":"2024-09-04","end_dtc":"2024-09-04","visit":null},{"seq":"193","trt":"IRBESARTAN","dose":"300.0","doseu":null,"dosef":"QD","route":"ORAL","start_dtc":"2024-09-05","end_dtc":"2024-09-05","visit":null},{"seq":"194","trt":"IRBESARTAN","dose":"300.0","doseu":null,"dosef":"QD","route":"ORAL","start_dtc":"2024-09-06","end_dtc":"2024-09-06","visit":null},{"seq":"195","trt":"IRBESARTAN","dose":"300.0","doseu":null,"dosef":"QD","route":"ORAL","start_dtc":"2024-09-07","end_dtc":"2024-09-07","visit":null},{"seq":"196","trt":"IRBESARTAN","dose":"300.0","doseu":null,"dosef":"QD","route":"ORAL","start_dtc":"2024-09-08","end_dtc":"2024-09-08","visit":null},{"seq":"197","trt":"IRBESARTAN","dose":"300.0","doseu":null,"dosef":"QD","route":"ORAL","start_dtc":"2024-09-09","end_dtc":"2024-09-09","visit":null},{"seq":"198","trt":"IRBESARTAN","dose":"300.0","doseu":null,"dosef":"QD","route":"ORAL","start_dtc":"2024-09-10","end_dtc":"2024-09-10","visit":null},{"seq":"199","trt":"IRBESARTAN","dose":"300.0","doseu":null,"dosef":"QD","route":"ORAL","start_dtc":"2024-09-11","end_dtc":"2024-09-11","visit":null},{"seq":"200","trt":"IRBESARTAN","dose":"300.0","doseu":null,"dosef":"QD","route":"ORAL","start_dtc":"2024-09-12","end_dtc":"2024-09-12","visit":null},{"seq":"201","trt":"IRBESARTAN","dose":"300.0","doseu":null,"dosef":"QD","route":"ORAL","start_dtc":"2024-09-13","end_dtc":"2024-09-13","visit":null},{"seq":"202","trt":"IRBESARTAN","dose":"300.0","doseu":null,"dosef":"QD","route":"ORAL","start_dtc":"2024-09-14","end_dtc":"2024-09-14","visit":null},{"seq":"203","trt":"IRBESARTAN","dose":"300.0","doseu":null,"dosef":"QD","route":"ORAL","start_dtc":"2024-09-15","end_dtc":"2024-09-15","visit":null},{"seq":"204","trt":"IRBESARTAN","dose":"300.0","doseu":null,"dosef":"QD","route":"ORAL","start_dtc":"2024-09-16","end_dtc":"2024-09-16","visit":null},{"seq":"205","trt":"IRBESARTAN","dose":"300.0","doseu":null,"dosef":"QD","route":"ORAL","start_dtc":"2024-09-17","end_dtc":"2024-09-17","visit":null},{"seq":"206","trt":"IRBESARTAN","dose":"300.0","doseu":null,"dosef":"QD","route":"ORAL","start_dtc":"2024-09-18","end_dtc":"2024-09-18","visit":null},{"seq":"207","trt":"IRBESARTAN","dose":"300.0","doseu":null,"dosef":"QD","route":"ORAL","start_dtc":"2024-09-19","end_dtc":"2024-09-19","visit":null},{"seq":"208","trt":"IRBESARTAN","dose":"300.0","doseu":null,"dosef":"QD","route":"ORAL","start_dtc":"2024-09-20","end_dtc":"2024-09-20","visit":null},{"seq":"209","trt":"IRBESARTAN","dose":"300.0","doseu":null,"dosef":"QD","route":"ORAL","start_dtc":"2024-09-21","end_dtc":"2024-09-21","visit":null},{"seq":"210","trt":"IRBESARTAN","dose":"300.0","doseu":null,"dosef":"QD","route":"ORAL","start_dtc":"2024-09-22","end_dtc":"2024-09-22","visit":null},{"seq":"211","trt":"IRBESARTAN","dose":"300.0","doseu":null,"dosef":"QD","route":"ORAL","start_dtc":"2024-09-23","end_dtc":"2024-09-23","visit":null},{"seq":"212","trt":"IRBESARTAN","dose":"300.0","doseu":null,"dosef":"QD","route":"ORAL","start_dtc":"2024-09-24","end_dtc":"2024-09-24","visit":null},{"seq":"213","trt":"IRBESARTAN","dose":"300.0","doseu":null,"dosef":"QD","route":"ORAL","start_dtc":"2024-09-25","end_dtc":"2024-09-25","visit":null},{"seq":"214","trt":"IRBESARTAN","dose":"300.0","doseu":null,"dosef":"QD","route":"ORAL","start_dtc":"2024-09-26","end_dtc":"2024-09-26","visit":null},{"seq":"215","trt":"IRBESARTAN","dose":"300.0","doseu":null,"dosef":"QD","route":"ORAL","start_dtc":"2024-09-27","end_dtc":"2024-09-27","visit":null},{"seq":"216","trt":"IRBESARTAN","dose":"300.0","doseu":null,"dosef":"QD","route":"ORAL","start_dtc":"2024-09-28","end_dtc":"2024-09-28","visit":null},{"seq":"217","trt":"IRBESARTAN","dose":"300.0","doseu":null,"dosef":"QD","route":"ORAL","start_dtc":"2024-09-29","end_dtc":"2024-09-29","visit":null},{"seq":"218","trt":"IRBESARTAN","dose":"300.0","doseu":null,"dosef":"QD","route":"ORAL","start_dtc":"2024-09-30","end_dtc":"2024-09-30","visit":null},{"seq":"219","trt":"IRBESARTAN","dose":"300.0","doseu":null,"dosef":"QD","route":"ORAL","start_dtc":"2024-10-01","end_dtc":"2024-10-01","visit":null},{"seq":"220","trt":"IRBESARTAN","dose":"300.0","doseu":null,"dosef":"QD","route":"ORAL","start_dtc":"2024-10-02","end_dtc":"2024-10-02","visit":null},{"seq":"221","trt":"IRBESARTAN","dose":"300.0","doseu":null,"dosef":"QD","route":"ORAL","start_dtc":"2024-10-03","end_dtc":"2024-10-03","visit":null},{"seq":"222","trt":"IRBESARTAN","dose":"300.0","doseu":null,"dosef":"QD","route":"ORAL","start_dtc":"2024-10-04","end_dtc":"2024-10-04","visit":null},{"seq":"223","trt":"IRBESARTAN","dose":"300.0","doseu":null,"dosef":"QD","route":"ORAL","start_dtc":"2024-10-05","end_dtc":"2024-10-05","visit":null},{"seq":"224","trt":"IRBESARTAN","dose":"300.0","doseu":null,"dosef":"QD","route":"ORAL","start_dtc":"2024-10-06","end_dtc":"2024-10-06","visit":null},{"seq":"225","trt":"IRBESARTAN","dose":"300.0","doseu":null,"dosef":"QD","route":"ORAL","start_dtc":"2024-10-07","end_dtc":"2024-10-07","visit":null},{"seq":"226","trt":"IRBESARTAN","dose":"300.0","doseu":null,"dosef":"QD","route":"ORAL","start_dtc":"2024-10-08","end_dtc":"2024-10-08","visit":null},{"seq":"227","trt":"IRBESARTAN","dose":"300.0","doseu":null,"dosef":"QD","route":"ORAL","start_dtc":"2024-10-09","end_dtc":"2024-10-09","visit":null},{"seq":"228","trt":"IRBESARTAN","dose":"300.0","doseu":null,"dosef":"QD","route":"ORAL","start_dtc":"2024-10-10","end_dtc":"2024-10-10","visit":null},{"seq":"229","trt":"IRBESARTAN","dose":"300.0","doseu":null,"dosef":"QD","route":"ORAL","start_dtc":"2024-10-11","end_dtc":"2024-10-11","visit":null},{"seq":"230","trt":"IRBESARTAN","dose":"300.0","doseu":null,"dosef":"QD","route":"ORAL","start_dtc":"2024-10-12","end_dtc":"2024-10-12","visit":null},{"seq":"231","trt":"IRBESARTAN","dose":"300.0","doseu":null,"dosef":"QD","route":"ORAL","start_dtc":"2024-10-13","end_dtc":"2024-10-13","visit":null},{"seq":"232","trt":"IRBESARTAN","dose":"300.0","doseu":null,"dosef":"QD","route":"ORAL","start_dtc":"2024-10-14","end_dtc":"2024-10-14","visit":null},{"seq":"233","trt":"IRBESARTAN","dose":"300.0","doseu":null,"dosef":"QD","route":"ORAL","start_dtc":"2024-10-15","end_dtc":"2024-10-15","visit":null},{"seq":"234","trt":"IRBESARTAN","dose":"300.0","doseu":null,"dosef":"QD","route":"ORAL","start_dtc":"2024-10-16","end_dtc":"2024-10-16","visit":null},{"seq":"235","trt":"IRBESARTAN","dose":"300.0","doseu":null,"dosef":"QD","route":"ORAL","start_dtc":"2024-10-17","end_dtc":"2024-10-17","visit":null},{"seq":"236","trt":"IRBESARTAN","dose":"300.0","doseu":null,"dosef":"QD","route":"ORAL","start_dtc":"2024-10-18","end_dtc":"2024-10-18","visit":null},{"seq":"237","trt":"IRBESARTAN","dose":"300.0","doseu":null,"dosef":"QD","route":"ORAL","start_dtc":"2024-10-19","end_dtc":"2024-10-19","visit":null},{"seq":"238","trt":"IRBESARTAN","dose":"300.0","doseu":null,"dosef":"QD","route":"ORAL","start_dtc":"2024-10-20","end_dtc":"2024-10-20","visit":null},{"seq":"239","trt":"IRBESARTAN","dose":"300.0","doseu":null,"dosef":"QD","route":"ORAL","start_dtc":"2024-10-21","end_dtc":"2024-10-21","visit":null},{"seq":"240","trt":"IRBESARTAN","dose":"300.0","doseu":null,"dosef":"QD","route":"ORAL","start_dtc":"2024-10-22","end_dtc":"2024-10-22","visit":null},{"seq":"241","trt":"IRBESARTAN","dose":"300.0","doseu":null,"dosef":"QD","route":"ORAL","start_dtc":"2024-10-23","end_dtc":"2024-10-23","visit":null},{"seq":"242","trt":"IRBESARTAN","dose":"300.0","doseu":null,"dosef":"QD","route":"ORAL","start_dtc":"2024-10-24","end_dtc":"2024-10-24","visit":null},{"seq":"243","trt":"IRBESARTAN","dose":"300.0","doseu":null,"dosef":"QD","route":"ORAL","start_dtc":"2024-10-25","end_dtc":"2024-10-25","visit":null},{"seq":"244","trt":"IRBESARTAN","dose":"300.0","doseu":null,"dosef":"QD","route":"ORAL","start_dtc":"2024-10-26","end_dtc":"2024-10-26","visit":null},{"seq":"245","trt":"IRBESARTAN","dose":"300.0","doseu":null,"dosef":"QD","route":"ORAL","start_dtc":"2024-10-27","end_dtc":"2024-10-27","visit":null},{"seq":"246","trt":"IRBESARTAN","dose":"300.0","doseu":null,"dosef":"QD","route":"ORAL","start_dtc":"2024-10-28","end_dtc":"2024-10-28","visit":null},{"seq":"247","trt":"IRBESARTAN","dose":"300.0","doseu":null,"dosef":"QD","route":"ORAL","start_dtc":"2024-10-29","end_dtc":"2024-10-29","visit":null},{"seq":"248","trt":"IRBESARTAN","dose":"300.0","doseu":null,"dosef":"QD","route":"ORAL","start_dtc":"2024-10-30","end_dtc":"2024-10-30","visit":null},{"seq":"249","trt":"IRBESARTAN","dose":null,"doseu":null,"dosef":"QD","route":"ORAL","start_dtc":"2024-10-31","end_dtc":"2024-10-31","visit":null},{"seq":"250","trt":"IRBESARTAN","dose":"300.0","doseu":null,"dosef":"QD","route":"ORAL","start_dtc":"2024-11-01","end_dtc":"2024-11-01","visit":"WEEK 36"},{"seq":"251","trt":"IRBESARTAN","dose":"300.0","doseu":null,"dosef":"QD","route":"ORAL","start_dtc":"2024-11-02","end_dtc":"2024-11-02","visit":"WEEK 36"},{"seq":"252","trt":"IRBESARTAN","dose":"300.0","doseu":null,"dosef":"QD","route":"ORAL","start_dtc":"2024-11-03","end_dtc":"2024-11-03","visit":"WEEK 36"},{"seq":"253","trt":"IRBESARTAN","dose":"300.0","doseu":null,"dosef":"QD","route":"ORAL","start_dtc":"2024-11-04","end_dtc":"2024-11-04","visit":"WEEK 36"},{"seq":"254","trt":"IRBESARTAN","dose":"300.0","doseu":null,"dosef":"QD","route":"ORAL","start_dtc":"2024-11-05","end_dtc":"2024-11-05","visit":"WEEK 36"},{"seq":"255","trt":"IRBESARTAN","dose":"300.0","doseu":null,"dosef":"QD","route":"ORAL","start_dtc":"2024-11-06","end_dtc":"2024-11-06","visit":"WEEK 36"},{"seq":"256","trt":"IRBESARTAN","dose":"300.0","doseu":null,"dosef":"QD","route":"ORAL","start_dtc":"2024-11-07","end_dtc":"2024-11-07","visit":"WEEK 36"},{"seq":"257","trt":"IRBESARTAN","dose":"300.0","doseu":null,"dosef":"QD","route":"ORAL","start_dtc":"2024-11-08","end_dtc":"2024-11-08","visit":null},{"seq":"258","trt":"IRBESARTAN","dose":"300.0","doseu":null,"dosef":"QD","route":"ORAL","start_dtc":"2024-11-09","end_dtc":"2024-11-09","visit":null},{"seq":"259","trt":"IRBESARTAN","dose":"300.0","doseu":null,"dosef":"QD","route":"ORAL","start_dtc":"2024-11-10","end_dtc":"2024-11-10","visit":null},{"seq":"260","trt":"IRBESARTAN","dose":"300.0","doseu":null,"dosef":"QD","route":"ORAL","start_dtc":"2024-11-11","end_dtc":"2024-11-11","visit":null},{"seq":"261","trt":"IRBESARTAN","dose":"300.0","doseu":null,"dosef":"QD","route":"ORAL","start_dtc":"2024-11-12","end_dtc":"2024-11-12","visit":null},{"seq":"262","trt":"IRBESARTAN","dose":"300.0","doseu":null,"dosef":"QD","route":"ORAL","start_dtc":"2024-11-13","end_dtc":"2024-11-13","visit":null},{"seq":"263","trt":"IRBESARTAN","dose":"300.0","doseu":null,"dosef":"QD","route":"ORAL","start_dtc":"2024-11-14","end_dtc":"2024-11-14","visit":null},{"seq":"264","trt":"IRBESARTAN","dose":"300.0","doseu":null,"dosef":"QD","route":"ORAL","start_dtc":"2024-11-15","end_dtc":"2024-11-15","visit":null},{"seq":"265","trt":"IRBESARTAN","dose":"300.0","doseu":null,"dosef":"QD","route":"ORAL","start_dtc":"2024-11-16","end_dtc":"2024-11-16","visit":null},{"seq":"266","trt":"IRBESARTAN","dose":"300.0","doseu":null,"dosef":"QD","route":"ORAL","start_dtc":"2024-11-17","end_dtc":"2024-11-17","visit":null},{"seq":"267","trt":"IRBESARTAN","dose":"300.0","doseu":null,"dosef":"QD","route":"ORAL","start_dtc":"2024-11-18","end_dtc":"2024-11-18","visit":null},{"seq":"268","trt":"IRBESARTAN","dose":"300.0","doseu":null,"dosef":"QD","route":"ORAL","start_dtc":"2024-11-19","end_dtc":"2024-11-19","visit":null},{"seq":"269","trt":"IRBESARTAN","dose":"300.0","doseu":null,"dosef":"QD","route":"ORAL","start_dtc":"2024-11-20","end_dtc":"2024-11-20","visit":null},{"seq":"270","trt":"IRBESARTAN","dose":"300.0","doseu":null,"dosef":"QD","route":"ORAL","start_dtc":"2024-11-21","end_dtc":"2024-11-21","visit":null},{"seq":"271","trt":"IRBESARTAN","dose":"300.0","doseu":null,"dosef":"QD","route":"ORAL","start_dtc":"2024-11-22","end_dtc":"2024-11-22","visit":null},{"seq":"272","trt":"IRBESARTAN","dose":"300.0","doseu":null,"dosef":"QD","route":"ORAL","start_dtc":"2024-11-23","end_dtc":"2024-11-23","visit":null},{"seq":"273","trt":"IRBESARTAN","dose":"300.0","doseu":null,"dosef":"QD","route":"ORAL","start_dtc":"2024-11-24","end_dtc":"2024-11-24","visit":null},{"seq":"274","trt":"IRBESARTAN","dose":"300.0","doseu":null,"dosef":"QD","route":"ORAL","start_dtc":"2024-11-25","end_dtc":"2024-11-25","visit":null},{"seq":"275","trt":"IRBESARTAN","dose":"300.0","doseu":null,"dosef":"QD","route":"ORAL","start_dtc":"2024-11-26","end_dtc":"2024-11-26","visit":null},{"seq":"276","trt":"IRBESARTAN","dose":"300.0","doseu":null,"dosef":"QD","route":"ORAL","start_dtc":"2024-11-27","end_dtc":"2024-11-27","visit":null},{"seq":"277","trt":"IRBESARTAN","dose":"300.0","doseu":null,"dosef":"QD","route":"ORAL","start_dtc":"2024-11-28","end_dtc":"2024-11-28","visit":null},{"seq":"278","trt":"IRBESARTAN","dose":"300.0","doseu":null,"dosef":"QD","route":"ORAL","start_dtc":"2024-11-29","end_dtc":"2024-11-29","visit":null},{"seq":"279","trt":"IRBESARTAN","dose":"300.0","doseu":null,"dosef":"QD","route":"ORAL","start_dtc":"2024-11-30","end_dtc":"2024-11-30","visit":null},{"seq":"280","trt":"IRBESARTAN","dose":"300.0","doseu":null,"dosef":"QD","route":"ORAL","start_dtc":"2024-12-01","end_dtc":"2024-12-01","visit":null},{"seq":"281","trt":"IRBESARTAN","dose":"300.0","doseu":null,"dosef":"QD","route":"ORAL","start_dtc":"2024-12-02","end_dtc":"2024-12-02","visit":null},{"seq":"282","trt":"IRBESARTAN","dose":"300.0","doseu":null,"dosef":"QD","route":"ORAL","start_dtc":"2024-12-03","end_dtc":"2024-12-03","visit":null},{"seq":"283","trt":"IRBESARTAN","dose":"300.0","doseu":null,"dosef":"QD","route":"ORAL","start_dtc":"2024-12-04","end_dtc":"2024-12-04","visit":null},{"seq":"284","trt":"IRBESARTAN","dose":"300.0","doseu":null,"dosef":"QD","route":"ORAL","start_dtc":"2024-12-05","end_dtc":"2024-12-05","visit":null},{"seq":"285","trt":"IRBESARTAN","dose":"300.0","doseu":null,"dosef":"QD","route":"ORAL","start_dtc":"2024-12-06","end_dtc":"2024-12-06","visit":null},{"seq":"286","trt":"IRBESARTAN","dose":"300.0","doseu":null,"dosef":"QD","route":"ORAL","start_dtc":"2024-12-07","end_dtc":"2024-12-07","visit":null},{"seq":"287","trt":"IRBESARTAN","dose":"300.0","doseu":null,"dosef":"QD","route":"ORAL","start_dtc":"2024-12-08","end_dtc":"2024-12-08","visit":null},{"seq":"288","trt":"IRBESARTAN","dose":"300.0","doseu":null,"dosef":"QD","route":"ORAL","start_dtc":"2024-12-09","end_dtc":"2024-12-09","visit":null},{"seq":"289","trt":"IRBESARTAN","dose":"300.0","doseu":null,"dosef":"QD","route":"ORAL","start_dtc":"2024-12-10","end_dtc":"2024-12-10","visit":null},{"seq":"290","trt":"IRBESARTAN","dose":"300.0","doseu":null,"dosef":"QD","route":"ORAL","start_dtc":"2024-12-11","end_dtc":"2024-12-11","visit":null},{"seq":"291","trt":"IRBESARTAN","dose":"300.0","doseu":null,"dosef":"QD","route":"ORAL","start_dtc":"2024-12-12","end_dtc":"2024-12-12","visit":null},{"seq":"292","trt":"IRBESARTAN","dose":"300.0","doseu":null,"dosef":"QD","route":"ORAL","start_dtc":"2024-12-13","end_dtc":"2024-12-13","visit":null},{"seq":"293","trt":"IRBESARTAN","dose":"300.0","doseu":null,"dosef":"QD","route":"ORAL","start_dtc":"2024-12-14","end_dtc":"2024-12-14","visit":null},{"seq":"294","trt":"IRBESARTAN","dose":"300.0","doseu":null,"dosef":"QD","route":"ORAL","start_dtc":"2024-12-15","end_dtc":"2024-12-15","visit":null},{"seq":"295","trt":"IRBESARTAN","dose":"300.0","doseu":null,"dosef":"QD","route":"ORAL","start_dtc":"2024-12-16","end_dtc":"2024-12-16","visit":null},{"seq":"296","trt":"IRBESARTAN","dose":"300.0","doseu":null,"dosef":"QD","route":"ORAL","start_dtc":"2024-12-17","end_dtc":"2024-12-17","visit":null},{"seq":"297","trt":"IRBESARTAN","dose":"300.0","doseu":null,"dosef":"QD","route":"ORAL","start_dtc":"2024-12-18","end_dtc":"2024-12-18","visit":null},{"seq":"298","trt":"IRBESARTAN","dose":"300.0","doseu":null,"dosef":"QD","route":"ORAL","start_dtc":"2024-12-19","end_dtc":"2024-12-19","visit":null},{"seq":"299","trt":"IRBESARTAN","dose":"300.0","doseu":null,"dosef":"QD","route":"ORAL","start_dtc":"2024-12-20","end_dtc":"2024-12-20","visit":null},{"seq":"300","trt":"IRBESARTAN","dose":"300.0","doseu":null,"dosef":"QD","route":"ORAL","start_dtc":"2024-12-21","end_dtc":"2024-12-21","visit":null},{"seq":"301","trt":"IRBESARTAN","dose":null,"doseu":null,"dosef":"QD","route":"ORAL","start_dtc":"2024-12-22","end_dtc":"2024-12-22","visit":null},{"seq":"302","trt":"IRBESARTAN","dose":"300.0","doseu":null,"dosef":"QD","route":"ORAL","start_dtc":"2024-12-23","end_dtc":"2024-12-23","visit":null},{"seq":"303","trt":"IRBESARTAN","dose":"300.0","doseu":null,"dosef":"QD","route":"ORAL","start_dtc":"2024-12-24","end_dtc":"2024-12-24","visit":null},{"seq":"304","trt":"IRBESARTAN","dose":"300.0","doseu":null,"dosef":"QD","route":"ORAL","start_dtc":"2024-12-25","end_dtc":"2024-12-25","visit":null},{"seq":"305","trt":"IRBESARTAN","dose":"300.0","doseu":null,"dosef":"QD","route":"ORAL","start_dtc":"2024-12-26","end_dtc":"2024-12-26","visit":null},{"seq":"306","trt":"IRBESARTAN","dose":"300.0","doseu":null,"dosef":"QD","route":"ORAL","start_dtc":"2024-12-27","end_dtc":"2024-12-27","visit":null},{"seq":"307","trt":"IRBESARTAN","dose":"300.0","doseu":null,"dosef":"QD","route":"ORAL","start_dtc":"2024-12-28","end_dtc":"2024-12-28","visit":null},{"seq":"308","trt":"IRBESARTAN","dose":null,"doseu":null,"dosef":"QD","route":"ORAL","start_dtc":"2024-12-29","end_dtc":"2024-12-29","visit":null},{"seq":"309","trt":"IRBESARTAN","dose":"300.0","doseu":null,"dosef":"QD","route":"ORAL","start_dtc":"2024-12-30","end_dtc":"2024-12-30","visit":null},{"seq":"310","trt":"IRBESARTAN","dose":"300.0","doseu":null,"dosef":"QD","route":"ORAL","start_dtc":"2024-12-31","end_dtc":"2024-12-31","visit":null},{"seq":"311","trt":"IRBESARTAN","dose":"300.0","doseu":null,"dosef":"QD","route":"ORAL","start_dtc":"2025-01-01","end_dtc":"2025-01-01","visit":null},{"seq":"312","trt":"IRBESARTAN","dose":"300.0","doseu":null,"dosef":"QD","route":"ORAL","start_dtc":"2025-01-02","end_dtc":"2025-01-02","visit":null},{"seq":"313","trt":"IRBESARTAN","dose":"300.0","doseu":null,"dosef":"QD","route":"ORAL","start_dtc":"2025-01-03","end_dtc":"2025-01-03","visit":null},{"seq":"314","trt":"IRBESARTAN","dose":"300.0","doseu":null,"dosef":"QD","route":"ORAL","start_dtc":"2025-01-04","end_dtc":"2025-01-04","visit":null},{"seq":"315","trt":"IRBESARTAN","dose":"300.0","doseu":null,"dosef":"QD","route":"ORAL","start_dtc":"2025-01-05","end_dtc":"2025-01-05","visit":null},{"seq":"316","trt":"IRBESARTAN","dose":"300.0","doseu":null,"dosef":"QD","route":"ORAL","start_dtc":"2025-01-06","end_dtc":"2025-01-06","visit":null},{"seq":"317","trt":"IRBESARTAN","dose":"300.0","doseu":null,"dosef":"QD","route":"ORAL","start_dtc":"2025-01-07","end_dtc":"2025-01-07","visit":null},{"seq":"318","trt":"IRBESARTAN","dose":"300.0","doseu":null,"dosef":"QD","route":"ORAL","start_dtc":"2025-01-08","end_dtc":"2025-01-08","visit":null},{"seq":"319","trt":"IRBESARTAN","dose":"300.0","doseu":null,"dosef":"QD","route":"ORAL","start_dtc":"2025-01-09","end_dtc":"2025-01-09","visit":null},{"seq":"320","trt":"IRBESARTAN","dose":"300.0","doseu":null,"dosef":"QD","route":"ORAL","start_dtc":"2025-01-10","end_dtc":"2025-01-10","visit":null},{"seq":"321","trt":"IRBESARTAN","dose":"300.0","doseu":null,"dosef":"QD","route":"ORAL","start_dtc":"2025-01-11","end_dtc":"2025-01-11","visit":null},{"seq":"322","trt":"IRBESARTAN","dose":"300.0","doseu":null,"dosef":"QD","route":"ORAL","start_dtc":"2025-01-12","end_dtc":"2025-01-12","visit":null},{"seq":"323","trt":"IRBESARTAN","dose":"300.0","doseu":null,"dosef":"QD","route":"ORAL","start_dtc":"2025-01-13","end_dtc":"2025-01-13","visit":null},{"seq":"324","trt":"IRBESARTAN","dose":"300.0","doseu":null,"dosef":"QD","route":"ORAL","start_dtc":"2025-01-14","end_dtc":"2025-01-14","visit":null},{"seq":"325","trt":"IRBESARTAN","dose":"300.0","doseu":null,"dosef":"QD","route":"ORAL","start_dtc":"2025-01-15","end_dtc":"2025-01-15","visit":null},{"seq":"326","trt":"IRBESARTAN","dose":"300.0","doseu":null,"dosef":"QD","route":"ORAL","start_dtc":"2025-01-16","end_dtc":"2025-01-16","visit":null},{"seq":"327","trt":"IRBESARTAN","dose":"300.0","doseu":null,"dosef":"QD","route":"ORAL","start_dtc":"2025-01-17","end_dtc":"2025-01-17","visit":null},{"seq":"328","trt":"IRBESARTAN","dose":"300.0","doseu":null,"dosef":"QD","route":"ORAL","start_dtc":"2025-01-18","end_dtc":"2025-01-18","visit":null},{"seq":"329","trt":"IRBESARTAN","dose":"300.0","doseu":null,"dosef":"QD","route":"ORAL","start_dtc":"2025-01-19","end_dtc":"2025-01-19","visit":null},{"seq":"330","trt":"IRBESARTAN","dose":"300.0","doseu":null,"dosef":"QD","route":"ORAL","start_dtc":"2025-01-20","end_dtc":"2025-01-20","visit":null},{"seq":"331","trt":"IRBESARTAN","dose":"300.0","doseu":null,"dosef":"QD","route":"ORAL","start_dtc":"2025-01-21","end_dtc":"2025-01-21","visit":null},{"seq":"332","trt":"IRBESARTAN","dose":"300.0","doseu":null,"dosef":"QD","route":"ORAL","start_dtc":"2025-01-22","end_dtc":"2025-01-22","visit":null},{"seq":"333","trt":"IRBESARTAN","dose":"300.0","doseu":null,"dosef":"QD","route":"ORAL","start_dtc":"2025-01-23","end_dtc":"2025-01-23","visit":null},{"seq":"334","trt":"IRBESARTAN","dose":"300.0","doseu":null,"dosef":"QD","route":"ORAL","start_dtc":"2025-01-24","end_dtc":"2025-01-24","visit":null},{"seq":"335","trt":"IRBESARTAN","dose":"300.0","doseu":null,"dosef":"QD","route":"ORAL","start_dtc":"2025-01-25","end_dtc":"2025-01-25","visit":null},{"seq":"336","trt":"IRBESARTAN","dose":"300.0","doseu":null,"dosef":"QD","route":"ORAL","start_dtc":"2025-01-26","end_dtc":"2025-01-26","visit":null},{"seq":"337","trt":"IRBESARTAN","dose":"300.0","doseu":null,"dosef":"QD","route":"ORAL","start_dtc":"2025-01-27","end_dtc":"2025-01-27","visit":null},{"seq":"338","trt":"IRBESARTAN","dose":"300.0","doseu":null,"dosef":"QD","route":"ORAL","start_dtc":"2025-01-28","end_dtc":"2025-01-28","visit":null},{"seq":"339","trt":"IRBESARTAN","dose":"300.0","doseu":null,"dosef":"QD","route":"ORAL","start_dtc":"2025-01-29","end_dtc":"2025-01-29","visit":null},{"seq":"340","trt":"IRBESARTAN","dose":"300.0","doseu":null,"dosef":"QD","route":"ORAL","start_dtc":"2025-01-30","end_dtc":"2025-01-30","visit":null},{"seq":"341","trt":"IRBESARTAN","dose":"300.0","doseu":null,"dosef":"QD","route":"ORAL","start_dtc":"2025-01-31","end_dtc":"2025-01-31","visit":null},{"seq":"342","trt":"IRBESARTAN","dose":"300.0","doseu":null,"dosef":"QD","route":"ORAL","start_dtc":"2025-02-01","end_dtc":"2025-02-01","visit":null},{"seq":"343","trt":"IRBESARTAN","dose":"300.0","doseu":null,"dosef":"QD","route":"ORAL","start_dtc":"2025-02-02","end_dtc":"2025-02-02","visit":null},{"seq":"344","trt":"IRBESARTAN","dose":"300.0","doseu":null,"dosef":"QD","route":"ORAL","start_dtc":"2025-02-03","end_dtc":"2025-02-03","visit":null},{"seq":"345","trt":"IRBESARTAN","dose":"300.0","doseu":null,"dosef":"QD","route":"ORAL","start_dtc":"2025-02-04","end_dtc":"2025-02-04","visit":null},{"seq":"346","trt":"IRBESARTAN","dose":"300.0","doseu":null,"dosef":"QD","route":"ORAL","start_dtc":"2025-02-05","end_dtc":"2025-02-05","visit":null},{"seq":"347","trt":"IRBESARTAN","dose":"300.0","doseu":null,"dosef":"QD","route":"ORAL","start_dtc":"2025-02-06","end_dtc":"2025-02-06","visit":null},{"seq":"348","trt":"IRBESARTAN","dose":"300.0","doseu":null,"dosef":"QD","route":"ORAL","start_dtc":"2025-02-07","end_dtc":"2025-02-07","visit":null},{"seq":"349","trt":"IRBESARTAN","dose":null,"doseu":null,"dosef":"QD","route":"ORAL","start_dtc":"2025-02-08","end_dtc":"2025-02-08","visit":null},{"seq":"350","trt":"IRBESARTAN","dose":"300.0","doseu":null,"dosef":"QD","route":"ORAL","start_dtc":"2025-02-09","end_dtc":"2025-02-09","visit":null},{"seq":"351","trt":"IRBESARTAN","dose":"300.0","doseu":null,"dosef":"QD","route":"ORAL","start_dtc":"2025-02-10","end_dtc":"2025-02-10","visit":null},{"seq":"352","trt":"IRBESARTAN","dose":"300.0","doseu":null,"dosef":"QD","route":"ORAL","start_dtc":"2025-02-11","end_dtc":"2025-02-11","visit":null},{"seq":"353","trt":"IRBESARTAN","dose":"300.0","doseu":null,"dosef":"QD","route":"ORAL","start_dtc":"2025-02-12","end_dtc":"2025-02-12","visit":null},{"seq":"354","trt":"IRBESARTAN","dose":"300.0","doseu":null,"dosef":"QD","route":"ORAL","start_dtc":"2025-02-13","end_dtc":"2025-02-13","visit":null},{"seq":"355","trt":"IRBESARTAN","dose":"300.0","doseu":null,"dosef":"QD","route":"ORAL","start_dtc":"2025-02-14","end_dtc":"2025-02-14","visit":null},{"seq":"356","trt":"IRBESARTAN","dose":"300.0","doseu":null,"dosef":"QD","route":"ORAL","start_dtc":"2025-02-15","end_dtc":"2025-02-15","visit":null},{"seq":"357","trt":"IRBESARTAN","dose":"300.0","doseu":null,"dosef":"QD","route":"ORAL","start_dtc":"2025-02-16","end_dtc":"2025-02-16","visit":null},{"seq":"358","trt":"IRBESARTAN","dose":"300.0","doseu":null,"dosef":"QD","route":"ORAL","start_dtc":"2025-02-17","end_dtc":"2025-02-17","visit":null},{"seq":"359","trt":"IRBESARTAN","dose":"300.0","doseu":null,"dosef":"QD","route":"ORAL","start_dtc":"2025-02-18","end_dtc":"2025-02-18","visit":null},{"seq":"360","trt":"IRBESARTAN","dose":"300.0","doseu":null,"dosef":"QD","route":"ORAL","start_dtc":"2025-02-19","end_dtc":"2025-02-19","visit":null},{"seq":"361","trt":"IRBESARTAN","dose":"300.0","doseu":null,"dosef":"QD","route":"ORAL","start_dtc":"2025-02-20","end_dtc":"2025-02-20","visit":null},{"seq":"362","trt":"IRBESARTAN","dose":"300.0","doseu":null,"dosef":"QD","route":"ORAL","start_dtc":"2025-02-21","end_dtc":"2025-02-21","visit":null},{"seq":"363","trt":"IRBESARTAN","dose":"300.0","doseu":null,"dosef":"QD","route":"ORAL","start_dtc":"2025-02-22","end_dtc":"2025-02-22","visit":null},{"seq":"364","trt":"IRBESARTAN","dose":"300.0","doseu":null,"dosef":"QD","route":"ORAL","start_dtc":"2025-02-23","end_dtc":"2025-02-23","visit":null},{"seq":"365","trt":"IRBESARTAN","dose":"300.0","doseu":null,"dosef":"QD","route":"ORAL","start_dtc":"2025-02-24","end_dtc":"2025-02-24","visit":null},{"seq":"366","trt":"IRBESARTAN","dose":"300.0","doseu":null,"dosef":"QD","route":"ORAL","start_dtc":"2025-02-25","end_dtc":"2025-02-25","visit":null},{"seq":"367","trt":"IRBESARTAN","dose":"300.0","doseu":null,"dosef":"QD","route":"ORAL","start_dtc":"2025-02-26","end_dtc":"2025-02-26","visit":null},{"seq":"368","trt":"IRBESARTAN","dose":"300.0","doseu":null,"dosef":"QD","route":"ORAL","start_dtc":"2025-02-27","end_dtc":"2025-02-27","visit":null},{"seq":"369","trt":"IRBESARTAN","dose":"300.0","doseu":null,"dosef":"QD","route":"ORAL","start_dtc":"2025-02-28","end_dtc":"2025-02-28","visit":null},{"seq":"370","trt":"IRBESARTAN","dose":null,"doseu":null,"dosef":"QD","route":"ORAL","start_dtc":"2025-03-01","end_dtc":"2025-03-01","visit":null},{"seq":"371","trt":"IRBESARTAN","dose":"300.0","doseu":null,"dosef":"QD","route":"ORAL","start_dtc":"2025-03-02","end_dtc":"2025-03-02","visit":null},{"seq":"372","trt":"IRBESARTAN","dose":"300.0","doseu":null,"dosef":"QD","route":"ORAL","start_dtc":"2025-03-03","end_dtc":"2025-03-03","visit":null},{"seq":"373","trt":"IRBESARTAN","dose":"300.0","doseu":null,"dosef":"QD","route":"ORAL","start_dtc":"2025-03-04","end_dtc":"2025-03-04","visit":null},{"seq":"374","trt":"IRBESARTAN","dose":"300.0","doseu":null,"dosef":"QD","route":"ORAL","start_dtc":"2025-03-05","end_dtc":"2025-03-05","visit":null},{"seq":"375","trt":"IRBESARTAN","dose":"300.0","doseu":null,"dosef":"QD","route":"ORAL","start_dtc":"2025-03-06","end_dtc":"2025-03-06","visit":null},{"seq":"376","trt":"IRBESARTAN","dose":"300.0","doseu":null,"dosef":"QD","route":"ORAL","start_dtc":"2025-03-07","end_dtc":"2025-03-07","visit":null},{"seq":"377","trt":"IRBESARTAN","dose":"300.0","doseu":null,"dosef":"QD","route":"ORAL","start_dtc":"2025-03-08","end_dtc":"2025-03-08","visit":null},{"seq":"378","trt":"IRBESARTAN","dose":"300.0","doseu":null,"dosef":"QD","route":"ORAL","start_dtc":"2025-03-09","end_dtc":"2025-03-09","visit":null},{"seq":"379","trt":"IRBESARTAN","dose":"300.0","doseu":null,"dosef":"QD","route":"ORAL","start_dtc":"2025-03-10","end_dtc":"2025-03-10","visit":null},{"seq":"380","trt":"IRBESARTAN","dose":"300.0","doseu":null,"dosef":"QD","route":"ORAL","start_dtc":"2025-03-11","end_dtc":"2025-03-11","visit":null},{"seq":"381","trt":"IRBESARTAN","dose":"300.0","doseu":null,"dosef":"QD","route":"ORAL","start_dtc":"2025-03-12","end_dtc":"2025-03-12","visit":null},{"seq":"382","trt":"IRBESARTAN","dose":"300.0","doseu":null,"dosef":"QD","route":"ORAL","start_dtc":"2025-03-13","end_dtc":"2025-03-13","visit":null},{"seq":"383","trt":"IRBESARTAN","dose":"300.0","doseu":null,"dosef":"QD","route":"ORAL","start_dtc":"2025-03-14","end_dtc":"2025-03-14","visit":null},{"seq":"384","trt":"IRBESARTAN","dose":"300.0","doseu":null,"dosef":"QD","route":"ORAL","start_dtc":"2025-03-15","end_dtc":"2025-03-15","visit":null},{"seq":"385","trt":"IRBESARTAN","dose":"300.0","doseu":null,"dosef":"QD","route":"ORAL","start_dtc":"2025-03-16","end_dtc":"2025-03-16","visit":null},{"seq":"386","trt":"IRBESARTAN","dose":"300.0","doseu":null,"dosef":"QD","route":"ORAL","start_dtc":"2025-03-17","end_dtc":"2025-03-17","visit":null},{"seq":"387","trt":"IRBESARTAN","dose":"300.0","doseu":null,"dosef":"QD","route":"ORAL","start_dtc":"2025-03-18","end_dtc":"2025-03-18","visit":null},{"seq":"388","trt":"IRBESARTAN","dose":"300.0","doseu":null,"dosef":"QD","route":"ORAL","start_dtc":"2025-03-19","end_dtc":"2025-03-19","visit":null},{"seq":"389","trt":"IRBESARTAN","dose":"300.0","doseu":null,"dosef":"QD","route":"ORAL","start_dtc":"2025-03-20","end_dtc":"2025-03-20","visit":null},{"seq":"390","trt":"IRBESARTAN","dose":"300.0","doseu":null,"dosef":"QD","route":"ORAL","start_dtc":"2025-03-21","end_dtc":"2025-03-21","visit":null},{"seq":"391","trt":"IRBESARTAN","dose":"300.0","doseu":null,"dosef":"QD","route":"ORAL","start_dtc":"2025-03-22","end_dtc":"2025-03-22","visit":null},{"seq":"392","trt":"IRBESARTAN","dose":"300.0","doseu":null,"dosef":"QD","route":"ORAL","start_dtc":"2025-03-23","end_dtc":"2025-03-23","visit":null},{"seq":"393","trt":"IRBESARTAN","dose":"300.0","doseu":null,"dosef":"QD","route":"ORAL","start_dtc":"2025-03-24","end_dtc":"2025-03-24","visit":null},{"seq":"394","trt":"IRBESARTAN","dose":"300.0","doseu":null,"dosef":"QD","route":"ORAL","start_dtc":"2025-03-25","end_dtc":"2025-03-25","visit":null},{"seq":"395","trt":"IRBESARTAN","dose":"300.0","doseu":null,"dosef":"QD","route":"ORAL","start_dtc":"2025-03-26","end_dtc":"2025-03-26","visit":null},{"seq":"396","trt":"IRBESARTAN","dose":"300.0","doseu":null,"dosef":"QD","route":"ORAL","start_dtc":"2025-03-27","end_dtc":"2025-03-27","visit":null},{"seq":"397","trt":"IRBESARTAN","dose":"300.0","doseu":null,"dosef":"QD","route":"ORAL","start_dtc":"2025-03-28","end_dtc":"2025-03-28","visit":null},{"seq":"398","trt":"IRBESARTAN","dose":"300.0","doseu":null,"dosef":"QD","route":"ORAL","start_dtc":"2025-03-29","end_dtc":"2025-03-29","visit":null},{"seq":"399","trt":"IRBESARTAN","dose":"300.0","doseu":null,"dosef":"QD","route":"ORAL","start_dtc":"2025-03-30","end_dtc":"2025-03-30","visit":null},{"seq":"400","trt":"IRBESARTAN","dose":"300.0","doseu":null,"dosef":"QD","route":"ORAL","start_dtc":"2025-03-31","end_dtc":"2025-03-31","visit":null},{"seq":"401","trt":"IRBESARTAN","dose":"300.0","doseu":null,"dosef":"QD","route":"ORAL","start_dtc":"2025-04-01","end_dtc":"2025-04-01","visit":null},{"seq":"402","trt":"IRBESARTAN","dose":"300.0","doseu":null,"dosef":"QD","route":"ORAL","start_dtc":"2025-04-02","end_dtc":"2025-04-02","visit":null},{"seq":"403","trt":"IRBESARTAN","dose":"300.0","doseu":null,"dosef":"QD","route":"ORAL","start_dtc":"2025-04-03","end_dtc":"2025-04-03","visit":null},{"seq":"404","trt":"IRBESARTAN","dose":"300.0","doseu":null,"dosef":"QD","route":"ORAL","start_dtc":"2025-04-04","end_dtc":"2025-04-04","visit":"WEEK 58"},{"seq":"405","trt":"IRBESARTAN","dose":"300.0","doseu":null,"dosef":"QD","route":"ORAL","start_dtc":"2025-04-05","end_dtc":"2025-04-05","visit":"WEEK 58"},{"seq":"406","trt":"IRBESARTAN","dose":"300.0","doseu":null,"dosef":"QD","route":"ORAL","start_dtc":"2025-04-06","end_dtc":"2025-04-06","visit":"WEEK 58"},{"seq":"407","trt":"IRBESARTAN","dose":"300.0","doseu":null,"dosef":"QD","route":"ORAL","start_dtc":"2025-04-07","end_dtc":"2025-04-07","visit":"WEEK 58"},{"seq":"408","trt":"IRBESARTAN","dose":"300.0","doseu":null,"dosef":"QD","route":"ORAL","start_dtc":"2025-04-08","end_dtc":"2025-04-08","visit":"WEEK 58"},{"seq":"409","trt":"IRBESARTAN","dose":"300.0","doseu":null,"dosef":"QD","route":"ORAL","start_dtc":"2025-04-09","end_dtc":"2025-04-09","visit":"WEEK 58"},{"seq":"410","trt":"IRBESARTAN","dose":"300.0","doseu":null,"dosef":"QD","route":"ORAL","start_dtc":"2025-04-10","end_dtc":"2025-04-10","visit":"WEEK 58"},{"seq":"411","trt":"IRBESARTAN","dose":"300.0","doseu":null,"dosef":"QD","route":"ORAL","start_dtc":"2025-04-11","end_dtc":"2025-04-11","visit":null},{"seq":"412","trt":"IRBESARTAN","dose":"300.0","doseu":null,"dosef":"QD","route":"ORAL","start_dtc":"2025-04-12","end_dtc":"2025-04-12","visit":null},{"seq":"413","trt":"IRBESARTAN","dose":"300.0","doseu":null,"dosef":"QD","route":"ORAL","start_dtc":"2025-04-13","end_dtc":"2025-04-13","visit":null},{"seq":"414","trt":"IRBESARTAN","dose":"300.0","doseu":null,"dosef":"QD","route":"ORAL","start_dtc":"2025-04-14","end_dtc":"2025-04-14","visit":null},{"seq":"415","trt":"IRBESARTAN","dose":"300.0","doseu":null,"dosef":"QD","route":"ORAL","start_dtc":"2025-04-15","end_dtc":"2025-04-15","visit":null},{"seq":"416","trt":"IRBESARTAN","dose":"300.0","doseu":null,"dosef":"QD","route":"ORAL","start_dtc":"2025-04-16","end_dtc":"2025-04-16","visit":null},{"seq":"417","trt":"IRBESARTAN","dose":"300.0","doseu":null,"dosef":"QD","route":"ORAL","start_dtc":"2025-04-17","end_dtc":"2025-04-17","visit":null},{"seq":"418","trt":"IRBESARTAN","dose":"300.0","doseu":null,"dosef":"QD","route":"ORAL","start_dtc":"2025-04-18","end_dtc":"2025-04-18","visit":null},{"seq":"419","trt":"IRBESARTAN","dose":"300.0","doseu":null,"dosef":"QD","route":"ORAL","start_dtc":"2025-04-19","end_dtc":"2025-04-19","visit":null},{"seq":"420","trt":"IRBESARTAN","dose":"300.0","doseu":null,"dosef":"QD","route":"ORAL","start_dtc":"2025-04-20","end_dtc":"2025-04-20","visit":null},{"seq":"421","trt":"IRBESARTAN","dose":"300.0","doseu":null,"dosef":"QD","route":"ORAL","start_dtc":"2025-04-21","end_dtc":"2025-04-21","visit":null},{"seq":"422","trt":"IRBESARTAN","dose":"300.0","doseu":null,"dosef":"QD","route":"ORAL","start_dtc":"2025-04-22","end_dtc":"2025-04-22","visit":null},{"seq":"423","trt":"IRBESARTAN","dose":"300.0","doseu":null,"dosef":"QD","route":"ORAL","start_dtc":"2025-04-23","end_dtc":"2025-04-23","visit":null},{"seq":"424","trt":"IRBESARTAN","dose":"300.0","doseu":null,"dosef":"QD","route":"ORAL","start_dtc":"2025-04-24","end_dtc":"2025-04-24","visit":null},{"seq":"425","trt":"IRBESARTAN","dose":"300.0","doseu":null,"dosef":"QD","route":"ORAL","start_dtc":"2025-04-25","end_dtc":"2025-04-25","visit":null},{"seq":"426","trt":"IRBESARTAN","dose":"300.0","doseu":null,"dosef":"QD","route":"ORAL","start_dtc":"2025-04-26","end_dtc":"2025-04-26","visit":null},{"seq":"427","trt":"IRBESARTAN","dose":"300.0","doseu":null,"dosef":"QD","route":"ORAL","start_dtc":"2025-04-27","end_dtc":"2025-04-27","visit":null},{"seq":"428","trt":"IRBESARTAN","dose":"300.0","doseu":null,"dosef":"QD","route":"ORAL","start_dtc":"2025-04-28","end_dtc":"2025-04-28","visit":null},{"seq":"429","trt":"IRBESARTAN","dose":"300.0","doseu":null,"dosef":"QD","route":"ORAL","start_dtc":"2025-04-29","end_dtc":"2025-04-29","visit":null},{"seq":"430","trt":"IRBESARTAN","dose":"300.0","doseu":null,"dosef":"QD","route":"ORAL","start_dtc":"2025-04-30","end_dtc":"2025-04-30","visit":null},{"seq":"431","trt":"IRBESARTAN","dose":"300.0","doseu":null,"dosef":"QD","route":"ORAL","start_dtc":"2025-05-01","end_dtc":"2025-05-01","visit":null},{"seq":"432","trt":"IRBESARTAN","dose":"300.0","doseu":null,"dosef":"QD","route":"ORAL","start_dtc":"2025-05-02","end_dtc":"2025-05-02","visit":null},{"seq":"433","trt":"IRBESARTAN","dose":"300.0","doseu":null,"dosef":"QD","route":"ORAL","start_dtc":"2025-05-03","end_dtc":"2025-05-03","visit":null},{"seq":"434","trt":"IRBESARTAN","dose":"300.0","doseu":null,"dosef":"QD","route":"ORAL","start_dtc":"2025-05-04","end_dtc":"2025-05-04","visit":null},{"seq":"435","trt":"IRBESARTAN","dose":"300.0","doseu":null,"dosef":"QD","route":"ORAL","start_dtc":"2025-05-05","end_dtc":"2025-05-05","visit":null},{"seq":"436","trt":"IRBESARTAN","dose":"300.0","doseu":null,"dosef":"QD","route":"ORAL","start_dtc":"2025-05-06","end_dtc":"2025-05-06","visit":null},{"seq":"437","trt":"IRBESARTAN","dose":"300.0","doseu":null,"dosef":"QD","route":"ORAL","start_dtc":"2025-05-07","end_dtc":"2025-05-07","visit":null},{"seq":"438","trt":"IRBESARTAN","dose":"300.0","doseu":null,"dosef":"QD","route":"ORAL","start_dtc":"2025-05-08","end_dtc":"2025-05-08","visit":null},{"seq":"439","trt":"IRBESARTAN","dose":"300.0","doseu":null,"dosef":"QD","route":"ORAL","start_dtc":"2025-05-09","end_dtc":"2025-05-09","visit":null},{"seq":"440","trt":"IRBESARTAN","dose":"300.0","doseu":null,"dosef":"QD","route":"ORAL","start_dtc":"2025-05-10","end_dtc":"2025-05-10","visit":null},{"seq":"441","trt":"IRBESARTAN","dose":"300.0","doseu":null,"dosef":"QD","route":"ORAL","start_dtc":"2025-05-11","end_dtc":"2025-05-11","visit":null},{"seq":"442","trt":"IRBESARTAN","dose":"300.0","doseu":null,"dosef":"QD","route":"ORAL","start_dtc":"2025-05-12","end_dtc":"2025-05-12","visit":null},{"seq":"443","trt":"IRBESARTAN","dose":"300.0","doseu":null,"dosef":"QD","route":"ORAL","start_dtc":"2025-05-13","end_dtc":"2025-05-13","visit":null},{"seq":"444","trt":"IRBESARTAN","dose":"300.0","doseu":null,"dosef":"QD","route":"ORAL","start_dtc":"2025-05-14","end_dtc":"2025-05-14","visit":null},{"seq":"445","trt":"IRBESARTAN","dose":"300.0","doseu":null,"dosef":"QD","route":"ORAL","start_dtc":"2025-05-15","end_dtc":"2025-05-15","visit":null},{"seq":"446","trt":"IRBESARTAN","dose":"300.0","doseu":null,"dosef":"QD","route":"ORAL","start_dtc":"2025-05-16","end_dtc":"2025-05-16","visit":null},{"seq":"447","trt":"IRBESARTAN","dose":"300.0","doseu":null,"dosef":"QD","route":"ORAL","start_dtc":"2025-05-17","end_dtc":"2025-05-17","visit":null},{"seq":"448","trt":"IRBESARTAN","dose":"300.0","doseu":null,"dosef":"QD","route":"ORAL","start_dtc":"2025-05-18","end_dtc":"2025-05-18","visit":null},{"seq":"449","trt":"IRBESARTAN","dose":"300.0","doseu":null,"dosef":"QD","route":"ORAL","start_dtc":"2025-05-19","end_dtc":"2025-05-19","visit":null},{"seq":"450","trt":"IRBESARTAN","dose":"300.0","doseu":null,"dosef":"QD","route":"ORAL","start_dtc":"2025-05-20","end_dtc":"2025-05-20","visit":null},{"seq":"451","trt":"IRBESARTAN","dose":"300.0","doseu":null,"dosef":"QD","route":"ORAL","start_dtc":"2025-05-21","end_dtc":"2025-05-21","visit":null},{"seq":"452","trt":"IRBESARTAN","dose":"300.0","doseu":null,"dosef":"QD","route":"ORAL","start_dtc":"2025-05-22","end_dtc":"2025-05-22","visit":null},{"seq":"453","trt":"IRBESARTAN","dose":"300.0","doseu":null,"dosef":"QD","route":"ORAL","start_dtc":"2025-05-23","end_dtc":"2025-05-23","visit":null},{"seq":"454","trt":"IRBESARTAN","dose":"300.0","doseu":null,"dosef":"QD","route":"ORAL","start_dtc":"2025-05-24","end_dtc":"2025-05-24","visit":null},{"seq":"455","trt":"IRBESARTAN","dose":"300.0","doseu":null,"dosef":"QD","route":"ORAL","start_dtc":"2025-05-25","end_dtc":"2025-05-25","visit":null},{"seq":"456","trt":"IRBESARTAN","dose":"300.0","doseu":null,"dosef":"QD","route":"ORAL","start_dtc":"2025-05-26","end_dtc":"2025-05-26","visit":null},{"seq":"457","trt":"IRBESARTAN","dose":"300.0","doseu":null,"dosef":"QD","route":"ORAL","start_dtc":"2025-05-27","end_dtc":"2025-05-27","visit":null},{"seq":"458","trt":"IRBESARTAN","dose":"300.0","doseu":null,"dosef":"QD","route":"ORAL","start_dtc":"2025-05-28","end_dtc":"2025-05-28","visit":null},{"seq":"459","trt":"IRBESARTAN","dose":"300.0","doseu":null,"dosef":"QD","route":"ORAL","start_dtc":"2025-05-29","end_dtc":"2025-05-29","visit":null},{"seq":"460","trt":"IRBESARTAN","dose":"300.0","doseu":null,"dosef":"QD","route":"ORAL","start_dtc":"2025-05-30","end_dtc":"2025-05-30","visit":null},{"seq":"461","trt":"IRBESARTAN","dose":"300.0","doseu":null,"dosef":"QD","route":"ORAL","start_dtc":"2025-05-31","end_dtc":"2025-05-31","visit":null},{"seq":"462","trt":"IRBESARTAN","dose":"300.0","doseu":null,"dosef":"QD","route":"ORAL","start_dtc":"2025-06-01","end_dtc":"2025-06-01","visit":null},{"seq":"463","trt":"IRBESARTAN","dose":"300.0","doseu":null,"dosef":"QD","route":"ORAL","start_dtc":"2025-06-02","end_dtc":"2025-06-02","visit":null},{"seq":"464","trt":"IRBESARTAN","dose":"300.0","doseu":null,"dosef":"QD","route":"ORAL","start_dtc":"2025-06-03","end_dtc":"2025-06-03","visit":null},{"seq":"465","trt":"IRBESARTAN","dose":"300.0","doseu":null,"dosef":"QD","route":"ORAL","start_dtc":"2025-06-04","end_dtc":"2025-06-04","visit":null},{"seq":"466","trt":"IRBESARTAN","dose":"300.0","doseu":null,"dosef":"QD","route":"ORAL","start_dtc":"2025-06-05","end_dtc":"2025-06-05","visit":null},{"seq":"467","trt":"IRBESARTAN","dose":"300.0","doseu":null,"dosef":"QD","route":"ORAL","start_dtc":"2025-06-06","end_dtc":"2025-06-06","visit":null},{"seq":"468","trt":"IRBESARTAN","dose":"300.0","doseu":null,"dosef":"QD","route":"ORAL","start_dtc":"2025-06-07","end_dtc":"2025-06-07","visit":null},{"seq":"469","trt":"IRBESARTAN","dose":"300.0","doseu":null,"dosef":"QD","route":"ORAL","start_dtc":"2025-06-08","end_dtc":"2025-06-08","visit":null},{"seq":"470","trt":"IRBESARTAN","dose":"300.0","doseu":null,"dosef":"QD","route":"ORAL","start_dtc":"2025-06-09","end_dtc":"2025-06-09","visit":null},{"seq":"471","trt":"IRBESARTAN","dose":"300.0","doseu":null,"dosef":"QD","route":"ORAL","start_dtc":"2025-06-10","end_dtc":"2025-06-10","visit":null},{"seq":"472","trt":"IRBESARTAN","dose":"300.0","doseu":null,"dosef":"QD","route":"ORAL","start_dtc":"2025-06-11","end_dtc":"2025-06-11","visit":null},{"seq":"473","trt":"IRBESARTAN","dose":"300.0","doseu":null,"dosef":"QD","route":"ORAL","start_dtc":"2025-06-12","end_dtc":"2025-06-12","visit":null},{"seq":"474","trt":"IRBESARTAN","dose":"300.0","doseu":null,"dosef":"QD","route":"ORAL","start_dtc":"2025-06-13","end_dtc":"2025-06-13","visit":null},{"seq":"475","trt":"IRBESARTAN","dose":"300.0","doseu":null,"dosef":"QD","route":"ORAL","start_dtc":"2025-06-14","end_dtc":"2025-06-14","visit":null},{"seq":"476","trt":"IRBESARTAN","dose":"300.0","doseu":null,"dosef":"QD","route":"ORAL","start_dtc":"2025-06-15","end_dtc":"2025-06-15","visit":null},{"seq":"477","trt":"IRBESARTAN","dose":"300.0","doseu":null,"dosef":"QD","route":"ORAL","start_dtc":"2025-06-16","end_dtc":"2025-06-16","visit":null},{"seq":"478","trt":"IRBESARTAN","dose":"300.0","doseu":null,"dosef":"QD","route":"ORAL","start_dtc":"2025-06-17","end_dtc":"2025-06-17","visit":null},{"seq":"479","trt":"IRBESARTAN","dose":"300.0","doseu":null,"dosef":"QD","route":"ORAL","start_dtc":"2025-06-18","end_dtc":"2025-06-18","visit":null},{"seq":"480","trt":"IRBESARTAN","dose":"300.0","doseu":null,"dosef":"QD","route":"ORAL","start_dtc":"2025-06-19","end_dtc":"2025-06-19","visit":null},{"seq":"481","trt":"IRBESARTAN","dose":"300.0","doseu":null,"dosef":"QD","route":"ORAL","start_dtc":"2025-06-20","end_dtc":"2025-06-20","visit":null},{"seq":"482","trt":"IRBESARTAN","dose":"300.0","doseu":null,"dosef":"QD","route":"ORAL","start_dtc":"2025-06-21","end_dtc":"2025-06-21","visit":null},{"seq":"483","trt":"IRBESARTAN","dose":"300.0","doseu":null,"dosef":"QD","route":"ORAL","start_dtc":"2025-06-22","end_dtc":"2025-06-22","visit":null},{"seq":"484","trt":"IRBESARTAN","dose":"300.0","doseu":null,"dosef":"QD","route":"ORAL","start_dtc":"2025-06-23","end_dtc":"2025-06-23","visit":null},{"seq":"485","trt":"IRBESARTAN","dose":"300.0","doseu":null,"dosef":"QD","route":"ORAL","start_dtc":"2025-06-24","end_dtc":"2025-06-24","visit":null},{"seq":"486","trt":"IRBESARTAN","dose":"300.0","doseu":null,"dosef":"QD","route":"ORAL","start_dtc":"2025-06-25","end_dtc":"2025-06-25","visit":null},{"seq":"487","trt":"IRBESARTAN","dose":"300.0","doseu":null,"dosef":"QD","route":"ORAL","start_dtc":"2025-06-26","end_dtc":"2025-06-26","visit":null},{"seq":"488","trt":"IRBESARTAN","dose":"300.0","doseu":null,"dosef":"QD","route":"ORAL","start_dtc":"2025-06-27","end_dtc":"2025-06-27","visit":null},{"seq":"489","trt":"IRBESARTAN","dose":"300.0","doseu":null,"dosef":"QD","route":"ORAL","start_dtc":"2025-06-28","end_dtc":"2025-06-28","visit":null},{"seq":"490","trt":"IRBESARTAN","dose":"300.0","doseu":null,"dosef":"QD","route":"ORAL","start_dtc":"2025-06-29","end_dtc":"2025-06-29","visit":null},{"seq":"491","trt":"IRBESARTAN","dose":"300.0","doseu":null,"dosef":"QD","route":"ORAL","start_dtc":"2025-06-30","end_dtc":"2025-06-30","visit":null},{"seq":"492","trt":"IRBESARTAN","dose":"300.0","doseu":null,"dosef":"QD","route":"ORAL","start_dtc":"2025-07-01","end_dtc":"2025-07-01","visit":null},{"seq":"493","trt":"IRBESARTAN","dose":"300.0","doseu":null,"dosef":"QD","route":"ORAL","start_dtc":"2025-07-02","end_dtc":"2025-07-02","visit":null},{"seq":"494","trt":"IRBESARTAN","dose":"300.0","doseu":null,"dosef":"QD","route":"ORAL","start_dtc":"2025-07-03","end_dtc":"2025-07-03","visit":null},{"seq":"495","trt":"IRBESARTAN","dose":"300.0","doseu":null,"dosef":"QD","route":"ORAL","start_dtc":"2025-07-04","end_dtc":"2025-07-04","visit":null},{"seq":"496","trt":"IRBESARTAN","dose":"300.0","doseu":null,"dosef":"QD","route":"ORAL","start_dtc":"2025-07-05","end_dtc":"2025-07-05","visit":null},{"seq":"497","trt":"IRBESARTAN","dose":"300.0","doseu":null,"dosef":"QD","route":"ORAL","start_dtc":"2025-07-06","end_dtc":"2025-07-06","visit":null},{"seq":"498","trt":"IRBESARTAN","dose":"300.0","doseu":null,"dosef":"QD","route":"ORAL","start_dtc":"2025-07-07","end_dtc":"2025-07-07","visit":null},{"seq":"499","trt":"IRBESARTAN","dose":"300.0","doseu":null,"dosef":"QD","route":"ORAL","start_dtc":"2025-07-08","end_dtc":"2025-07-08","visit":null},{"seq":"500","trt":"IRBESARTAN","dose":"300.0","doseu":null,"dosef":"QD","route":"ORAL","start_dtc":"2025-07-09","end_dtc":"2025-07-09","visit":null},{"seq":"501","trt":"IRBESARTAN","dose":"300.0","doseu":null,"dosef":"QD","route":"ORAL","start_dtc":"2025-07-10","end_dtc":"2025-07-10","visit":null},{"seq":"502","trt":"IRBESARTAN","dose":"300.0","doseu":null,"dosef":"QD","route":"ORAL","start_dtc":"2025-07-11","end_dtc":"2025-07-11","visit":null},{"seq":"503","trt":"IRBESARTAN","dose":"300.0","doseu":null,"dosef":"QD","route":"ORAL","start_dtc":"2025-07-12","end_dtc":"2025-07-12","visit":null},{"seq":"504","trt":"IRBESARTAN","dose":"300.0","doseu":null,"dosef":"QD","route":"ORAL","start_dtc":"2025-07-13","end_dtc":"2025-07-13","visit":null},{"seq":"505","trt":"IRBESARTAN","dose":"300.0","doseu":null,"dosef":"QD","route":"ORAL","start_dtc":"2025-07-14","end_dtc":"2025-07-14","visit":null},{"seq":"506","trt":"IRBESARTAN","dose":"300.0","doseu":null,"dosef":"QD","route":"ORAL","start_dtc":"2025-07-15","end_dtc":"2025-07-15","visit":null},{"seq":"507","trt":"IRBESARTAN","dose":"300.0","doseu":null,"dosef":"QD","route":"ORAL","start_dtc":"2025-07-16","end_dtc":"2025-07-16","visit":null},{"seq":"508","trt":"IRBESARTAN","dose":"300.0","doseu":null,"dosef":"QD","route":"ORAL","start_dtc":"2025-07-17","end_dtc":"2025-07-17","visit":null},{"seq":"509","trt":"IRBESARTAN","dose":"300.0","doseu":null,"dosef":"QD","route":"ORAL","start_dtc":"2025-07-18","end_dtc":"2025-07-18","visit":null},{"seq":"510","trt":"IRBESARTAN","dose":null,"doseu":null,"dosef":"QD","route":"ORAL","start_dtc":"2025-07-19","end_dtc":"2025-07-19","visit":null},{"seq":"511","trt":"IRBESARTAN","dose":"300.0","doseu":null,"dosef":"QD","route":"ORAL","start_dtc":"2025-07-20","end_dtc":"2025-07-20","visit":null},{"seq":"512","trt":"IRBESARTAN","dose":"300.0","doseu":null,"dosef":"QD","route":"ORAL","start_dtc":"2025-07-21","end_dtc":"2025-07-21","visit":null},{"seq":"513","trt":"IRBESARTAN","dose":"300.0","doseu":null,"dosef":"QD","route":"ORAL","start_dtc":"2025-07-22","end_dtc":"2025-07-22","visit":null},{"seq":"514","trt":"IRBESARTAN","dose":"300.0","doseu":null,"dosef":"QD","route":"ORAL","start_dtc":"2025-07-23","end_dtc":"2025-07-23","visit":null},{"seq":"515","trt":"IRBESARTAN","dose":"300.0","doseu":null,"dosef":"QD","route":"ORAL","start_dtc":"2025-07-24","end_dtc":"2025-07-24","visit":null},{"seq":"516","trt":"IRBESARTAN","dose":"300.0","doseu":null,"dosef":"QD","route":"ORAL","start_dtc":"2025-07-25","end_dtc":"2025-07-25","visit":null},{"seq":"517","trt":"IRBESARTAN","dose":"300.0","doseu":null,"dosef":"QD","route":"ORAL","start_dtc":"2025-07-26","end_dtc":"2025-07-26","visit":null},{"seq":"518","trt":"IRBESARTAN","dose":"300.0","doseu":null,"dosef":"QD","route":"ORAL","start_dtc":"2025-07-27","end_dtc":"2025-07-27","visit":null},{"seq":"519","trt":"IRBESARTAN","dose":"300.0","doseu":null,"dosef":"QD","route":"ORAL","start_dtc":"2025-07-28","end_dtc":"2025-07-28","visit":null},{"seq":"520","trt":"IRBESARTAN","dose":"300.0","doseu":null,"dosef":"QD","route":"ORAL","start_dtc":"2025-07-29","end_dtc":"2025-07-29","visit":null},{"seq":"521","trt":"IRBESARTAN","dose":"300.0","doseu":null,"dosef":"QD","route":"ORAL","start_dtc":"2025-07-30","end_dtc":"2025-07-30","visit":null},{"seq":"522","trt":"IRBESARTAN","dose":"300.0","doseu":null,"dosef":"QD","route":"ORAL","start_dtc":"2025-07-31","end_dtc":"2025-07-31","visit":null},{"seq":"523","trt":"IRBESARTAN","dose":"300.0","doseu":null,"dosef":"QD","route":"ORAL","start_dtc":"2025-08-01","end_dtc":"2025-08-01","visit":null},{"seq":"524","trt":"IRBESARTAN","dose":"300.0","doseu":null,"dosef":"QD","route":"ORAL","start_dtc":"2025-08-02","end_dtc":"2025-08-02","visit":null},{"seq":"525","trt":"IRBESARTAN","dose":"300.0","doseu":null,"dosef":"QD","route":"ORAL","start_dtc":"2025-08-03","end_dtc":"2025-08-03","visit":null},{"seq":"526","trt":"IRBESARTAN","dose":"300.0","doseu":null,"dosef":"QD","route":"ORAL","start_dtc":"2025-08-04","end_dtc":"2025-08-04","visit":null},{"seq":"527","trt":"IRBESARTAN","dose":"300.0","doseu":null,"dosef":"QD","route":"ORAL","start_dtc":"2025-08-05","end_dtc":"2025-08-05","visit":null},{"seq":"528","trt":"IRBESARTAN","dose":null,"doseu":null,"dosef":"QD","route":"ORAL","start_dtc":"2025-08-06","end_dtc":"2025-08-06","visit":null},{"seq":"529","trt":"IRBESARTAN","dose":"300.0","doseu":null,"dosef":"QD","route":"ORAL","start_dtc":"2025-08-07","end_dtc":"2025-08-07","visit":null},{"seq":"530","trt":"IRBESARTAN","dose":"300.0","doseu":null,"dosef":"QD","route":"ORAL","start_dtc":"2025-08-08","end_dtc":"2025-08-08","visit":null},{"seq":"531","trt":"IRBESARTAN","dose":"300.0","doseu":null,"dosef":"QD","route":"ORAL","start_dtc":"2025-08-09","end_dtc":"2025-08-09","visit":null},{"seq":"532","trt":"IRBESARTAN","dose":"300.0","doseu":null,"dosef":"QD","route":"ORAL","start_dtc":"2025-08-10","end_dtc":"2025-08-10","visit":null},{"seq":"533","trt":"IRBESARTAN","dose":"300.0","doseu":null,"dosef":"QD","route":"ORAL","start_dtc":"2025-08-11","end_dtc":"2025-08-11","visit":null},{"seq":"534","trt":"IRBESARTAN","dose":"300.0","doseu":null,"dosef":"QD","route":"ORAL","start_dtc":"2025-08-12","end_dtc":"2025-08-12","visit":null},{"seq":"535","trt":"IRBESARTAN","dose":"300.0","doseu":null,"dosef":"QD","route":"ORAL","start_dtc":"2025-08-13","end_dtc":"2025-08-13","visit":null},{"seq":"536","trt":"IRBESARTAN","dose":"300.0","doseu":null,"dosef":"QD","route":"ORAL","start_dtc":"2025-08-14","end_dtc":"2025-08-14","visit":null},{"seq":"537","trt":"IRBESARTAN","dose":"300.0","doseu":null,"dosef":"QD","route":"ORAL","start_dtc":"2025-08-15","end_dtc":"2025-08-15","visit":null},{"seq":"538","trt":"IRBESARTAN","dose":"300.0","doseu":null,"dosef":"QD","route":"ORAL","start_dtc":"2025-08-16","end_dtc":"2025-08-16","visit":null},{"seq":"539","trt":"IRBESARTAN","dose":"300.0","doseu":null,"dosef":"QD","route":"ORAL","start_dtc":"2025-08-17","end_dtc":"2025-08-17","visit":null},{"seq":"540","trt":"IRBESARTAN","dose":"300.0","doseu":null,"dosef":"QD","route":"ORAL","start_dtc":"2025-08-18","end_dtc":"2025-08-18","visit":null},{"seq":"541","trt":"IRBESARTAN","dose":"300.0","doseu":null,"dosef":"QD","route":"ORAL","start_dtc":"2025-08-19","end_dtc":"2025-08-19","visit":null},{"seq":"542","trt":"IRBESARTAN","dose":"300.0","doseu":null,"dosef":"QD","route":"ORAL","start_dtc":"2025-08-20","end_dtc":"2025-08-20","visit":null},{"seq":"543","trt":"IRBESARTAN","dose":"300.0","doseu":null,"dosef":"QD","route":"ORAL","start_dtc":"2025-08-21","end_dtc":"2025-08-21","visit":null},{"seq":"544","trt":"IRBESARTAN","dose":"300.0","doseu":null,"dosef":"QD","route":"ORAL","start_dtc":"2025-08-22","end_dtc":"2025-08-22","visit":null},{"seq":"545","trt":"IRBESARTAN","dose":"300.0","doseu":null,"dosef":"QD","route":"ORAL","start_dtc":"2025-08-23","end_dtc":"2025-08-23","visit":null},{"seq":"546","trt":"IRBESARTAN","dose":"300.0","doseu":null,"dosef":"QD","route":"ORAL","start_dtc":"2025-08-24","end_dtc":"2025-08-24","visit":null},{"seq":"547","trt":"IRBESARTAN","dose":"300.0","doseu":null,"dosef":"QD","route":"ORAL","start_dtc":"2025-08-25","end_dtc":"2025-08-25","visit":null},{"seq":"548","trt":"IRBESARTAN","dose":"300.0","doseu":null,"dosef":"QD","route":"ORAL","start_dtc":"2025-08-26","end_dtc":"2025-08-26","visit":null},{"seq":"549","trt":"IRBESARTAN","dose":"300.0","doseu":null,"dosef":"QD","route":"ORAL","start_dtc":"2025-08-27","end_dtc":"2025-08-27","visit":null},{"seq":"550","trt":"IRBESARTAN","dose":"300.0","doseu":null,"dosef":"QD","route":"ORAL","start_dtc":"2025-08-28","end_dtc":"2025-08-28","visit":null},{"seq":"551","trt":"IRBESARTAN","dose":"300.0","doseu":null,"dosef":"QD","route":"ORAL","start_dtc":"2025-08-29","end_dtc":"2025-08-29","visit":null},{"seq":"552","trt":"IRBESARTAN","dose":"300.0","doseu":null,"dosef":"QD","route":"ORAL","start_dtc":"2025-08-30","end_dtc":"2025-08-30","visit":null},{"seq":"553","trt":"IRBESARTAN","dose":"300.0","doseu":null,"dosef":"QD","route":"ORAL","start_dtc":"2025-08-31","end_dtc":"2025-08-31","visit":null},{"seq":"554","trt":"IRBESARTAN","dose":"300.0","doseu":null,"dosef":"QD","route":"ORAL","start_dtc":"2025-09-01","end_dtc":"2025-09-01","visit":null},{"seq":"555","trt":"IRBESARTAN","dose":"300.0","doseu":null,"dosef":"QD","route":"ORAL","start_dtc":"2025-09-02","end_dtc":"2025-09-02","visit":null},{"seq":"556","trt":"IRBESARTAN","dose":null,"doseu":null,"dosef":"QD","route":"ORAL","start_dtc":"2025-09-03","end_dtc":"2025-09-03","visit":null},{"seq":"557","trt":"IRBESARTAN","dose":"300.0","doseu":null,"dosef":"QD","route":"ORAL","start_dtc":"2025-09-04","end_dtc":"2025-09-04","visit":null},{"seq":"558","trt":"IRBESARTAN","dose":"300.0","doseu":null,"dosef":"QD","route":"ORAL","start_dtc":"2025-09-05","end_dtc":"2025-09-05","visit":null},{"seq":"559","trt":"IRBESARTAN","dose":"300.0","doseu":null,"dosef":"QD","route":"ORAL","start_dtc":"2025-09-06","end_dtc":"2025-09-06","visit":null},{"seq":"560","trt":"IRBESARTAN","dose":"300.0","doseu":null,"dosef":"QD","route":"ORAL","start_dtc":"2025-09-07","end_dtc":"2025-09-07","visit":null},{"seq":"561","trt":"IRBESARTAN","dose":"300.0","doseu":null,"dosef":"QD","route":"ORAL","start_dtc":"2025-09-08","end_dtc":"2025-09-08","visit":null},{"seq":"562","trt":"IRBESARTAN","dose":"300.0","doseu":null,"dosef":"QD","route":"ORAL","start_dtc":"2025-09-09","end_dtc":"2025-09-09","visit":null},{"seq":"563","trt":"IRBESARTAN","dose":"300.0","doseu":null,"dosef":"QD","route":"ORAL","start_dtc":"2025-09-10","end_dtc":"2025-09-10","visit":null},{"seq":"564","trt":"IRBESARTAN","dose":"300.0","doseu":null,"dosef":"QD","route":"ORAL","start_dtc":"2025-09-11","end_dtc":"2025-09-11","visit":null},{"seq":"565","trt":"IRBESARTAN","dose":"300.0","doseu":null,"dosef":"QD","route":"ORAL","start_dtc":"2025-09-12","end_dtc":"2025-09-12","visit":null},{"seq":"566","trt":"IRBESARTAN","dose":"300.0","doseu":null,"dosef":"QD","route":"ORAL","start_dtc":"2025-09-13","end_dtc":"2025-09-13","visit":null},{"seq":"567","trt":"IRBESARTAN","dose":"300.0","doseu":null,"dosef":"QD","route":"ORAL","start_dtc":"2025-09-14","end_dtc":"2025-09-14","visit":null},{"seq":"568","trt":"IRBESARTAN","dose":"300.0","doseu":null,"dosef":"QD","route":"ORAL","start_dtc":"2025-09-15","end_dtc":"2025-09-15","visit":null},{"seq":"569","trt":"IRBESARTAN","dose":"300.0","doseu":null,"dosef":"QD","route":"ORAL","start_dtc":"2025-09-16","end_dtc":"2025-09-16","visit":null},{"seq":"570","trt":"IRBESARTAN","dose":"300.0","doseu":null,"dosef":"QD","route":"ORAL","start_dtc":"2025-09-17","end_dtc":"2025-09-17","visit":null},{"seq":"571","trt":"IRBESARTAN","dose":"300.0","doseu":null,"dosef":"QD","route":"ORAL","start_dtc":"2025-09-18","end_dtc":"2025-09-18","visit":null},{"seq":"572","trt":"IRBESARTAN","dose":"300.0","doseu":null,"dosef":"QD","route":"ORAL","start_dtc":"2025-09-19","end_dtc":"2025-09-19","visit":null},{"seq":"573","trt":"IRBESARTAN","dose":"300.0","doseu":null,"dosef":"QD","route":"ORAL","start_dtc":"2025-09-20","end_dtc":"2025-09-20","visit":null},{"seq":"574","trt":"IRBESARTAN","dose":"300.0","doseu":null,"dosef":"QD","route":"ORAL","start_dtc":"2025-09-21","end_dtc":"2025-09-21","visit":null},{"seq":"575","trt":"IRBESARTAN","dose":"300.0","doseu":null,"dosef":"QD","route":"ORAL","start_dtc":"2025-09-22","end_dtc":"2025-09-22","visit":null},{"seq":"576","trt":"IRBESARTAN","dose":"300.0","doseu":null,"dosef":"QD","route":"ORAL","start_dtc":"2025-09-23","end_dtc":"2025-09-23","visit":null},{"seq":"577","trt":"IRBESARTAN","dose":"300.0","doseu":null,"dosef":"QD","route":"ORAL","start_dtc":"2025-09-24","end_dtc":"2025-09-24","visit":null},{"seq":"578","trt":"IRBESARTAN","dose":"300.0","doseu":null,"dosef":"QD","route":"ORAL","start_dtc":"2025-09-25","end_dtc":"2025-09-25","visit":null},{"seq":"579","trt":"IRBESARTAN","dose":"300.0","doseu":null,"dosef":"QD","route":"ORAL","start_dtc":"2025-09-26","end_dtc":"2025-09-26","visit":null},{"seq":"580","trt":"IRBESARTAN","dose":"300.0","doseu":null,"dosef":"QD","route":"ORAL","start_dtc":"2025-09-27","end_dtc":"2025-09-27","visit":null},{"seq":"581","trt":"IRBESARTAN","dose":"300.0","doseu":null,"dosef":"QD","route":"ORAL","start_dtc":"2025-09-28","end_dtc":"2025-09-28","visit":null},{"seq":"582","trt":"IRBESARTAN","dose":"300.0","doseu":null,"dosef":"QD","route":"ORAL","start_dtc":"2025-09-29","end_dtc":"2025-09-29","visit":null},{"seq":"583","trt":"IRBESARTAN","dose":"300.0","doseu":null,"dosef":"QD","route":"ORAL","start_dtc":"2025-09-30","end_dtc":"2025-09-30","visit":null},{"seq":"584","trt":"IRBESARTAN","dose":"300.0","doseu":null,"dosef":"QD","route":"ORAL","start_dtc":"2025-10-01","end_dtc":"2025-10-01","visit":null},{"seq":"585","trt":"IRBESARTAN","dose":"300.0","doseu":null,"dosef":"QD","route":"ORAL","start_dtc":"2025-10-02","end_dtc":"2025-10-02","visit":null},{"seq":"586","trt":"IRBESARTAN","dose":"300.0","doseu":null,"dosef":"QD","route":"ORAL","start_dtc":"2025-10-03","end_dtc":"2025-10-03","visit":"WEEK 84"},{"seq":"587","trt":"IRBESARTAN","dose":"300.0","doseu":null,"dosef":"QD","route":"ORAL","start_dtc":"2025-10-04","end_dtc":"2025-10-04","visit":"WEEK 84"},{"seq":"588","trt":"IRBESARTAN","dose":"300.0","doseu":null,"dosef":"QD","route":"ORAL","start_dtc":"2025-10-05","end_dtc":"2025-10-05","visit":"WEEK 84"},{"seq":"589","trt":"IRBESARTAN","dose":"300.0","doseu":null,"dosef":"QD","route":"ORAL","start_dtc":"2025-10-06","end_dtc":"2025-10-06","visit":"WEEK 84"},{"seq":"590","trt":"IRBESARTAN","dose":"300.0","doseu":null,"dosef":"QD","route":"ORAL","start_dtc":"2025-10-07","end_dtc":"2025-10-07","visit":"WEEK 84"},{"seq":"591","trt":"IRBESARTAN","dose":"300.0","doseu":null,"dosef":"QD","route":"ORAL","start_dtc":"2025-10-08","end_dtc":"2025-10-08","visit":"WEEK 84"},{"seq":"592","trt":"IRBESARTAN","dose":"300.0","doseu":null,"dosef":"QD","route":"ORAL","start_dtc":"2025-10-09","end_dtc":"2025-10-09","visit":"WEEK 84"},{"seq":"593","trt":"IRBESARTAN","dose":"300.0","doseu":null,"dosef":"QD","route":"ORAL","start_dtc":"2025-10-10","end_dtc":"2025-10-10","visit":null},{"seq":"594","trt":"IRBESARTAN","dose":"300.0","doseu":null,"dosef":"QD","route":"ORAL","start_dtc":"2025-10-11","end_dtc":"2025-10-11","visit":null},{"seq":"595","trt":"IRBESARTAN","dose":"300.0","doseu":null,"dosef":"QD","route":"ORAL","start_dtc":"2025-10-12","end_dtc":"2025-10-12","visit":null},{"seq":"596","trt":"IRBESARTAN","dose":"300.0","doseu":null,"dosef":"QD","route":"ORAL","start_dtc":"2025-10-13","end_dtc":"2025-10-13","visit":null},{"seq":"597","trt":"IRBESARTAN","dose":"300.0","doseu":null,"dosef":"QD","route":"ORAL","start_dtc":"2025-10-14","end_dtc":"2025-10-14","visit":null},{"seq":"598","trt":"IRBESARTAN","dose":"300.0","doseu":null,"dosef":"QD","route":"ORAL","start_dtc":"2025-10-15","end_dtc":"2025-10-15","visit":null},{"seq":"599","trt":"IRBESARTAN","dose":"300.0","doseu":null,"dosef":"QD","route":"ORAL","start_dtc":"2025-10-16","end_dtc":"2025-10-16","visit":null},{"seq":"600","trt":"IRBESARTAN","dose":"300.0","doseu":null,"dosef":"QD","route":"ORAL","start_dtc":"2025-10-17","end_dtc":"2025-10-17","visit":null},{"seq":"601","trt":"IRBESARTAN","dose":"300.0","doseu":null,"dosef":"QD","route":"ORAL","start_dtc":"2025-10-18","end_dtc":"2025-10-18","visit":null},{"seq":"602","trt":"IRBESARTAN","dose":"300.0","doseu":null,"dosef":"QD","route":"ORAL","start_dtc":"2025-10-19","end_dtc":"2025-10-19","visit":null},{"seq":"603","trt":"IRBESARTAN","dose":"300.0","doseu":null,"dosef":"QD","route":"ORAL","start_dtc":"2025-10-20","end_dtc":"2025-10-20","visit":null},{"seq":"604","trt":"IRBESARTAN","dose":"300.0","doseu":null,"dosef":"QD","route":"ORAL","start_dtc":"2025-10-21","end_dtc":"2025-10-21","visit":null},{"seq":"605","trt":"IRBESARTAN","dose":"300.0","doseu":null,"dosef":"QD","route":"ORAL","start_dtc":"2025-10-22","end_dtc":"2025-10-22","visit":null},{"seq":"606","trt":"IRBESARTAN","dose":"300.0","doseu":null,"dosef":"QD","route":"ORAL","start_dtc":"2025-10-23","end_dtc":"2025-10-23","visit":null},{"seq":"607","trt":"IRBESARTAN","dose":"300.0","doseu":null,"dosef":"QD","route":"ORAL","start_dtc":"2025-10-24","end_dtc":"2025-10-24","visit":null},{"seq":"608","trt":"IRBESARTAN","dose":"300.0","doseu":null,"dosef":"QD","route":"ORAL","start_dtc":"2025-10-25","end_dtc":"2025-10-25","visit":null},{"seq":"609","trt":"IRBESARTAN","dose":"300.0","doseu":null,"dosef":"QD","route":"ORAL","start_dtc":"2025-10-26","end_dtc":"2025-10-26","visit":null},{"seq":"610","trt":"IRBESARTAN","dose":"300.0","doseu":null,"dosef":"QD","route":"ORAL","start_dtc":"2025-10-27","end_dtc":"2025-10-27","visit":null},{"seq":"611","trt":"IRBESARTAN","dose":"300.0","doseu":null,"dosef":"QD","route":"ORAL","start_dtc":"2025-10-28","end_dtc":"2025-10-28","visit":null},{"seq":"612","trt":"IRBESARTAN","dose":"300.0","doseu":null,"dosef":"QD","route":"ORAL","start_dtc":"2025-10-29","end_dtc":"2025-10-29","visit":null},{"seq":"613","trt":"IRBESARTAN","dose":"300.0","doseu":null,"dosef":"QD","route":"ORAL","start_dtc":"2025-10-30","end_dtc":"2025-10-30","visit":null},{"seq":"614","trt":"IRBESARTAN","dose":"300.0","doseu":null,"dosef":"QD","route":"ORAL","start_dtc":"2025-10-31","end_dtc":"2025-10-31","visit":null},{"seq":"615","trt":"IRBESARTAN","dose":"300.0","doseu":null,"dosef":"QD","route":"ORAL","start_dtc":"2025-11-01","end_dtc":"2025-11-01","visit":null},{"seq":"616","trt":"IRBESARTAN","dose":"300.0","doseu":null,"dosef":"QD","route":"ORAL","start_dtc":"2025-11-02","end_dtc":"2025-11-02","visit":null},{"seq":"617","trt":"IRBESARTAN","dose":"300.0","doseu":null,"dosef":"QD","route":"ORAL","start_dtc":"2025-11-03","end_dtc":"2025-11-03","visit":null},{"seq":"618","trt":"IRBESARTAN","dose":"300.0","doseu":null,"dosef":"QD","route":"ORAL","start_dtc":"2025-11-04","end_dtc":"2025-11-04","visit":null},{"seq":"619","trt":"IRBESARTAN","dose":"300.0","doseu":null,"dosef":"QD","route":"ORAL","start_dtc":"2025-11-05","end_dtc":"2025-11-05","visit":null},{"seq":"620","trt":"IRBESARTAN","dose":"300.0","doseu":null,"dosef":"QD","route":"ORAL","start_dtc":"2025-11-06","end_dtc":"2025-11-06","visit":null},{"seq":"621","trt":"IRBESARTAN","dose":"300.0","doseu":null,"dosef":"QD","route":"ORAL","start_dtc":"2025-11-07","end_dtc":"2025-11-07","visit":null},{"seq":"622","trt":"IRBESARTAN","dose":"300.0","doseu":null,"dosef":"QD","route":"ORAL","start_dtc":"2025-11-08","end_dtc":"2025-11-08","visit":null},{"seq":"623","trt":"IRBESARTAN","dose":"300.0","doseu":null,"dosef":"QD","route":"ORAL","start_dtc":"2025-11-09","end_dtc":"2025-11-09","visit":null},{"seq":"624","trt":"IRBESARTAN","dose":"300.0","doseu":null,"dosef":"QD","route":"ORAL","start_dtc":"2025-11-10","end_dtc":"2025-11-10","visit":null},{"seq":"625","trt":"IRBESARTAN","dose":"300.0","doseu":null,"dosef":"QD","route":"ORAL","start_dtc":"2025-11-11","end_dtc":"2025-11-11","visit":null},{"seq":"626","trt":"IRBESARTAN","dose":"300.0","doseu":null,"dosef":"QD","route":"ORAL","start_dtc":"2025-11-12","end_dtc":"2025-11-12","visit":null},{"seq":"627","trt":"IRBESARTAN","dose":"300.0","doseu":null,"dosef":"QD","route":"ORAL","start_dtc":"2025-11-13","end_dtc":"2025-11-13","visit":null},{"seq":"628","trt":"IRBESARTAN","dose":"300.0","doseu":null,"dosef":"QD","route":"ORAL","start_dtc":"2025-11-14","end_dtc":"2025-11-14","visit":null},{"seq":"629","trt":"IRBESARTAN","dose":"300.0","doseu":null,"dosef":"QD","route":"ORAL","start_dtc":"2025-11-15","end_dtc":"2025-11-15","visit":null},{"seq":"630","trt":"IRBESARTAN","dose":"300.0","doseu":null,"dosef":"QD","route":"ORAL","start_dtc":"2025-11-16","end_dtc":"2025-11-16","visit":null},{"seq":"631","trt":"IRBESARTAN","dose":"300.0","doseu":null,"dosef":"QD","route":"ORAL","start_dtc":"2025-11-17","end_dtc":"2025-11-17","visit":null},{"seq":"632","trt":"IRBESARTAN","dose":"300.0","doseu":null,"dosef":"QD","route":"ORAL","start_dtc":"2025-11-18","end_dtc":"2025-11-18","visit":null},{"seq":"633","trt":"IRBESARTAN","dose":"300.0","doseu":null,"dosef":"QD","route":"ORAL","start_dtc":"2025-11-19","end_dtc":"2025-11-19","visit":null},{"seq":"634","trt":"IRBESARTAN","dose":"300.0","doseu":null,"dosef":"QD","route":"ORAL","start_dtc":"2025-11-20","end_dtc":"2025-11-20","visit":null},{"seq":"635","trt":"IRBESARTAN","dose":"300.0","doseu":null,"dosef":"QD","route":"ORAL","start_dtc":"2025-11-21","end_dtc":"2025-11-21","visit":null},{"seq":"636","trt":"IRBESARTAN","dose":"300.0","doseu":null,"dosef":"QD","route":"ORAL","start_dtc":"2025-11-22","end_dtc":"2025-11-22","visit":null},{"seq":"637","trt":"IRBESARTAN","dose":"300.0","doseu":null,"dosef":"QD","route":"ORAL","start_dtc":"2025-11-23","end_dtc":"2025-11-23","visit":null},{"seq":"638","trt":"IRBESARTAN","dose":"300.0","doseu":null,"dosef":"QD","route":"ORAL","start_dtc":"2025-11-24","end_dtc":"2025-11-24","visit":null},{"seq":"639","trt":"IRBESARTAN","dose":"300.0","doseu":null,"dosef":"QD","route":"ORAL","start_dtc":"2025-11-25","end_dtc":"2025-11-25","visit":null},{"seq":"640","trt":"IRBESARTAN","dose":"300.0","doseu":null,"dosef":"QD","route":"ORAL","start_dtc":"2025-11-26","end_dtc":"2025-11-26","visit":null},{"seq":"641","trt":"IRBESARTAN","dose":"300.0","doseu":null,"dosef":"QD","route":"ORAL","start_dtc":"2025-11-27","end_dtc":"2025-11-27","visit":null},{"seq":"642","trt":"IRBESARTAN","dose":"300.0","doseu":null,"dosef":"QD","route":"ORAL","start_dtc":"2025-11-28","end_dtc":"2025-11-28","visit":null},{"seq":"643","trt":"IRBESARTAN","dose":"300.0","doseu":null,"dosef":"QD","route":"ORAL","start_dtc":"2025-11-29","end_dtc":"2025-11-29","visit":null},{"seq":"644","trt":"IRBESARTAN","dose":"300.0","doseu":null,"dosef":"QD","route":"ORAL","start_dtc":"2025-11-30","end_dtc":"2025-11-30","visit":null},{"seq":"645","trt":"IRBESARTAN","dose":"300.0","doseu":null,"dosef":"QD","route":"ORAL","start_dtc":"2025-12-01","end_dtc":"2025-12-01","visit":null},{"seq":"646","trt":"IRBESARTAN","dose":"300.0","doseu":null,"dosef":"QD","route":"ORAL","start_dtc":"2025-12-02","end_dtc":"2025-12-02","visit":null},{"seq":"647","trt":"IRBESARTAN","dose":"300.0","doseu":null,"dosef":"QD","route":"ORAL","start_dtc":"2025-12-03","end_dtc":"2025-12-03","visit":null},{"seq":"648","trt":"IRBESARTAN","dose":"300.0","doseu":null,"dosef":"QD","route":"ORAL","start_dtc":"2025-12-04","end_dtc":"2025-12-04","visit":null},{"seq":"649","trt":"IRBESARTAN","dose":"300.0","doseu":null,"dosef":"QD","route":"ORAL","start_dtc":"2025-12-05","end_dtc":"2025-12-05","visit":null},{"seq":"650","trt":"IRBESARTAN","dose":"300.0","doseu":null,"dosef":"QD","route":"ORAL","start_dtc":"2025-12-06","end_dtc":"2025-12-06","visit":null},{"seq":"651","trt":"IRBESARTAN","dose":"300.0","doseu":null,"dosef":"QD","route":"ORAL","start_dtc":"2025-12-07","end_dtc":"2025-12-07","visit":null},{"seq":"652","trt":"IRBESARTAN","dose":"300.0","doseu":null,"dosef":"QD","route":"ORAL","start_dtc":"2025-12-08","end_dtc":"2025-12-08","visit":null},{"seq":"653","trt":"IRBESARTAN","dose":"300.0","doseu":null,"dosef":"QD","route":"ORAL","start_dtc":"2025-12-09","end_dtc":"2025-12-09","visit":null},{"seq":"654","trt":"IRBESARTAN","dose":"300.0","doseu":null,"dosef":"QD","route":"ORAL","start_dtc":"2025-12-10","end_dtc":"2025-12-10","visit":null},{"seq":"655","trt":"IRBESARTAN","dose":"300.0","doseu":null,"dosef":"QD","route":"ORAL","start_dtc":"2025-12-11","end_dtc":"2025-12-11","visit":null},{"seq":"656","trt":"IRBESARTAN","dose":"300.0","doseu":null,"dosef":"QD","route":"ORAL","start_dtc":"2025-12-12","end_dtc":"2025-12-12","visit":null},{"seq":"657","trt":"IRBESARTAN","dose":"300.0","doseu":null,"dosef":"QD","route":"ORAL","start_dtc":"2025-12-13","end_dtc":"2025-12-13","visit":null},{"seq":"658","trt":"IRBESARTAN","dose":"300.0","doseu":null,"dosef":"QD","route":"ORAL","start_dtc":"2025-12-14","end_dtc":"2025-12-14","visit":null},{"seq":"659","trt":"IRBESARTAN","dose":"300.0","doseu":null,"dosef":"QD","route":"ORAL","start_dtc":"2025-12-15","end_dtc":"2025-12-15","visit":null},{"seq":"660","trt":"IRBESARTAN","dose":"300.0","doseu":null,"dosef":"QD","route":"ORAL","start_dtc":"2025-12-16","end_dtc":"2025-12-16","visit":null},{"seq":"661","trt":"IRBESARTAN","dose":"300.0","doseu":null,"dosef":"QD","route":"ORAL","start_dtc":"2025-12-17","end_dtc":"2025-12-17","visit":null},{"seq":"662","trt":"IRBESARTAN","dose":"300.0","doseu":null,"dosef":"QD","route":"ORAL","start_dtc":"2025-12-18","end_dtc":"2025-12-18","visit":null},{"seq":"663","trt":"IRBESARTAN","dose":null,"doseu":null,"dosef":"QD","route":"ORAL","start_dtc":"2025-12-19","end_dtc":"2025-12-19","visit":null},{"seq":"664","trt":"IRBESARTAN","dose":"300.0","doseu":null,"dosef":"QD","route":"ORAL","start_dtc":"2025-12-20","end_dtc":"2025-12-20","visit":null},{"seq":"665","trt":"IRBESARTAN","dose":"300.0","doseu":null,"dosef":"QD","route":"ORAL","start_dtc":"2025-12-21","end_dtc":"2025-12-21","visit":null},{"seq":"666","trt":"IRBESARTAN","dose":"300.0","doseu":null,"dosef":"QD","route":"ORAL","start_dtc":"2025-12-22","end_dtc":"2025-12-22","visit":null},{"seq":"667","trt":"IRBESARTAN","dose":"300.0","doseu":null,"dosef":"QD","route":"ORAL","start_dtc":"2025-12-23","end_dtc":"2025-12-23","visit":null},{"seq":"668","trt":"IRBESARTAN","dose":"300.0","doseu":null,"dosef":"QD","route":"ORAL","start_dtc":"2025-12-24","end_dtc":"2025-12-24","visit":null},{"seq":"669","trt":"IRBESARTAN","dose":"300.0","doseu":null,"dosef":"QD","route":"ORAL","start_dtc":"2025-12-25","end_dtc":"2025-12-25","visit":null},{"seq":"670","trt":"IRBESARTAN","dose":"300.0","doseu":null,"dosef":"QD","route":"ORAL","start_dtc":"2025-12-26","end_dtc":"2025-12-26","visit":null},{"seq":"671","trt":"IRBESARTAN","dose":"300.0","doseu":null,"dosef":"QD","route":"ORAL","start_dtc":"2025-12-27","end_dtc":"2025-12-27","visit":null},{"seq":"672","trt":"IRBESARTAN","dose":"300.0","doseu":null,"dosef":"QD","route":"ORAL","start_dtc":"2025-12-28","end_dtc":"2025-12-28","visit":null},{"seq":"673","trt":"IRBESARTAN","dose":"300.0","doseu":null,"dosef":"QD","route":"ORAL","start_dtc":"2025-12-29","end_dtc":"2025-12-29","visit":null},{"seq":"674","trt":"IRBESARTAN","dose":"300.0","doseu":null,"dosef":"QD","route":"ORAL","start_dtc":"2025-12-30","end_dtc":"2025-12-30","visit":null},{"seq":"675","trt":"IRBESARTAN","dose":"300.0","doseu":null,"dosef":"QD","route":"ORAL","start_dtc":"2025-12-31","end_dtc":"2025-12-31","visit":null},{"seq":"676","trt":"IRBESARTAN","dose":"300.0","doseu":null,"dosef":"QD","route":"ORAL","start_dtc":"2026-01-01","end_dtc":"2026-01-01","visit":null},{"seq":"677","trt":"IRBESARTAN","dose":"300.0","doseu":null,"dosef":"QD","route":"ORAL","start_dtc":"2026-01-02","end_dtc":"2026-01-02","visit":null},{"seq":"678","trt":"IRBESARTAN","dose":"300.0","doseu":null,"dosef":"QD","route":"ORAL","start_dtc":"2026-01-03","end_dtc":"2026-01-03","visit":null},{"seq":"679","trt":"IRBESARTAN","dose":"300.0","doseu":null,"dosef":"QD","route":"ORAL","start_dtc":"2026-01-04","end_dtc":"2026-01-04","visit":null},{"seq":"680","trt":"IRBESARTAN","dose":"300.0","doseu":null,"dosef":"QD","route":"ORAL","start_dtc":"2026-01-05","end_dtc":"2026-01-05","visit":null},{"seq":"681","trt":"IRBESARTAN","dose":"300.0","doseu":null,"dosef":"QD","route":"ORAL","start_dtc":"2026-01-06","end_dtc":"2026-01-06","visit":null},{"seq":"682","trt":"IRBESARTAN","dose":"300.0","doseu":null,"dosef":"QD","route":"ORAL","start_dtc":"2026-01-07","end_dtc":"2026-01-07","visit":null},{"seq":"683","trt":"IRBESARTAN","dose":"300.0","doseu":null,"dosef":"QD","route":"ORAL","start_dtc":"2026-01-08","end_dtc":"2026-01-08","visit":null},{"seq":"684","trt":"IRBESARTAN","dose":"300.0","doseu":null,"dosef":"QD","route":"ORAL","start_dtc":"2026-01-09","end_dtc":"2026-01-09","visit":null},{"seq":"685","trt":"IRBESARTAN","dose":"300.0","doseu":null,"dosef":"QD","route":"ORAL","start_dtc":"2026-01-10","end_dtc":"2026-01-10","visit":null},{"seq":"686","trt":"IRBESARTAN","dose":"300.0","doseu":null,"dosef":"QD","route":"ORAL","start_dtc":"2026-01-11","end_dtc":"2026-01-11","visit":null},{"seq":"687","trt":"IRBESARTAN","dose":"300.0","doseu":null,"dosef":"QD","route":"ORAL","start_dtc":"2026-01-12","end_dtc":"2026-01-12","visit":null},{"seq":"688","trt":"IRBESARTAN","dose":"300.0","doseu":null,"dosef":"QD","route":"ORAL","start_dtc":"2026-01-13","end_dtc":"2026-01-13","visit":null},{"seq":"689","trt":"IRBESARTAN","dose":"300.0","doseu":null,"dosef":"QD","route":"ORAL","start_dtc":"2026-01-14","end_dtc":"2026-01-14","visit":null},{"seq":"690","trt":"IRBESARTAN","dose":"300.0","doseu":null,"dosef":"QD","route":"ORAL","start_dtc":"2026-01-15","end_dtc":"2026-01-15","visit":null},{"seq":"691","trt":"IRBESARTAN","dose":"300.0","doseu":null,"dosef":"QD","route":"ORAL","start_dtc":"2026-01-16","end_dtc":"2026-01-16","visit":null},{"seq":"692","trt":"IRBESARTAN","dose":"300.0","doseu":null,"dosef":"QD","route":"ORAL","start_dtc":"2026-01-17","end_dtc":"2026-01-17","visit":null},{"seq":"693","trt":"IRBESARTAN","dose":"300.0","doseu":null,"dosef":"QD","route":"ORAL","start_dtc":"2026-01-18","end_dtc":"2026-01-18","visit":null},{"seq":"694","trt":"IRBESARTAN","dose":"300.0","doseu":null,"dosef":"QD","route":"ORAL","start_dtc":"2026-01-19","end_dtc":"2026-01-19","visit":null},{"seq":"695","trt":"IRBESARTAN","dose":"300.0","doseu":null,"dosef":"QD","route":"ORAL","start_dtc":"2026-01-20","end_dtc":"2026-01-20","visit":null},{"seq":"696","trt":"IRBESARTAN","dose":"300.0","doseu":null,"dosef":"QD","route":"ORAL","start_dtc":"2026-01-21","end_dtc":"2026-01-21","visit":null},{"seq":"697","trt":"IRBESARTAN","dose":null,"doseu":null,"dosef":"QD","route":"ORAL","start_dtc":"2026-01-22","end_dtc":"2026-01-22","visit":null},{"seq":"698","trt":"IRBESARTAN","dose":"300.0","doseu":null,"dosef":"QD","route":"ORAL","start_dtc":"2026-01-23","end_dtc":"2026-01-23","visit":null},{"seq":"699","trt":"IRBESARTAN","dose":"300.0","doseu":null,"dosef":"QD","route":"ORAL","start_dtc":"2026-01-24","end_dtc":"2026-01-24","visit":null},{"seq":"700","trt":"IRBESARTAN","dose":"300.0","doseu":null,"dosef":"QD","route":"ORAL","start_dtc":"2026-01-25","end_dtc":"2026-01-25","visit":null},{"seq":"701","trt":"IRBESARTAN","dose":"300.0","doseu":null,"dosef":"QD","route":"ORAL","start_dtc":"2026-01-26","end_dtc":"2026-01-26","visit":null},{"seq":"702","trt":"IRBESARTAN","dose":"300.0","doseu":null,"dosef":"QD","route":"ORAL","start_dtc":"2026-01-27","end_dtc":"2026-01-27","visit":null},{"seq":"703","trt":"IRBESARTAN","dose":"300.0","doseu":null,"dosef":"QD","route":"ORAL","start_dtc":"2026-01-28","end_dtc":"2026-01-28","visit":null},{"seq":"704","trt":"IRBESARTAN","dose":"300.0","doseu":null,"dosef":"QD","route":"ORAL","start_dtc":"2026-01-29","end_dtc":"2026-01-29","visit":null},{"seq":"705","trt":"IRBESARTAN","dose":"300.0","doseu":null,"dosef":"QD","route":"ORAL","start_dtc":"2026-01-30","end_dtc":"2026-01-30","visit":null},{"seq":"706","trt":"IRBESARTAN","dose":"300.0","doseu":null,"dosef":"QD","route":"ORAL","start_dtc":"2026-01-31","end_dtc":"2026-01-31","visit":null},{"seq":"707","trt":"IRBESARTAN","dose":"300.0","doseu":null,"dosef":"QD","route":"ORAL","start_dtc":"2026-02-01","end_dtc":"2026-02-01","visit":null},{"seq":"708","trt":"IRBESARTAN","dose":"300.0","doseu":null,"dosef":"QD","route":"ORAL","start_dtc":"2026-02-02","end_dtc":"2026-02-02","visit":null},{"seq":"709","trt":"IRBESARTAN","dose":"300.0","doseu":null,"dosef":"QD","route":"ORAL","start_dtc":"2026-02-03","end_dtc":"2026-02-03","visit":null},{"seq":"710","trt":"IRBESARTAN","dose":null,"doseu":null,"dosef":"QD","route":"ORAL","start_dtc":"2026-02-04","end_dtc":"2026-02-04","visit":null},{"seq":"711","trt":"IRBESARTAN","dose":"300.0","doseu":null,"dosef":"QD","route":"ORAL","start_dtc":"2026-02-05","end_dtc":"2026-02-05","visit":null},{"seq":"712","trt":"IRBESARTAN","dose":"300.0","doseu":null,"dosef":"QD","route":"ORAL","start_dtc":"2026-02-06","end_dtc":"2026-02-06","visit":null},{"seq":"713","trt":"IRBESARTAN","dose":"300.0","doseu":null,"dosef":"QD","route":"ORAL","start_dtc":"2026-02-07","end_dtc":"2026-02-07","visit":null},{"seq":"714","trt":"IRBESARTAN","dose":"300.0","doseu":null,"dosef":"QD","route":"ORAL","start_dtc":"2026-02-08","end_dtc":"2026-02-08","visit":null},{"seq":"715","trt":"IRBESARTAN","dose":"300.0","doseu":null,"dosef":"QD","route":"ORAL","start_dtc":"2026-02-09","end_dtc":"2026-02-09","visit":null},{"seq":"716","trt":"IRBESARTAN","dose":"300.0","doseu":null,"dosef":"QD","route":"ORAL","start_dtc":"2026-02-10","end_dtc":"2026-02-10","visit":null},{"seq":"717","trt":"IRBESARTAN","dose":"300.0","doseu":null,"dosef":"QD","route":"ORAL","start_dtc":"2026-02-11","end_dtc":"2026-02-11","visit":null},{"seq":"718","trt":"IRBESARTAN","dose":"300.0","doseu":null,"dosef":"QD","route":"ORAL","start_dtc":"2026-02-12","end_dtc":"2026-02-12","visit":null},{"seq":"719","trt":"IRBESARTAN","dose":"300.0","doseu":null,"dosef":"QD","route":"ORAL","start_dtc":"2026-02-13","end_dtc":"2026-02-13","visit":null},{"seq":"720","trt":"IRBESARTAN","dose":"300.0","doseu":null,"dosef":"QD","route":"ORAL","start_dtc":"2026-02-14","end_dtc":"2026-02-14","visit":null},{"seq":"721","trt":"IRBESARTAN","dose":"300.0","doseu":null,"dosef":"QD","route":"ORAL","start_dtc":"2026-02-15","end_dtc":"2026-02-15","visit":null},{"seq":"722","trt":"IRBESARTAN","dose":"300.0","doseu":null,"dosef":"QD","route":"ORAL","start_dtc":"2026-02-16","end_dtc":"2026-02-16","visit":null},{"seq":"723","trt":"IRBESARTAN","dose":"300.0","doseu":null,"dosef":"QD","route":"ORAL","start_dtc":"2026-02-17","end_dtc":"2026-02-17","visit":null},{"seq":"724","trt":"IRBESARTAN","dose":"300.0","doseu":null,"dosef":"QD","route":"ORAL","start_dtc":"2026-02-18","end_dtc":"2026-02-18","visit":null},{"seq":"725","trt":"IRBESARTAN","dose":"300.0","doseu":null,"dosef":"QD","route":"ORAL","start_dtc":"2026-02-19","end_dtc":"2026-02-19","visit":null},{"seq":"726","trt":"IRBESARTAN","dose":"300.0","doseu":null,"dosef":"QD","route":"ORAL","start_dtc":"2026-02-20","end_dtc":"2026-02-20","visit":null},{"seq":"727","trt":"IRBESARTAN","dose":"300.0","doseu":null,"dosef":"QD","route":"ORAL","start_dtc":"2026-02-21","end_dtc":"2026-02-21","visit":null},{"seq":"728","trt":"IRBESARTAN","dose":"300.0","doseu":null,"dosef":"QD","route":"ORAL","start_dtc":"2026-02-22","end_dtc":"2026-02-22","visit":null},{"seq":"729","trt":"IRBESARTAN","dose":"300.0","doseu":null,"dosef":"QD","route":"ORAL","start_dtc":"2026-02-23","end_dtc":"2026-02-23","visit":null},{"seq":"730","trt":"IRBESARTAN","dose":"300.0","doseu":null,"dosef":"QD","route":"ORAL","start_dtc":"2026-02-24","end_dtc":"2026-02-24","visit":null},{"seq":"731","trt":"IRBESARTAN","dose":"300.0","doseu":null,"dosef":"QD","route":"ORAL","start_dtc":"2026-02-25","end_dtc":"2026-02-25","visit":null},{"seq":"732","trt":"IRBESARTAN","dose":"300.0","doseu":null,"dosef":"QD","route":"ORAL","start_dtc":"2026-02-26","end_dtc":"2026-02-26","visit":null},{"seq":"733","trt":"IRBESARTAN","dose":"300.0","doseu":null,"dosef":"QD","route":"ORAL","start_dtc":"2026-02-27","end_dtc":"2026-02-27","visit":null},{"seq":"734","trt":"IRBESARTAN","dose":"300.0","doseu":null,"dosef":"QD","route":"ORAL","start_dtc":"2026-02-28","end_dtc":"2026-02-28","visit":null},{"seq":"735","trt":"IRBESARTAN","dose":"300.0","doseu":null,"dosef":"QD","route":"ORAL","start_dtc":"2026-03-01","end_dtc":"2026-03-01","visit":null},{"seq":"736","trt":"IRBESARTAN","dose":"300.0","doseu":null,"dosef":"QD","route":"ORAL","start_dtc":"2026-03-02","end_dtc":"2026-03-02","visit":null},{"seq":"737","trt":"IRBESARTAN","dose":"300.0","doseu":null,"dosef":"QD","route":"ORAL","start_dtc":"2026-03-03","end_dtc":"2026-03-03","visit":null},{"seq":"738","trt":"IRBESARTAN","dose":"300.0","doseu":null,"dosef":"QD","route":"ORAL","start_dtc":"2026-03-04","end_dtc":"2026-03-04","visit":null},{"seq":"739","trt":"IRBESARTAN","dose":"300.0","doseu":null,"dosef":"QD","route":"ORAL","start_dtc":"2026-03-05","end_dtc":"2026-03-05","visit":null},{"seq":"740","trt":"IRBESARTAN","dose":"300.0","doseu":null,"dosef":"QD","route":"ORAL","start_dtc":"2026-03-06","end_dtc":"2026-03-06","visit":null},{"seq":"741","trt":"IRBESARTAN","dose":"300.0","doseu":null,"dosef":"QD","route":"ORAL","start_dtc":"2026-03-07","end_dtc":"2026-03-07","visit":null},{"seq":"742","trt":"IRBESARTAN","dose":"300.0","doseu":null,"dosef":"QD","route":"ORAL","start_dtc":"2026-03-08","end_dtc":"2026-03-08","visit":null},{"seq":"743","trt":"IRBESARTAN","dose":"300.0","doseu":null,"dosef":"QD","route":"ORAL","start_dtc":"2026-03-09","end_dtc":"2026-03-09","visit":null},{"seq":"744","trt":"IRBESARTAN","dose":"300.0","doseu":null,"dosef":"QD","route":"ORAL","start_dtc":"2026-03-10","end_dtc":"2026-03-10","visit":null},{"seq":"745","trt":"IRBESARTAN","dose":"300.0","doseu":null,"dosef":"QD","route":"ORAL","start_dtc":"2026-03-11","end_dtc":"2026-03-11","visit":null},{"seq":"746","trt":"IRBESARTAN","dose":"300.0","doseu":null,"dosef":"QD","route":"ORAL","start_dtc":"2026-03-12","end_dtc":"2026-03-12","visit":null},{"seq":"747","trt":"IRBESARTAN","dose":"300.0","doseu":null,"dosef":"QD","route":"ORAL","start_dtc":"2026-03-13","end_dtc":"2026-03-13","visit":null},{"seq":"748","trt":"IRBESARTAN","dose":"300.0","doseu":null,"dosef":"QD","route":"ORAL","start_dtc":"2026-03-14","end_dtc":"2026-03-14","visit":null},{"seq":"749","trt":"IRBESARTAN","dose":"300.0","doseu":null,"dosef":"QD","route":"ORAL","start_dtc":"2026-03-15","end_dtc":"2026-03-15","visit":null},{"seq":"750","trt":"IRBESARTAN","dose":"300.0","doseu":null,"dosef":"QD","route":"ORAL","start_dtc":"2026-03-16","end_dtc":"2026-03-16","visit":null},{"seq":"751","trt":"IRBESARTAN","dose":"300.0","doseu":null,"dosef":"QD","route":"ORAL","start_dtc":"2026-03-17","end_dtc":"2026-03-17","visit":null},{"seq":"752","trt":"IRBESARTAN","dose":"300.0","doseu":null,"dosef":"QD","route":"ORAL","start_dtc":"2026-03-18","end_dtc":"2026-03-18","visit":null},{"seq":"753","trt":"IRBESARTAN","dose":"300.0","doseu":null,"dosef":"QD","route":"ORAL","start_dtc":"2026-03-19","end_dtc":"2026-03-19","visit":null},{"seq":"754","trt":"IRBESARTAN","dose":"300.0","doseu":null,"dosef":"QD","route":"ORAL","start_dtc":"2026-03-20","end_dtc":"2026-03-20","visit":null},{"seq":"755","trt":"IRBESARTAN","dose":"300.0","doseu":null,"dosef":"QD","route":"ORAL","start_dtc":"2026-03-21","end_dtc":"2026-03-21","visit":null},{"seq":"756","trt":"IRBESARTAN","dose":"300.0","doseu":null,"dosef":"QD","route":"ORAL","start_dtc":"2026-03-22","end_dtc":"2026-03-22","visit":null},{"seq":"757","trt":"IRBESARTAN","dose":"300.0","doseu":null,"dosef":"QD","route":"ORAL","start_dtc":"2026-03-23","end_dtc":"2026-03-23","visit":null},{"seq":"758","trt":"IRBESARTAN","dose":"300.0","doseu":null,"dosef":"QD","route":"ORAL","start_dtc":"2026-03-24","end_dtc":"2026-03-24","visit":null},{"seq":"759","trt":"IRBESARTAN","dose":"300.0","doseu":null,"dosef":"QD","route":"ORAL","start_dtc":"2026-03-25","end_dtc":"2026-03-25","visit":null},{"seq":"760","trt":"IRBESARTAN","dose":"300.0","doseu":null,"dosef":"QD","route":"ORAL","start_dtc":"2026-03-26","end_dtc":"2026-03-26","visit":null},{"seq":"761","trt":"IRBESARTAN","dose":"300.0","doseu":null,"dosef":"QD","route":"ORAL","start_dtc":"2026-03-27","end_dtc":"2026-03-27","visit":null},{"seq":"762","trt":"IRBESARTAN","dose":"300.0","doseu":null,"dosef":"QD","route":"ORAL","start_dtc":"2026-03-28","end_dtc":"2026-03-28","visit":null},{"seq":"763","trt":"IRBESARTAN","dose":"300.0","doseu":null,"dosef":"QD","route":"ORAL","start_dtc":"2026-03-29","end_dtc":"2026-03-29","visit":null},{"seq":"764","trt":"IRBESARTAN","dose":"300.0","doseu":null,"dosef":"QD","route":"ORAL","start_dtc":"2026-03-30","end_dtc":"2026-03-30","visit":null},{"seq":"765","trt":"IRBESARTAN","dose":"300.0","doseu":null,"dosef":"QD","route":"ORAL","start_dtc":"2026-03-31","end_dtc":"2026-03-31","visit":null},{"seq":"766","trt":"IRBESARTAN","dose":"300.0","doseu":null,"dosef":"QD","route":"ORAL","start_dtc":"2026-04-01","end_dtc":"2026-04-01","visit":null},{"seq":"767","trt":"IRBESARTAN","dose":"300.0","doseu":null,"dosef":"QD","route":"ORAL","start_dtc":"2026-04-02","end_dtc":"2026-04-02","visit":null},{"seq":"768","trt":"IRBESARTAN","dose":"300.0","doseu":null,"dosef":"QD","route":"ORAL","start_dtc":"2026-04-03","end_dtc":"2026-04-03","visit":"WEEK 110"},{"seq":"769","trt":"IRBESARTAN","dose":"300.0","doseu":null,"dosef":"QD","route":"ORAL","start_dtc":"2026-04-04","end_dtc":"2026-04-04","visit":"WEEK 110"},{"seq":"770","trt":"IRBESARTAN","dose":"300.0","doseu":null,"dosef":"QD","route":"ORAL","start_dtc":"2026-04-05","end_dtc":"2026-04-05","visit":"WEEK 110"},{"seq":"771","trt":"IRBESARTAN","dose":"300.0","doseu":null,"dosef":"QD","route":"ORAL","start_dtc":"2026-04-06","end_dtc":"2026-04-06","visit":"WEEK 110"},{"seq":"772","trt":"IRBESARTAN","dose":"300.0","doseu":null,"dosef":"QD","route":"ORAL","start_dtc":"2026-04-07","end_dtc":"2026-04-07","visit":"WEEK 110"},{"seq":"773","trt":"IRBESARTAN","dose":"300.0","doseu":null,"dosef":"QD","route":"ORAL","start_dtc":"2026-04-08","end_dtc":"2026-04-08","visit":"WEEK 110"},{"seq":"774","trt":"IRBESARTAN","dose":"300.0","doseu":null,"dosef":"QD","route":"ORAL","start_dtc":"2026-04-09","end_dtc":"2026-04-09","visit":"WEEK 110"},{"seq":"775","trt":"IRBESARTAN","dose":"300.0","doseu":null,"dosef":"QD","route":"ORAL","start_dtc":"2026-04-10","end_dtc":"2026-04-10","visit":null},{"seq":"776","trt":"IRBESARTAN","dose":"300.0","doseu":null,"dosef":"QD","route":"ORAL","start_dtc":"2026-04-11","end_dtc":"2026-04-11","visit":null},{"seq":"777","trt":"IRBESARTAN","dose":"300.0","doseu":null,"dosef":"QD","route":"ORAL","start_dtc":"2026-04-12","end_dtc":"2026-04-12","visit":null},{"seq":"778","trt":"IRBESARTAN","dose":"300.0","doseu":null,"dosef":"QD","route":"ORAL","start_dtc":"2026-04-13","end_dtc":"2026-04-13","visit":null},{"seq":"779","trt":"IRBESARTAN","dose":"300.0","doseu":null,"dosef":"QD","route":"ORAL","start_dtc":"2026-04-14","end_dtc":"2026-04-14","visit":null},{"seq":"780","trt":"IRBESARTAN","dose":"300.0","doseu":null,"dosef":"QD","route":"ORAL","start_dtc":"2026-04-15","end_dtc":"2026-04-15","visit":null},{"seq":"781","trt":"IRBESARTAN","dose":"300.0","doseu":null,"dosef":"QD","route":"ORAL","start_dtc":"2026-04-16","end_dtc":"2026-04-16","visit":null},{"seq":"782","trt":"IRBESARTAN","dose":"300.0","doseu":null,"dosef":"QD","route":"ORAL","start_dtc":"2026-04-17","end_dtc":"2026-04-17","visit":null}]},"section_7_adverse_events":{"summary":{"total_aes":23,"serious_aes":2,"fatal_aes":0,"by_severity":{"MILD":15,"MODERATE":6,"SEVERE":2},"by_soc":{"Nervous system disorders":4,"Gastrointestinal disorders":6,"Vascular disorders":4,"General disorders and administration site conditions":7,"Investigations":1,"Metabolism and nutrition disorders":1}},"events":[{"seq":"1","term":"DIZZINESS","decod":"Dizziness","llt":"Dizziness","hlt":"Dizziness and vertigo symptoms","hlgt":"Neurological signs and symptoms NEC","soc":"Nervous system disorders","bodsys":"Nervous system disorders","severity":"MILD","serious":"N","causality":"NOT RELATED","action_taken":"DOSE NOT CHANGED","outcome":"UNKNOWN","fatal":"N","hospitalization":"N","life_threatening":"N","onset_dtc":"2024-03-10","end_dtc":"2024-03-24","onset_dy":"14","end_dy":"28","duration":null,"epoch":"TREATMENT","visit":null,"supplemental":{"AETRTEM":"Y"}},{"seq":"2","term":"NAUSEA","decod":"Nausea","llt":"Nausea","hlt":"Nausea and vomiting symptoms","hlgt":"Gastrointestinal signs and symptoms","soc":"Gastrointestinal disorders","bodsys":"Gastrointestinal disorders","severity":"MILD","serious":"N","causality":"UNLIKELY RELATED","action_taken":"DOSE NOT CHANGED","outcome":"RECOVERING/RESOLVING","fatal":"N","hospitalization":"N","life_threatening":"N","onset_dtc":"2024-03-11","end_dtc":"2024-03-12","onset_dy":"15","end_dy":"16","duration":null,"epoch":"TREATMENT","visit":null,"supplemental":{"AETRTEM":"Y"}},{"seq":"3","term":"HYPOTENSION","decod":"Hypotension","llt":"Hypotension","hlt":"Vascular hypotensive disorders","hlgt":"Vascular disorders NEC","soc":"Vascular disorders","bodsys":"Vascular disorders","severity":"MILD","serious":"N","causality":"NOT RELATED","action_taken":"DOSE NOT CHANGED","outcome":"RECOVERED/RESOLVED","fatal":"N","hospitalization":"N","life_threatening":"N","onset_dtc":"2024-05-05","end_dtc":"2024-05-17","onset_dy":"70","end_dy":"82","duration":null,"epoch":"TREATMENT","visit":null,"supplemental":{"AETRTEM":"Y"}},{"seq":"4","term":"OEDEMA PERIPHERAL","decod":"Oedema peripheral","llt":"Oedema peripheral","hlt":"Oedema NEC","hlgt":"Oedema NEC","soc":"General disorders and administration site conditions","bodsys":"General disorders and administration site conditions","severity":"MODERATE","serious":"N","causality":"UNLIKELY RELATED","action_taken":"DOSE NOT CHANGED","outcome":"RECOVERED/RESOLVED","fatal":"N","hospitalization":"N","life_threatening":"N","onset_dtc":"2024-05-06","end_dtc":"2024-05-28","onset_dy":"71","end_dy":"93","duration":null,"epoch":"TREATMENT","visit":null,"supplemental":{"AETRTEM":"Y"}},{"seq":"5","term":"ALANINE AMINOTRANSFERASE INCREASED","decod":"Alanine aminotransferase increased","llt":"Alanine aminotransferase increased","hlt":"Liver function analyses","hlgt":"Hepatobiliary investigations","soc":"Investigations","bodsys":"Investigations","severity":"MILD","serious":"N","causality":"NOT RELATED","action_taken":"DOSE NOT CHANGED","outcome":"RECOVERED/RESOLVED","fatal":"N","hospitalization":"N","life_threatening":"N","onset_dtc":"2024-05-31","end_dtc":"2024-06-25","onset_dy":"96","end_dy":"121","duration":null,"epoch":"TREATMENT","visit":null,"supplemental":{"AETRTEM":"Y"}},{"seq":"6","term":"OEDEMA PERIPHERAL","decod":"Oedema peripheral","llt":"Oedema peripheral","hlt":"Oedema NEC","hlgt":"Oedema NEC","soc":"General disorders and administration site conditions","bodsys":"General disorders and administration site conditions","severity":"MILD","serious":"N","causality":"UNLIKELY RELATED","action_taken":"DOSE NOT CHANGED","outcome":"RECOVERED/RESOLVED","fatal":"N","hospitalization":"N","life_threatening":"N","onset_dtc":"2024-06-24","end_dtc":"2024-06-26","onset_dy":"120","end_dy":"122","duration":null,"epoch":"TREATMENT","visit":null,"supplemental":{"AETRTEM":"Y"}},{"seq":"7","term":"NAUSEA","decod":"Nausea","llt":"Nausea","hlt":"Nausea and vomiting symptoms","hlgt":"Gastrointestinal signs and symptoms","soc":"Gastrointestinal disorders","bodsys":"Gastrointestinal disorders","severity":"SEVERE","serious":"Y","causality":"NOT RELATED","action_taken":"DOSE NOT CHANGED","outcome":"RECOVERED/RESOLVED","fatal":"N","hospitalization":"Y","life_threatening":"N","onset_dtc":"2024-08-20","end_dtc":"2024-08-26","onset_dy":"177","end_dy":"183","duration":null,"epoch":"TREATMENT","visit":null,"supplemental":{"AETRTEM":"Y"}},{"seq":"8","term":"HYPERKALAEMIA","decod":"Hyperkalaemia","llt":"Hyperkalaemia","hlt":"Electrolyte and fluid balance conditions","hlgt":"Fluid and electrolyte conditions NEC","soc":"Metabolism and nutrition disorders","bodsys":"Metabolism and nutrition disorders","severity":"MILD","serious":"N","causality":"NOT RELATED","action_taken":"DOSE NOT CHANGED","outcome":"RECOVERED/RESOLVED","fatal":"N","hospitalization":"N","life_threatening":"N","onset_dtc":"2024-09-15","end_dtc":"2024-09-17","onset_dy":"203","end_dy":"205","duration":null,"epoch":"TREATMENT","visit":null,"supplemental":{"AETRTEM":"Y"}},{"seq":"9","term":"NAUSEA","decod":"Nausea","llt":"Nausea","hlt":"Nausea and vomiting symptoms","hlgt":"Gastrointestinal signs and symptoms","soc":"Gastrointestinal disorders","bodsys":"Gastrointestinal disorders","severity":"MILD","serious":"N","causality":"POSSIBLY RELATED","action_taken":"DOSE NOT CHANGED","outcome":"RECOVERING/RESOLVING","fatal":"N","hospitalization":"N","life_threatening":"N","onset_dtc":"2024-09-24","end_dtc":"2024-09-26","onset_dy":"212","end_dy":"214","duration":null,"epoch":"TREATMENT","visit":null,"supplemental":{"AETRTEM":"Y"}},{"seq":"10","term":"OEDEMA PERIPHERAL","decod":"Oedema peripheral","llt":"Oedema peripheral","hlt":"Oedema NEC","hlgt":"Oedema NEC","soc":"General disorders and administration site conditions","bodsys":"General disorders and administration site conditions","severity":"SEVERE","serious":"Y","causality":"NOT RELATED","action_taken":"DOSE NOT CHANGED","outcome":"RECOVERED/RESOLVED","fatal":"N","hospitalization":"N","life_threatening":"N","onset_dtc":"2024-09-30","end_dtc":"2024-11-27","onset_dy":"218","end_dy":"276","duration":null,"epoch":"TREATMENT","visit":null,"supplemental":{"AETRTEM":"Y"}},{"seq":"11","term":"OEDEMA PERIPHERAL","decod":"Oedema peripheral","llt":"Oedema peripheral","hlt":"Oedema NEC","hlgt":"Oedema NEC","soc":"General disorders and administration site conditions","bodsys":"General disorders and administration site conditions","severity":"MILD","serious":"N","causality":"UNLIKELY RELATED","action_taken":"DOSE NOT CHANGED","outcome":"RECOVERED/RESOLVED","fatal":"N","hospitalization":"N","life_threatening":"N","onset_dtc":"2024-10-08","end_dtc":"2024-10-10","onset_dy":"226","end_dy":"228","duration":null,"epoch":"TREATMENT","visit":null,"supplemental":{"AETRTEM":"Y"}},{"seq":"12","term":"NAUSEA","decod":"Nausea","llt":"Nausea","hlt":"Nausea and vomiting symptoms","hlgt":"Gastrointestinal signs and symptoms","soc":"Gastrointestinal disorders","bodsys":"Gastrointestinal disorders","severity":"MILD","serious":"N","causality":"NOT RELATED","action_taken":"DOSE NOT CHANGED","outcome":"RECOVERED/RESOLVED","fatal":"N","hospitalization":"N","life_threatening":"N","onset_dtc":"2024-10-15","end_dtc":"2024-10-18","onset_dy":"233","end_dy":"236","duration":null,"epoch":"TREATMENT","visit":null,"supplemental":{"AETRTEM":"Y"}},{"seq":"13","term":"DIARRHOEA","decod":"Diarrhoea","llt":"Diarrhoea","hlt":"Diarrhoea (excl infective)","hlgt":"Gastrointestinal motility and defaecation conditions","soc":"Gastrointestinal disorders","bodsys":"Gastrointestinal disorders","severity":"MODERATE","serious":"N","causality":"POSSIBLY RELATED","action_taken":"DOSE NOT CHANGED","outcome":"RECOVERED/RESOLVED","fatal":"N","hospitalization":"N","life_threatening":"N","onset_dtc":"2024-11-08","end_dtc":"2024-11-15","onset_dy":"257","end_dy":"264","duration":null,"epoch":"TREATMENT","visit":null,"supplemental":{"AETRTEM":"Y"}},{"seq":"14","term":"OEDEMA PERIPHERAL","decod":"Oedema peripheral","llt":"Oedema peripheral","hlt":"Oedema NEC","hlgt":"Oedema NEC","soc":"General disorders and administration site conditions","bodsys":"General disorders and administration site conditions","severity":"MODERATE","serious":"N","causality":"POSSIBLY RELATED","action_taken":"DRUG INTERRUPTED","outcome":"RECOVERED/RESOLVED","fatal":"N","hospitalization":"N","life_threatening":"N","onset_dtc":"2024-12-08","end_dtc":"2024-12-13","onset_dy":"287","end_dy":"292","duration":null,"epoch":"TREATMENT","visit":null,"supplemental":{"AETRTEM":"Y"}},{"seq":"15","term":"HYPOTENSION","decod":"Hypotension","llt":"Hypotension","hlt":"Vascular hypotensive disorders","hlgt":"Vascular disorders NEC","soc":"Vascular disorders","bodsys":"Vascular disorders","severity":"MILD","serious":"N","causality":"NOT RELATED","action_taken":"DOSE NOT CHANGED","outcome":"RECOVERING/RESOLVING","fatal":"N","hospitalization":"N","life_threatening":"N","onset_dtc":"2024-12-13","end_dtc":"2024-12-19","onset_dy":"292","end_dy":"298","duration":null,"epoch":"TREATMENT","visit":null,"supplemental":{"AETRTEM":"Y"}},{"seq":"16","term":"HEADACHE","decod":"Headache","llt":"Headache","hlt":"Headaches NEC","hlgt":"Headaches","soc":"Nervous system disorders","bodsys":"Nervous system disorders","severity":"MODERATE","serious":"N","causality":"POSSIBLY RELATED","action_taken":"DOSE NOT CHANGED","outcome":"RECOVERING/RESOLVING","fatal":"N","hospitalization":"N","life_threatening":"N","onset_dtc":"2024-12-20","end_dtc":"2024-12-25","onset_dy":"299","end_dy":"304","duration":null,"epoch":"TREATMENT","visit":null,"supplemental":{"AETRTEM":"Y"}},{"seq":"17","term":"HEADACHE","decod":"Headache","llt":"Headache","hlt":"Headaches NEC","hlgt":"Headaches","soc":"Nervous system disorders","bodsys":"Nervous system disorders","severity":"MODERATE","serious":"N","causality":"POSSIBLY RELATED","action_taken":"DOSE REDUCED","outcome":"RECOVERING/RESOLVING","fatal":"N","hospitalization":"N","life_threatening":"N","onset_dtc":"2024-12-23","end_dtc":"2024-12-29","onset_dy":"302","end_dy":"308","duration":null,"epoch":"TREATMENT","visit":null,"supplemental":{"AETRTEM":"Y"}},{"seq":"18","term":"OEDEMA PERIPHERAL","decod":"Oedema peripheral","llt":"Oedema peripheral","hlt":"Oedema NEC","hlgt":"Oedema NEC","soc":"General disorders and administration site conditions","bodsys":"General disorders and administration site conditions","severity":"MILD","serious":"N","causality":"UNLIKELY RELATED","action_taken":"DOSE NOT CHANGED","outcome":"RECOVERING/RESOLVING","fatal":"N","hospitalization":"N","life_threatening":"N","onset_dtc":"2025-01-04","end_dtc":"2025-01-09","onset_dy":"314","end_dy":"319","duration":null,"epoch":"TREATMENT","visit":null,"supplemental":{"AETRTEM":"Y"}},{"seq":"19","term":"HYPOTENSION","decod":"Hypotension","llt":"Hypotension","hlt":"Vascular hypotensive disorders","hlgt":"Vascular disorders NEC","soc":"Vascular disorders","bodsys":"Vascular disorders","severity":"MODERATE","serious":"N","causality":"POSSIBLY RELATED","action_taken":"DOSE REDUCED","outcome":"RECOVERING/RESOLVING","fatal":"N","hospitalization":"N","life_threatening":"N","onset_dtc":"2025-02-18","end_dtc":"2025-02-21","onset_dy":"359","end_dy":"362","duration":null,"epoch":"TREATMENT","visit":null,"supplemental":{"AETRTEM":"Y"}},{"seq":"20","term":"HYPOTENSION","decod":"Hypotension","llt":"Hypotension","hlt":"Vascular hypotensive disorders","hlgt":"Vascular disorders NEC","soc":"Vascular disorders","bodsys":"Vascular disorders","severity":"MILD","serious":"N","causality":"NOT RELATED","action_taken":"DOSE NOT CHANGED","outcome":"NOT RECOVERED/NOT RESOLVED","fatal":"N","hospitalization":"N","life_threatening":"N","onset_dtc":"2025-03-03","end_dtc":null,"onset_dy":"372","end_dy":null,"duration":null,"epoch":"TREATMENT","visit":null,"supplemental":{"AETRTEM":"Y"}},{"seq":"21","term":"DIZZINESS","decod":"Dizziness","llt":"Dizziness","hlt":"Dizziness and vertigo symptoms","hlgt":"Neurological signs and symptoms NEC","soc":"Nervous system disorders","bodsys":"Nervous system disorders","severity":"MILD","serious":"N","causality":"NOT RELATED","action_taken":"DOSE NOT CHANGED","outcome":"RECOVERED/RESOLVED","fatal":"N","hospitalization":"N","life_threatening":"N","onset_dtc":"2025-10-06","end_dtc":"2025-10-17","onset_dy":"589","end_dy":"600","duration":null,"epoch":"TREATMENT","visit":null,"supplemental":{"AETRTEM":"Y"}},{"seq":"22","term":"DIARRHOEA","decod":"Diarrhoea","llt":"Diarrhoea","hlt":"Diarrhoea (excl infective)","hlgt":"Gastrointestinal motility and defaecation conditions","soc":"Gastrointestinal disorders","bodsys":"Gastrointestinal disorders","severity":"MILD","serious":"N","causality":"NOT RELATED","action_taken":"DOSE NOT CHANGED","outcome":"RECOVERED/RESOLVED","fatal":"N","hospitalization":"N","life_threatening":"N","onset_dtc":"2026-01-20","end_dtc":"2026-01-24","onset_dy":"695","end_dy":"699","duration":null,"epoch":"TREATMENT","visit":null,"supplemental":{"AETRTEM":"Y"}},{"seq":"23","term":"FATIGUE","decod":"Fatigue","llt":"Fatigue","hlt":"Asthenic conditions","hlgt":"General system disorders NEC","soc":"General disorders and administration site conditions","bodsys":"General disorders and administration site conditions","severity":"MILD","serious":"N","causality":"UNLIKELY RELATED","action_taken":"DOSE NOT CHANGED","outcome":"RECOVERED/RESOLVED","fatal":"N","hospitalization":"N","life_threatening":"N","onset_dtc":"2026-02-16","end_dtc":"2026-03-04","onset_dy":"722","end_dy":"738","duration":null,"epoch":"TREATMENT","visit":null,"supplemental":{"AETRTEM":"Y"}}]},"section_8_laboratory_results":{"summary":{"total_records":77,"abnormal_count":21,"abnormal_pct":27.3},"shift_summary":[{"testcd":"ALT","baseline_value":13.31,"baseline_nrind":"NORMAL","worst_post_baseline_value":17.69,"worst_post_baseline_nrind":"NORMAL","worst_visit":"WEEK 36"},{"testcd":"AST","baseline_value":22.97,"baseline_nrind":"NORMAL","worst_post_baseline_value":23.34,"worst_post_baseline_nrind":"NORMAL","worst_visit":"WEEK 58"},{"testcd":"CREAT","baseline_value":111.08,"baseline_nrind":"HIGH","worst_post_baseline_value":115.8,"worst_post_baseline_nrind":"HIGH","worst_visit":"WEEK 36"},{"testcd":"GLUC","baseline_value":3.62,"baseline_nrind":"LOW","worst_post_baseline_value":3.97,"worst_post_baseline_nrind":"NORMAL","worst_visit":"WEEK 84"},{"testcd":"HGB","baseline_value":159.33,"baseline_nrind":"NORMAL","worst_post_baseline_value":155.81,"worst_post_baseline_nrind":"NORMAL","worst_visit":"SAFETY FU"},{"testcd":"PLAT","baseline_value":301.44,"baseline_nrind":"NORMAL","worst_post_baseline_value":327.48,"worst_post_baseline_nrind":"NORMAL","worst_visit":"WEEK 110"},{"testcd":"WBC","baseline_value":5.22,"baseline_nrind":"NORMAL","worst_post_baseline_value":5.24,"worst_post_baseline_nrind":"NORMAL","worst_visit":"WEEK 114 EOT"}],"results":[{"seq":"1","testcd":"ALT","test":"Alanine Aminotransferase","cat":"CHEMISTRY","orres":"13.31","orresu":"U/L","stresc":"13.31","stresn":"13.31","stresu":"U/L","stnrlo":"7","stnrhi":"56","nrind":"NORMAL","fast":null,"dtc":"2024-01-06","dy":"-51","visit":"SCREENING","visitnum":"1.0","epoch":"SCREENING","spec":null,"method":null},{"seq":"2","testcd":"AST","test":"Aspartate Aminotransferase","cat":"CHEMISTRY","orres":"22.97","orresu":"U/L","stresc":"22.97","stresn":"22.97","stresu":"U/L","stnrlo":"10","stnrhi":"40","nrind":"NORMAL","fast":null,"dtc":"2024-01-06","dy":"-51","visit":"SCREENING","visitnum":"1.0","epoch":"SCREENING","spec":null,"method":null},{"seq":"3","testcd":"CREAT","test":"Creatinine","cat":"CHEMISTRY","orres":"111.08","orresu":"umol/L","stresc":"111.08","stresn":"111.08","stresu":"umol/L","stnrlo":"62","stnrhi":"106","nrind":"HIGH","fast":null,"dtc":"2024-01-06","dy":"-51","visit":"SCREENING","visitnum":"1.0","epoch":"SCREENING","spec":null,"method":null},{"seq":"4","testcd":"GLUC","test":"Glucose","cat":"CHEMISTRY","orres":"3.62","orresu":"mmol/L","stresc":"3.62","stresn":"3.62","stresu":"mmol/L","stnrlo":"3.9","stnrhi":"5.6","nrind":"LOW","fast":null,"dtc":"2024-01-06","dy":"-51","visit":"SCREENING","visitnum":"1.0","epoch":"SCREENING","spec":null,"method":null},{"seq":"5","testcd":"HGB","test":"Hemoglobin","cat":"HEMATOLOGY","orres":"159.33","orresu":"g/L","stresc":"159.33","stresn":"159.33","stresu":"g/L","stnrlo":"130","stnrhi":"175","nrind":"NORMAL","fast":null,"dtc":"2024-01-06","dy":"-51","visit":"SCREENING","visitnum":"1.0","epoch":"SCREENING","spec":null,"method":null},{"seq":"6","testcd":"PLAT","test":"Platelets","cat":"HEMATOLOGY","orres":"301.44","orresu":"10^9/L","stresc":"301.44","stresn":"301.44","stresu":"10^9/L","stnrlo":"150","stnrhi":"400","nrind":"NORMAL","fast":null,"dtc":"2024-01-06","dy":"-51","visit":"SCREENING","visitnum":"1.0","epoch":"SCREENING","spec":null,"method":null},{"seq":"7","testcd":"WBC","test":"Leukocytes","cat":"HEMATOLOGY","orres":"5.22","orresu":"10^9/L","stresc":"5.22","stresn":"5.22","stresu":"10^9/L","stnrlo":"4.0","stnrhi":"11.0","nrind":"NORMAL","fast":null,"dtc":"2024-01-06","dy":"-51","visit":"SCREENING","visitnum":"1.0","epoch":"SCREENING","spec":null,"method":null},{"seq":"8","testcd":"ALT","test":"Alanine Aminotransferase","cat":"CHEMISTRY","orres":"12.39","orresu":"U/L","stresc":"12.39","stresn":"12.39","stresu":"U/L","stnrlo":"7","stnrhi":"56","nrind":"NORMAL","fast":null,"dtc":"2024-02-26","dy":"1","visit":"BASELINE","visitnum":"2.0","epoch":"TREATMENT","spec":null,"method":null},{"seq":"9","testcd":"AST","test":"Aspartate Aminotransferase","cat":"CHEMISTRY","orres":"22.98","orresu":"U/L","stresc":"22.98","stresn":"22.98","stresu":"U/L","stnrlo":"10","stnrhi":"40","nrind":"NORMAL","fast":null,"dtc":"2024-02-26","dy":"1","visit":"BASELINE","visitnum":"2.0","epoch":"TREATMENT","spec":null,"method":null},{"seq":"10","testcd":"CREAT","test":"Creatinine","cat":"CHEMISTRY","orres":"108.86","orresu":"umol/L","stresc":"108.86","stresn":"108.86","stresu":"umol/L","stnrlo":"62","stnrhi":"106","nrind":"HIGH","fast":null,"dtc":"2024-02-26","dy":"1","visit":"BASELINE","visitnum":"2.0","epoch":"TREATMENT","spec":null,"method":null},{"seq":"11","testcd":"GLUC","test":"Glucose","cat":"CHEMISTRY","orres":"3.62","orresu":"mmol/L","stresc":"3.62","stresn":"3.62","stresu":"mmol/L","stnrlo":"3.9","stnrhi":"5.6","nrind":"LOW","fast":null,"dtc":"2024-02-26","dy":"1","visit":"BASELINE","visitnum":"2.0","epoch":"TREATMENT","spec":null,"method":null},{"seq":"12","testcd":"HGB","test":"Hemoglobin","cat":"HEMATOLOGY","orres":"159.02","orresu":"g/L","stresc":"159.02","stresn":"159.02","stresu":"g/L","stnrlo":"130","stnrhi":"175","nrind":"NORMAL","fast":null,"dtc":"2024-02-26","dy":"1","visit":"BASELINE","visitnum":"2.0","epoch":"TREATMENT","spec":null,"method":null},{"seq":"13","testcd":"PLAT","test":"Platelets","cat":"HEMATOLOGY","orres":"291.76","orresu":"10^9/L","stresc":"291.76","stresn":"291.76","stresu":"10^9/L","stnrlo":"150","stnrhi":"400","nrind":"NORMAL","fast":null,"dtc":"2024-02-26","dy":"1","visit":"BASELINE","visitnum":"2.0","epoch":"TREATMENT","spec":null,"method":null},{"seq":"14","testcd":"WBC","test":"Leukocytes","cat":"HEMATOLOGY","orres":"5.05","orresu":"10^9/L","stresc":"5.05","stresn":"5.05","stresu":"10^9/L","stnrlo":"4.0","stnrhi":"11.0","nrind":"NORMAL","fast":null,"dtc":"2024-02-26","dy":"1","visit":"BASELINE","visitnum":"2.0","epoch":"TREATMENT","spec":null,"method":null},{"seq":"15","testcd":"ALT","test":"Alanine Aminotransferase","cat":"CHEMISTRY","orres":"14.25","orresu":"U/L","stresc":"14.25","stresn":"14.25","stresu":"U/L","stnrlo":"7","stnrhi":"56","nrind":"NORMAL","fast":null,"dtc":"2024-03-09","dy":"13","visit":"WEEK 2","visitnum":"3.0","epoch":"TREATMENT","spec":null,"method":null},{"seq":"16","testcd":"AST","test":"Aspartate Aminotransferase","cat":"CHEMISTRY","orres":"20.49","orresu":"U/L","stresc":"20.49","stresn":"20.49","stresu":"U/L","stnrlo":"10","stnrhi":"40","nrind":"NORMAL","fast":null,"dtc":"2024-03-09","dy":"13","visit":"WEEK 2","visitnum":"3.0","epoch":"TREATMENT","spec":null,"method":null},{"seq":"17","testcd":"CREAT","test":"Creatinine","cat":"CHEMISTRY","orres":"106.06","orresu":"umol/L","stresc":"106.06","stresn":"106.06","stresu":"umol/L","stnrlo":"62","stnrhi":"106","nrind":"HIGH","fast":null,"dtc":"2024-03-09","dy":"13","visit":"WEEK 2","visitnum":"3.0","epoch":"TREATMENT","spec":null,"method":null},{"seq":"18","testcd":"GLUC","test":"Glucose","cat":"CHEMISTRY","orres":"3.63","orresu":"mmol/L","stresc":"3.63","stresn":"3.63","stresu":"mmol/L","stnrlo":"3.9","stnrhi":"5.6","nrind":"LOW","fast":null,"dtc":"2024-03-09","dy":"13","visit":"WEEK 2","visitnum":"3.0","epoch":"TREATMENT","spec":null,"method":null},{"seq":"19","testcd":"HGB","test":"Hemoglobin","cat":"HEMATOLOGY","orres":"159.12","orresu":"g/L","stresc":"159.12","stresn":"159.12","stresu":"g/L","stnrlo":"130","stnrhi":"175","nrind":"NORMAL","fast":null,"dtc":"2024-03-09","dy":"13","visit":"WEEK 2","visitnum":"3.0","epoch":"TREATMENT","spec":null,"method":null},{"seq":"20","testcd":"PLAT","test":"Platelets","cat":"HEMATOLOGY","orres":"299.13","orresu":"10^9/L","stresc":"299.13","stresn":"299.13","stresu":"10^9/L","stnrlo":"150","stnrhi":"400","nrind":"NORMAL","fast":null,"dtc":"2024-03-09","dy":"13","visit":"WEEK 2","visitnum":"3.0","epoch":"TREATMENT","spec":null,"method":null},{"seq":"21","testcd":"WBC","test":"Leukocytes","cat":"HEMATOLOGY","orres":"5.23","orresu":"10^9/L","stresc":"5.23","stresn":"5.23","stresu":"10^9/L","stnrlo":"4.0","stnrhi":"11.0","nrind":"NORMAL","fast":null,"dtc":"2024-03-09","dy":"13","visit":"WEEK 2","visitnum":"3.0","epoch":"TREATMENT","spec":null,"method":null},{"seq":"22","testcd":"ALT","test":"Alanine Aminotransferase","cat":"CHEMISTRY","orres":"16.31","orresu":"U/L","stresc":"16.31","stresn":"16.31","stresu":"U/L","stnrlo":"7","stnrhi":"56","nrind":"NORMAL","fast":null,"dtc":"2024-04-22","dy":"57","visit":"WEEK 8","visitnum":"5.0","epoch":"TREATMENT","spec":null,"method":null},{"seq":"23","testcd":"AST","test":"Aspartate Aminotransferase","cat":"CHEMISTRY","orres":"18.85","orresu":"U/L","stresc":"18.85","stresn":"18.85","stresu":"U/L","stnrlo":"10","stnrhi":"40","nrind":"NORMAL","fast":null,"dtc":"2024-04-22","dy":"57","visit":"WEEK 8","visitnum":"5.0","epoch":"TREATMENT","spec":null,"method":null},{"seq":"24","testcd":"CREAT","test":"Creatinine","cat":"CHEMISTRY","orres":"109.29","orresu":"umol/L","stresc":"109.29","stresn":"109.29","stresu":"umol/L","stnrlo":"62","stnrhi":"106","nrind":"HIGH","fast":null,"dtc":"2024-04-22","dy":"57","visit":"WEEK 8","visitnum":"5.0","epoch":"TREATMENT","spec":null,"method":null},{"seq":"25","testcd":"GLUC","test":"Glucose","cat":"CHEMISTRY","orres":"3.76","orresu":"mmol/L","stresc":"3.76","stresn":"3.76","stresu":"mmol/L","stnrlo":"3.9","stnrhi":"5.6","nrind":"LOW","fast":null,"dtc":"2024-04-22","dy":"57","visit":"WEEK 8","visitnum":"5.0","epoch":"TREATMENT","spec":null,"method":null},{"seq":"26","testcd":"HGB","test":"Hemoglobin","cat":"HEMATOLOGY","orres":"158.41","orresu":"g/L","stresc":"158.41","stresn":"158.41","stresu":"g/L","stnrlo":"130","stnrhi":"175","nrind":"NORMAL","fast":null,"dtc":"2024-04-22","dy":"57","visit":"WEEK 8","visitnum":"5.0","epoch":"TREATMENT","spec":null,"method":null},{"seq":"27","testcd":"PLAT","test":"Platelets","cat":"HEMATOLOGY","orres":"319.92","orresu":"10^9/L","stresc":"319.92","stresn":"319.92","stresu":"10^9/L","stnrlo":"150","stnrhi":"400","nrind":"NORMAL","fast":null,"dtc":"2024-04-22","dy":"57","visit":"WEEK 8","visitnum":"5.0","epoch":"TREATMENT","spec":null,"method":null},{"seq":"28","testcd":"WBC","test":"Leukocytes","cat":"HEMATOLOGY","orres":"5.0","orresu":"10^9/L","stresc":"5.0","stresn":"5.0","stresu":"10^9/L","stnrlo":"4.0","stnrhi":"11.0","nrind":"NORMAL","fast":null,"dtc":"2024-04-22","dy":"57","visit":"WEEK 8","visitnum":"5.0","epoch":"TREATMENT","spec":null,"method":null},{"seq":"29","testcd":"ALT","test":"Alanine Aminotransferase","cat":"CHEMISTRY","orres":"16.52","orresu":"U/L","stresc":"16.52","stresn":"16.52","stresu":"U/L","stnrlo":"7","stnrhi":"56","nrind":"NORMAL","fast":null,"dtc":"2024-05-17","dy":"82","visit":"WEEK 12","visitnum":"6.0","epoch":"TREATMENT","spec":null,"method":null},{"seq":"30","testcd":"AST","test":"Aspartate Aminotransferase","cat":"CHEMISTRY","orres":"20.08","orresu":"U/L","stresc":"20.08","stresn":"20.08","stresu":"U/L","stnrlo":"10","stnrhi":"40","nrind":"NORMAL","fast":null,"dtc":"2024-05-17","dy":"82","visit":"WEEK 12","visitnum":"6.0","epoch":"TREATMENT","spec":null,"method":null},{"seq":"31","testcd":"CREAT","test":"Creatinine","cat":"CHEMISTRY","orres":"112.57","orresu":"umol/L","stresc":"112.57","stresn":"112.57","stresu":"umol/L","stnrlo":"62","stnrhi":"106","nrind":"HIGH","fast":null,"dtc":"2024-05-17","dy":"82","visit":"WEEK 12","visitnum":"6.0","epoch":"TREATMENT","spec":null,"method":null},{"seq":"32","testcd":"GLUC","test":"Glucose","cat":"CHEMISTRY","orres":"3.69","orresu":"mmol/L","stresc":"3.69","stresn":"3.69","stresu":"mmol/L","stnrlo":"3.9","stnrhi":"5.6","nrind":"LOW","fast":null,"dtc":"2024-05-17","dy":"82","visit":"WEEK 12","visitnum":"6.0","epoch":"TREATMENT","spec":null,"method":null},{"seq":"33","testcd":"HGB","test":"Hemoglobin","cat":"HEMATOLOGY","orres":"159.36","orresu":"g/L","stresc":"159.36","stresn":"159.36","stresu":"g/L","stnrlo":"130","stnrhi":"175","nrind":"NORMAL","fast":null,"dtc":"2024-05-17","dy":"82","visit":"WEEK 12","visitnum":"6.0","epoch":"TREATMENT","spec":null,"method":null},{"seq":"34","testcd":"PLAT","test":"Platelets","cat":"HEMATOLOGY","orres":"313.43","orresu":"10^9/L","stresc":"313.43","stresn":"313.43","stresu":"10^9/L","stnrlo":"150","stnrhi":"400","nrind":"NORMAL","fast":null,"dtc":"2024-05-17","dy":"82","visit":"WEEK 12","visitnum":"6.0","epoch":"TREATMENT","spec":null,"method":null},{"seq":"35","testcd":"WBC","test":"Leukocytes","cat":"HEMATOLOGY","orres":"4.84","orresu":"10^9/L","stresc":"4.84","stresn":"4.84","stresu":"10^9/L","stnrlo":"4.0","stnrhi":"11.0","nrind":"NORMAL","fast":null,"dtc":"2024-05-17","dy":"82","visit":"WEEK 12","visitnum":"6.0","epoch":"TREATMENT","spec":null,"method":null},{"seq":"36","testcd":"ALT","test":"Alanine Aminotransferase","cat":"CHEMISTRY","orres":"17.69","orresu":"U/L","stresc":"17.69","stresn":"17.69","stresu":"U/L","stnrlo":"7","stnrhi":"56","nrind":"NORMAL","fast":null,"dtc":"2024-10-29","dy":"247","visit":"WEEK 36","visitnum":"8.0","epoch":"TREATMENT","spec":null,"method":null},{"seq":"37","testcd":"AST","test":"Aspartate Aminotransferase","cat":"CHEMISTRY","orres":"21.81","orresu":"U/L","stresc":"21.81","stresn":"21.81","stresu":"U/L","stnrlo":"10","stnrhi":"40","nrind":"NORMAL","fast":null,"dtc":"2024-10-29","dy":"247","visit":"WEEK 36","visitnum":"8.0","epoch":"TREATMENT","spec":null,"method":null},{"seq":"38","testcd":"CREAT","test":"Creatinine","cat":"CHEMISTRY","orres":"115.8","orresu":"umol/L","stresc":"115.8","stresn":"115.8","stresu":"umol/L","stnrlo":"62","stnrhi":"106","nrind":"HIGH","fast":null,"dtc":"2024-10-29","dy":"247","visit":"WEEK 36","visitnum":"8.0","epoch":"TREATMENT","spec":null,"method":null},{"seq":"39","testcd":"GLUC","test":"Glucose","cat":"CHEMISTRY","orres":"3.63","orresu":"mmol/L","stresc":"3.63","stresn":"3.63","stresu":"mmol/L","stnrlo":"3.9","stnrhi":"5.6","nrind":"LOW","fast":null,"dtc":"2024-10-29","dy":"247","visit":"WEEK 36","visitnum":"8.0","epoch":"TREATMENT","spec":null,"method":null},{"seq":"40","testcd":"HGB","test":"Hemoglobin","cat":"HEMATOLOGY","orres":"158.29","orresu":"g/L","stresc":"158.29","stresn":"158.29","stresu":"g/L","stnrlo":"130","stnrhi":"175","nrind":"NORMAL","fast":null,"dtc":"2024-10-29","dy":"247","visit":"WEEK 36","visitnum":"8.0","epoch":"TREATMENT","spec":null,"method":null},{"seq":"41","testcd":"PLAT","test":"Platelets","cat":"HEMATOLOGY","orres":"308.08","orresu":"10^9/L","stresc":"308.08","stresn":"308.08","stresu":"10^9/L","stnrlo":"150","stnrhi":"400","nrind":"NORMAL","fast":null,"dtc":"2024-10-29","dy":"247","visit":"WEEK 36","visitnum":"8.0","epoch":"TREATMENT","spec":null,"method":null},{"seq":"42","testcd":"WBC","test":"Leukocytes","cat":"HEMATOLOGY","orres":"4.91","orresu":"10^9/L","stresc":"4.91","stresn":"4.91","stresu":"10^9/L","stnrlo":"4.0","stnrhi":"11.0","nrind":"NORMAL","fast":null,"dtc":"2024-10-29","dy":"247","visit":"WEEK 36","visitnum":"8.0","epoch":"TREATMENT","spec":null,"method":null},{"seq":"43","testcd":"ALT","test":"Alanine Aminotransferase","cat":"CHEMISTRY","orres":"17.15","orresu":"U/L","stresc":"17.15","stresn":"17.15","stresu":"U/L","stnrlo":"7","stnrhi":"56","nrind":"NORMAL","fast":null,"dtc":"2025-03-31","dy":"400","visit":"WEEK 58","visitnum":"9.0","epoch":"TREATMENT","spec":null,"method":null},{"seq":"44","testcd":"AST","test":"Aspartate Aminotransferase","cat":"CHEMISTRY","orres":"23.34","orresu":"U/L","stresc":"23.34","stresn":"23.34","stresu":"U/L","stnrlo":"10","stnrhi":"40","nrind":"NORMAL","fast":null,"dtc":"2025-03-31","dy":"400","visit":"WEEK 58","visitnum":"9.0","epoch":"TREATMENT","spec":null,"method":null},{"seq":"45","testcd":"CREAT","test":"Creatinine","cat":"CHEMISTRY","orres":"114.46","orresu":"umol/L","stresc":"114.46","stresn":"114.46","stresu":"umol/L","stnrlo":"62","stnrhi":"106","nrind":"HIGH","fast":null,"dtc":"2025-03-31","dy":"400","visit":"WEEK 58","visitnum":"9.0","epoch":"TREATMENT","spec":null,"method":null},{"seq":"46","testcd":"GLUC","test":"Glucose","cat":"CHEMISTRY","orres":"3.71","orresu":"mmol/L","stresc":"3.71","stresn":"3.71","stresu":"mmol/L","stnrlo":"3.9","stnrhi":"5.6","nrind":"LOW","fast":null,"dtc":"2025-03-31","dy":"400","visit":"WEEK 58","visitnum":"9.0","epoch":"TREATMENT","spec":null,"method":null},{"seq":"47","testcd":"HGB","test":"Hemoglobin","cat":"HEMATOLOGY","orres":"161.87","orresu":"g/L","stresc":"161.87","stresn":"161.87","stresu":"g/L","stnrlo":"130","stnrhi":"175","nrind":"NORMAL","fast":null,"dtc":"2025-03-31","dy":"400","visit":"WEEK 58","visitnum":"9.0","epoch":"TREATMENT","spec":null,"method":null},{"seq":"48","testcd":"PLAT","test":"Platelets","cat":"HEMATOLOGY","orres":"311.61","orresu":"10^9/L","stresc":"311.61","stresn":"311.61","stresu":"10^9/L","stnrlo":"150","stnrhi":"400","nrind":"NORMAL","fast":null,"dtc":"2025-03-31","dy":"400","visit":"WEEK 58","visitnum":"9.0","epoch":"TREATMENT","spec":null,"method":null},{"seq":"49","testcd":"WBC","test":"Leukocytes","cat":"HEMATOLOGY","orres":"4.65","orresu":"10^9/L","stresc":"4.65","stresn":"4.65","stresu":"10^9/L","stnrlo":"4.0","stnrhi":"11.0","nrind":"NORMAL","fast":null,"dtc":"2025-03-31","dy":"400","visit":"WEEK 58","visitnum":"9.0","epoch":"TREATMENT","spec":null,"method":null},{"seq":"50","testcd":"ALT","test":"Alanine Aminotransferase","cat":"CHEMISTRY","orres":"16.25","orresu":"U/L","stresc":"16.25","stresn":"16.25","stresu":"U/L","stnrlo":"7","stnrhi":"56","nrind":"NORMAL","fast":null,"dtc":"2025-10-03","dy":"586","visit":"WEEK 84","visitnum":"10.0","epoch":"TREATMENT","spec":null,"method":null},{"seq":"51","testcd":"AST","test":"Aspartate Aminotransferase","cat":"CHEMISTRY","orres":"21.33","orresu":"U/L","stresc":"21.33","stresn":"21.33","stresu":"U/L","stnrlo":"10","stnrhi":"40","nrind":"NORMAL","fast":null,"dtc":"2025-10-03","dy":"586","visit":"WEEK 84","visitnum":"10.0","epoch":"TREATMENT","spec":null,"method":null},{"seq":"52","testcd":"CREAT","test":"Creatinine","cat":"CHEMISTRY","orres":"111.36","orresu":"umol/L","stresc":"111.36","stresn":"111.36","stresu":"umol/L","stnrlo":"62","stnrhi":"106","nrind":"HIGH","fast":null,"dtc":"2025-10-03","dy":"586","visit":"WEEK 84","visitnum":"10.0","epoch":"TREATMENT","spec":null,"method":null},{"seq":"53","testcd":"GLUC","test":"Glucose","cat":"CHEMISTRY","orres":"3.97","orresu":"mmol/L","stresc":"3.97","stresn":"3.97","stresu":"mmol/L","stnrlo":"3.9","stnrhi":"5.6","nrind":"NORMAL","fast":null,"dtc":"2025-10-03","dy":"586","visit":"WEEK 84","visitnum":"10.0","epoch":"TREATMENT","spec":null,"method":null},{"seq":"54","testcd":"HGB","test":"Hemoglobin","cat":"HEMATOLOGY","orres":"158.72","orresu":"g/L","stresc":"158.72","stresn":"158.72","stresu":"g/L","stnrlo":"130","stnrhi":"175","nrind":"NORMAL","fast":null,"dtc":"2025-10-03","dy":"586","visit":"WEEK 84","visitnum":"10.0","epoch":"TREATMENT","spec":null,"method":null},{"seq":"55","testcd":"PLAT","test":"Platelets","cat":"HEMATOLOGY","orres":"319.55","orresu":"10^9/L","stresc":"319.55","stresn":"319.55","stresu":"10^9/L","stnrlo":"150","stnrhi":"400","nrind":"NORMAL","fast":null,"dtc":"2025-10-03","dy":"586","visit":"WEEK 84","visitnum":"10.0","epoch":"TREATMENT","spec":null,"method":null},{"seq":"56","testcd":"WBC","test":"Leukocytes","cat":"HEMATOLOGY","orres":"4.6","orresu":"10^9/L","stresc":"4.6","stresn":"4.6","stresu":"10^9/L","stnrlo":"4.0","stnrhi":"11.0","nrind":"NORMAL","fast":null,"dtc":"2025-10-03","dy":"586","visit":"WEEK 84","visitnum":"10.0","epoch":"TREATMENT","spec":null,"method":null},{"seq":"57","testcd":"ALT","test":"Alanine Aminotransferase","cat":"CHEMISTRY","orres":"12.99","orresu":"U/L","stresc":"12.99","stresn":"12.99","stresu":"U/L","stnrlo":"7","stnrhi":"56","nrind":"NORMAL","fast":null,"dtc":"2026-04-11","dy":"776","visit":"WEEK 110","visitnum":"11.0","epoch":"TREATMENT","spec":null,"method":null},{"seq":"58","testcd":"AST","test":"Aspartate Aminotransferase","cat":"CHEMISTRY","orres":"22.31","orresu":"U/L","stresc":"22.31","stresn":"22.31","stresu":"U/L","stnrlo":"10","stnrhi":"40","nrind":"NORMAL","fast":null,"dtc":"2026-04-11","dy":"776","visit":"WEEK 110","visitnum":"11.0","epoch":"TREATMENT","spec":null,"method":null},{"seq":"59","testcd":"CREAT","test":"Creatinine","cat":"CHEMISTRY","orres":"108.36","orresu":"umol/L","stresc":"108.36","stresn":"108.36","stresu":"umol/L","stnrlo":"62","stnrhi":"106","nrind":"HIGH","fast":null,"dtc":"2026-04-11","dy":"776","visit":"WEEK 110","visitnum":"11.0","epoch":"TREATMENT","spec":null,"method":null},{"seq":"60","testcd":"GLUC","test":"Glucose","cat":"CHEMISTRY","orres":"3.82","orresu":"mmol/L","stresc":"3.82","stresn":"3.82","stresu":"mmol/L","stnrlo":"3.9","stnrhi":"5.6","nrind":"LOW","fast":null,"dtc":"2026-04-11","dy":"776","visit":"WEEK 110","visitnum":"11.0","epoch":"TREATMENT","spec":null,"method":null},{"seq":"61","testcd":"HGB","test":"Hemoglobin","cat":"HEMATOLOGY","orres":"159.58","orresu":"g/L","stresc":"159.58","stresn":"159.58","stresu":"g/L","stnrlo":"130","stnrhi":"175","nrind":"NORMAL","fast":null,"dtc":"2026-04-11","dy":"776","visit":"WEEK 110","visitnum":"11.0","epoch":"TREATMENT","spec":null,"method":null},{"seq":"62","testcd":"PLAT","test":"Platelets","cat":"HEMATOLOGY","orres":"327.48","orresu":"10^9/L","stresc":"327.48","stresn":"327.48","stresu":"10^9/L","stnrlo":"150","stnrhi":"400","nrind":"NORMAL","fast":null,"dtc":"2026-04-11","dy":"776","visit":"WEEK 110","visitnum":"11.0","epoch":"TREATMENT","spec":null,"method":null},{"seq":"63","testcd":"WBC","test":"Leukocytes","cat":"HEMATOLOGY","orres":"4.42","orresu":"10^9/L","stresc":"4.42","stresn":"4.42","stresu":"10^9/L","stnrlo":"4.0","stnrhi":"11.0","nrind":"NORMAL","fast":null,"dtc":"2026-04-11","dy":"776","visit":"WEEK 110","visitnum":"11.0","epoch":"TREATMENT","spec":null,"method":null},{"seq":"64","testcd":"ALT","test":"Alanine Aminotransferase","cat":"CHEMISTRY","orres":"12.15","orresu":"U/L","stresc":"12.15","stresn":"12.15","stresu":"U/L","stnrlo":"7","stnrhi":"56","nrind":"NORMAL","fast":null,"dtc":"2026-05-10","dy":"805","visit":"WEEK 114 EOT","visitnum":"12.0","epoch":"TREATMENT","spec":null,"method":null},{"seq":"65","testcd":"AST","test":"Aspartate Aminotransferase","cat":"CHEMISTRY","orres":"22.09","orresu":"U/L","stresc":"22.09","stresn":"22.09","stresu":"U/L","stnrlo":"10","stnrhi":"40","nrind":"NORMAL","fast":null,"dtc":"2026-05-10","dy":"805","visit":"WEEK 114 EOT","visitnum":"12.0","epoch":"TREATMENT","spec":null,"method":null},{"seq":"66","testcd":"CREAT","test":"Creatinine","cat":"CHEMISTRY","orres":"110.16","orresu":"umol/L","stresc":"110.16","stresn":"110.16","stresu":"umol/L","stnrlo":"62","stnrhi":"106","nrind":"HIGH","fast":null,"dtc":"2026-05-10","dy":"805","visit":"WEEK 114 EOT","visitnum":"12.0","epoch":"TREATMENT","spec":null,"method":null},{"seq":"67","testcd":"GLUC","test":"Glucose","cat":"CHEMISTRY","orres":"3.62","orresu":"mmol/L","stresc":"3.62","stresn":"3.62","stresu":"mmol/L","stnrlo":"3.9","stnrhi":"5.6","nrind":"LOW","fast":null,"dtc":"2026-05-10","dy":"805","visit":"WEEK 114 EOT","visitnum":"12.0","epoch":"TREATMENT","spec":null,"method":null},{"seq":"68","testcd":"HGB","test":"Hemoglobin","cat":"HEMATOLOGY","orres":"158.14","orresu":"g/L","stresc":"158.14","stresn":"158.14","stresu":"g/L","stnrlo":"130","stnrhi":"175","nrind":"NORMAL","fast":null,"dtc":"2026-05-10","dy":"805","visit":"WEEK 114 EOT","visitnum":"12.0","epoch":"TREATMENT","spec":null,"method":null},{"seq":"69","testcd":"PLAT","test":"Platelets","cat":"HEMATOLOGY","orres":"325.27","orresu":"10^9/L","stresc":"325.27","stresn":"325.27","stresu":"10^9/L","stnrlo":"150","stnrhi":"400","nrind":"NORMAL","fast":null,"dtc":"2026-05-10","dy":"805","visit":"WEEK 114 EOT","visitnum":"12.0","epoch":"TREATMENT","spec":null,"method":null},{"seq":"70","testcd":"WBC","test":"Leukocytes","cat":"HEMATOLOGY","orres":"5.24","orresu":"10^9/L","stresc":"5.24","stresn":"5.24","stresu":"10^9/L","stnrlo":"4.0","stnrhi":"11.0","nrind":"NORMAL","fast":null,"dtc":"2026-05-10","dy":"805","visit":"WEEK 114 EOT","visitnum":"12.0","epoch":"TREATMENT","spec":null,"method":null},{"seq":"71","testcd":"ALT","test":"Alanine Aminotransferase","cat":"CHEMISTRY","orres":"11.47","orresu":"U/L","stresc":"11.47","stresn":"11.47","stresu":"U/L","stnrlo":"7","stnrhi":"56","nrind":"NORMAL","fast":null,"dtc":"2026-05-27","dy":"822","visit":"SAFETY FU","visitnum":"13.0","epoch":"FOLLOW-UP","spec":null,"method":null},{"seq":"72","testcd":"AST","test":"Aspartate Aminotransferase","cat":"CHEMISTRY","orres":"21.79","orresu":"U/L","stresc":"21.79","stresn":"21.79","stresu":"U/L","stnrlo":"10","stnrhi":"40","nrind":"NORMAL","fast":null,"dtc":"2026-05-27","dy":"822","visit":"SAFETY FU","visitnum":"13.0","epoch":"FOLLOW-UP","spec":null,"method":null},{"seq":"73","testcd":"CREAT","test":"Creatinine","cat":"CHEMISTRY","orres":"109.09","orresu":"umol/L","stresc":"109.09","stresn":"109.09","stresu":"umol/L","stnrlo":"62","stnrhi":"106","nrind":"HIGH","fast":null,"dtc":"2026-05-27","dy":"822","visit":"SAFETY FU","visitnum":"13.0","epoch":"FOLLOW-UP","spec":null,"method":null},{"seq":"74","testcd":"GLUC","test":"Glucose","cat":"CHEMISTRY","orres":"3.68","orresu":"mmol/L","stresc":"3.68","stresn":"3.68","stresu":"mmol/L","stnrlo":"3.9","stnrhi":"5.6","nrind":"LOW","fast":null,"dtc":"2026-05-27","dy":"822","visit":"SAFETY FU","visitnum":"13.0","epoch":"FOLLOW-UP","spec":null,"method":null},{"seq":"75","testcd":"HGB","test":"Hemoglobin","cat":"HEMATOLOGY","orres":"155.81","orresu":"g/L","stresc":"155.81","stresn":"155.81","stresu":"g/L","stnrlo":"130","stnrhi":"175","nrind":"NORMAL","fast":null,"dtc":"2026-05-27","dy":"822","visit":"SAFETY FU","visitnum":"13.0","epoch":"FOLLOW-UP","spec":null,"method":null},{"seq":"76","testcd":"PLAT","test":"Platelets","cat":"HEMATOLOGY","orres":"302.28","orresu":"10^9/L","stresc":"302.28","stresn":"302.28","stresu":"10^9/L","stnrlo":"150","stnrhi":"400","nrind":"NORMAL","fast":null,"dtc":"2026-05-27","dy":"822","visit":"SAFETY FU","visitnum":"13.0","epoch":"FOLLOW-UP","spec":null,"method":null},{"seq":"77","testcd":"WBC","test":"Leukocytes","cat":"HEMATOLOGY","orres":"4.84","orresu":"10^9/L","stresc":"4.84","stresn":"4.84","stresu":"10^9/L","stnrlo":"4.0","stnrhi":"11.0","nrind":"NORMAL","fast":null,"dtc":"2026-05-27","dy":"822","visit":"SAFETY FU","visitnum":"13.0","epoch":"FOLLOW-UP","spec":null,"method":null}]},"section_9_vital_signs":{"summary":{"total_records":64},"trends":{"BMI":[{"visit":"SCREENING","visitnum":"1.0","dtc":"2024-01-06","value":"16.3","unit":"kg/m2"},{"visit":"BASELINE","visitnum":"2.0","dtc":"2024-02-26","value":"16.2","unit":"kg/m2"},{"visit":"WEEK 4","visitnum":"4.0","dtc":"2024-03-28","value":"16.4","unit":"kg/m2"},{"visit":"WEEK 8","visitnum":"5.0","dtc":"2024-04-22","value":"16.1","unit":"kg/m2"},{"visit":"WEEK 36","visitnum":"8.0","dtc":"2024-10-29","value":"16.1","unit":"kg/m2"},{"visit":"WEEK 58","visitnum":"9.0","dtc":"2025-03-31","value":"16.1","unit":"kg/m2"},{"visit":"WEEK 84","visitnum":"10.0","dtc":"2025-10-03","value":"16.1","unit":"kg/m2"},{"visit":"WEEK 114 EOT","visitnum":"12.0","dtc":"2026-05-10","value":"16.0","unit":"kg/m2"}],"DIABP":[{"visit":"SCREENING","visitnum":"1.0","dtc":"2024-01-06","value":"58.3","unit":"mmHg"},{"visit":"BASELINE","visitnum":"2.0","dtc":"2024-02-26","value":"57.3","unit":"mmHg"},{"visit":"WEEK 4","visitnum":"4.0","dtc":"2024-03-28","value":"55.2","unit":"mmHg"},{"visit":"WEEK 8","visitnum":"5.0","dtc":"2024-04-22","value":"57.2","unit":"mmHg"},{"visit":"WEEK 36","visitnum":"8.0","dtc":"2024-10-29","value":"56.0","unit":"mmHg"},{"visit":"WEEK 58","visitnum":"9.0","dtc":"2025-03-31","value":"57.0","unit":"mmHg"},{"visit":"WEEK 84","visitnum":"10.0","dtc":"2025-10-03","value":"55.1","unit":"mmHg"},{"visit":"WEEK 114 EOT","visitnum":"12.0","dtc":"2026-05-10","value":"57.5","unit":"mmHg"}],"HEIGHT":[{"visit":"SCREENING","visitnum":"1.0","dtc":"2024-01-06","value":"157.0","unit":"cm"},{"visit":"BASELINE","visitnum":"2.0","dtc":"2024-02-26","value":"157.6","unit":"cm"},{"visit":"WEEK 4","visitnum":"4.0","dtc":"2024-03-28","value":"156.9","unit":"cm"},{"visit":"WEEK 8","visitnum":"5.0","dtc":"2024-04-22","value":"157.4","unit":"cm"},{"visit":"WEEK 36","visitnum":"8.0","dtc":"2024-10-29","value":"157.8","unit":"cm"},{"visit":"WEEK 58","visitnum":"9.0","dtc":"2025-03-31","value":"157.4","unit":"cm"},{"visit":"WEEK 84","visitnum":"10.0","dtc":"2025-10-03","value":"157.5","unit":"cm"},{"visit":"WEEK 114 EOT","visitnum":"12.0","dtc":"2026-05-10","value":"158.0","unit":"cm"}],"PULSE":[{"visit":"SCREENING","visitnum":"1.0","dtc":"2024-01-06","value":"70.9","unit":"beats/min"},{"visit":"BASELINE","visitnum":"2.0","dtc":"2024-02-26","value":"65.5","unit":"beats/min"},{"visit":"WEEK 4","visitnum":"4.0","dtc":"2024-03-28","value":"60.7","unit":"beats/min"},{"visit":"WEEK 8","visitnum":"5.0","dtc":"2024-04-22","value":"62.7","unit":"beats/min"},{"visit":"WEEK 36","visitnum":"8.0","dtc":"2024-10-29","value":"65.1","unit":"beats/min"},{"visit":"WEEK 58","visitnum":"9.0","dtc":"2025-03-31","value":"68.6","unit":"beats/min"},{"visit":"WEEK 84","visitnum":"10.0","dtc":"2025-10-03","value":"69.3","unit":"beats/min"},{"visit":"WEEK 114 EOT","visitnum":"12.0","dtc":"2026-05-10","value":"66.0","unit":"beats/min"}],"RESP":[{"visit":"SCREENING","visitnum":"1.0","dtc":"2024-01-06","value":"21.6","unit":"breaths/min"},{"visit":"BASELINE","visitnum":"2.0","dtc":"2024-02-26","value":"20.6","unit":"breaths/min"},{"visit":"WEEK 4","visitnum":"4.0","dtc":"2024-03-28","value":"20.3","unit":"breaths/min"},{"visit":"WEEK 8","visitnum":"5.0","dtc":"2024-04-22","value":"19.3","unit":"breaths/min"},{"visit":"WEEK 36","visitnum":"8.0","dtc":"2024-10-29","value":"21.0","unit":"breaths/min"},{"visit":"WEEK 58","visitnum":"9.0","dtc":"2025-03-31","value":"20.6","unit":"breaths/min"},{"visit":"WEEK 84","visitnum":"10.0","dtc":"2025-10-03","value":"20.2","unit":"breaths/min"},{"visit":"WEEK 114 EOT","visitnum":"12.0","dtc":"2026-05-10","value":"20.4","unit":"breaths/min"}],"SYSBP":[{"visit":"SCREENING","visitnum":"1.0","dtc":"2024-01-06","value":"95.3","unit":"mmHg"},{"visit":"BASELINE","visitnum":"2.0","dtc":"2024-02-26","value":"94.2","unit":"mmHg"},{"visit":"WEEK 4","visitnum":"4.0","dtc":"2024-03-28","value":"91.6","unit":"mmHg"},{"visit":"WEEK 36","visitnum":"8.0","dtc":"2024-10-29","value":"90.1","unit":"mmHg"},{"visit":"WEEK 58","visitnum":"9.0","dtc":"2025-03-31","value":"93.1","unit":"mmHg"},{"visit":"WEEK 84","visitnum":"10.0","dtc":"2025-10-03","value":"93.0","unit":"mmHg"},{"visit":"WEEK 114 EOT","visitnum":"12.0","dtc":"2026-05-10","value":"93.9","unit":"mmHg"}],"TEMP":[{"visit":"SCREENING","visitnum":"1.0","dtc":"2024-01-06","value":"36.8","unit":"C"},{"visit":"BASELINE","visitnum":"2.0","dtc":"2024-02-26","value":"36.6","unit":"C"},{"visit":"WEEK 4","visitnum":"4.0","dtc":"2024-03-28","value":"36.7","unit":"C"},{"visit":"WEEK 8","visitnum":"5.0","dtc":"2024-04-22","value":"36.6","unit":"C"},{"visit":"WEEK 36","visitnum":"8.0","dtc":"2024-10-29","value":"36.6","unit":"C"},{"visit":"WEEK 58","visitnum":"9.0","dtc":"2025-03-31","value":"36.6","unit":"C"},{"visit":"WEEK 84","visitnum":"10.0","dtc":"2025-10-03","value":"36.7","unit":"C"},{"visit":"WEEK 114 EOT","visitnum":"12.0","dtc":"2026-05-10","value":"36.7","unit":"C"}],"WEIGHT":[{"visit":"SCREENING","visitnum":"1.0","dtc":"2024-01-06","value":"40.2","unit":"kg"},{"visit":"BASELINE","visitnum":"2.0","dtc":"2024-02-26","value":"40.3","unit":"kg"},{"visit":"WEEK 4","visitnum":"4.0","dtc":"2024-03-28","value":"40.3","unit":"kg"},{"visit":"WEEK 8","visitnum":"5.0","dtc":"2024-04-22","value":"40.0","unit":"kg"},{"visit":"WEEK 36","visitnum":"8.0","dtc":"2024-10-29","value":"40.0","unit":"kg"},{"visit":"WEEK 58","visitnum":"9.0","dtc":"2025-03-31","value":"40.0","unit":"kg"},{"visit":"WEEK 84","visitnum":"10.0","dtc":"2025-10-03","value":"40.0","unit":"kg"},{"visit":"WEEK 114 EOT","visitnum":"12.0","dtc":"2026-05-10","value":"40.0","unit":"kg"}]},"results":[{"seq":"1","testcd":"BMI","test":"BMI","cat":null,"orres":null,"orresu":null,"stresc":"16.3","stresn":"16.3","stresu":"kg/m2","stnrlo":null,"stnrhi":null,"nrind":null,"pos":null,"loc":null,"dtc":"2024-01-06","dy":"-51","visit":"SCREENING","visitnum":"1.0","epoch":"SCREENING"},{"seq":"2","testcd":"DIABP","test":"Diastolic Blood Pressure","cat":null,"orres":"58.3","orresu":"mmHg","stresc":"58.3","stresn":"58.3","stresu":"mmHg","stnrlo":null,"stnrhi":null,"nrind":null,"pos":null,"loc":null,"dtc":"2024-01-06","dy":"-51","visit":"SCREENING","visitnum":"1.0","epoch":"SCREENING"},{"seq":"3","testcd":"HEIGHT","test":"Height","cat":null,"orres":"157.0","orresu":"cm","stresc":"157.0","stresn":"157.0","stresu":"cm","stnrlo":null,"stnrhi":null,"nrind":null,"pos":null,"loc":null,"dtc":"2024-01-06","dy":"-51","visit":"SCREENING","visitnum":"1.0","epoch":"SCREENING"},{"seq":"4","testcd":"PULSE","test":"Pulse Rate","cat":null,"orres":"70.9","orresu":"beats/min","stresc":"70.9","stresn":"70.9","stresu":"beats/min","stnrlo":null,"stnrhi":null,"nrind":null,"pos":null,"loc":null,"dtc":"2024-01-06","dy":"-51","visit":"SCREENING","visitnum":"1.0","epoch":"SCREENING"},{"seq":"5","testcd":"RESP","test":"Respiratory Rate","cat":null,"orres":"21.6","orresu":"breaths/min","stresc":"21.6","stresn":"21.6","stresu":"breaths/min","stnrlo":null,"stnrhi":null,"nrind":null,"pos":null,"loc":null,"dtc":"2024-01-06","dy":"-51","visit":"SCREENING","visitnum":"1.0","epoch":"SCREENING"},{"seq":"6","testcd":"SYSBP","test":"Systolic Blood Pressure","cat":null,"orres":"95.3","orresu":"mmHg","stresc":"95.3","stresn":"95.3","stresu":"mmHg","stnrlo":null,"stnrhi":null,"nrind":null,"pos":null,"loc":null,"dtc":"2024-01-06","dy":"-51","visit":"SCREENING","visitnum":"1.0","epoch":"SCREENING"},{"seq":"7","testcd":"TEMP","test":"Temperature","cat":null,"orres":"36.8","orresu":"C","stresc":"36.8","stresn":"36.8","stresu":"C","stnrlo":null,"stnrhi":null,"nrind":null,"pos":null,"loc":null,"dtc":"2024-01-06","dy":"-51","visit":"SCREENING","visitnum":"1.0","epoch":"SCREENING"},{"seq":"8","testcd":"WEIGHT","test":"Weight","cat":null,"orres":"40.2","orresu":"kg","stresc":"40.2","stresn":"40.2","stresu":"kg","stnrlo":null,"stnrhi":null,"nrind":null,"pos":null,"loc":null,"dtc":"2024-01-06","dy":"-51","visit":"SCREENING","visitnum":"1.0","epoch":"SCREENING"},{"seq":"9","testcd":"BMI","test":"BMI","cat":null,"orres":null,"orresu":null,"stresc":"16.2","stresn":"16.2","stresu":"kg/m2","stnrlo":null,"stnrhi":null,"nrind":null,"pos":null,"loc":null,"dtc":"2024-02-26","dy":"1","visit":"BASELINE","visitnum":"2.0","epoch":"TREATMENT"},{"seq":"10","testcd":"DIABP","test":"Diastolic Blood Pressure","cat":null,"orres":"57.3","orresu":"mmHg","stresc":"57.3","stresn":"57.3","stresu":"mmHg","stnrlo":null,"stnrhi":null,"nrind":null,"pos":null,"loc":null,"dtc":"2024-02-26","dy":"1","visit":"BASELINE","visitnum":"2.0","epoch":"TREATMENT"},{"seq":"11","testcd":"HEIGHT","test":"Height","cat":null,"orres":"157.6","orresu":"cm","stresc":"157.6","stresn":"157.6","stresu":"cm","stnrlo":null,"stnrhi":null,"nrind":null,"pos":null,"loc":null,"dtc":"2024-02-26","dy":"1","visit":"BASELINE","visitnum":"2.0","epoch":"TREATMENT"},{"seq":"12","testcd":"PULSE","test":"Pulse Rate","cat":null,"orres":"65.5","orresu":"beats/min","stresc":"65.5","stresn":"65.5","stresu":"beats/min","stnrlo":null,"stnrhi":null,"nrind":null,"pos":null,"loc":null,"dtc":"2024-02-26","dy":"1","visit":"BASELINE","visitnum":"2.0","epoch":"TREATMENT"},{"seq":"13","testcd":"RESP","test":"Respiratory Rate","cat":null,"orres":"20.6","orresu":"breaths/min","stresc":"20.6","stresn":"20.6","stresu":"breaths/min","stnrlo":null,"stnrhi":null,"nrind":null,"pos":null,"loc":null,"dtc":"2024-02-26","dy":"1","visit":"BASELINE","visitnum":"2.0","epoch":"TREATMENT"},{"seq":"14","testcd":"SYSBP","test":"Systolic Blood Pressure","cat":null,"orres":"94.2","orresu":"mmHg","stresc":"94.2","stresn":"94.2","stresu":"mmHg","stnrlo":null,"stnrhi":null,"nrind":null,"pos":null,"loc":null,"dtc":"2024-02-26","dy":"1","visit":"BASELINE","visitnum":"2.0","epoch":"TREATMENT"},{"seq":"15","testcd":"TEMP","test":"Temperature","cat":null,"orres":"36.6","orresu":"C","stresc":"36.6","stresn":"36.6","stresu":"C","stnrlo":null,"stnrhi":null,"nrind":null,"pos":null,"loc":null,"dtc":"2024-02-26","dy":"1","visit":"BASELINE","visitnum":"2.0","epoch":"TREATMENT"},{"seq":"16","testcd":"WEIGHT","test":"Weight","cat":null,"orres":"40.3","orresu":"kg","stresc":"40.3","stresn":"40.3","stresu":"kg","stnrlo":null,"stnrhi":null,"nrind":null,"pos":null,"loc":null,"dtc":"2024-02-26","dy":"1","visit":"BASELINE","visitnum":"2.0","epoch":"TREATMENT"},{"seq":"17","testcd":"BMI","test":"BMI","cat":null,"orres":null,"orresu":null,"stresc":"16.4","stresn":"16.4","stresu":"kg/m2","stnrlo":null,"stnrhi":null,"nrind":null,"pos":null,"loc":null,"dtc":"2024-03-28","dy":"32","visit":"WEEK 4","visitnum":"4.0","epoch":"TREATMENT"},{"seq":"18","testcd":"DIABP","test":"Diastolic Blood Pressure","cat":null,"orres":"55.2","orresu":"mmHg","stresc":"55.2","stresn":"55.2","stresu":"mmHg","stnrlo":null,"stnrhi":null,"nrind":null,"pos":null,"loc":null,"dtc":"2024-03-28","dy":"32","visit":"WEEK 4","visitnum":"4.0","epoch":"TREATMENT"},{"seq":"19","testcd":"HEIGHT","test":"Height","cat":null,"orres":"156.9","orresu":"cm","stresc":"156.9","stresn":"156.9","stresu":"cm","stnrlo":null,"stnrhi":null,"nrind":null,"pos":null,"loc":null,"dtc":"2024-03-28","dy":"32","visit":"WEEK 4","visitnum":"4.0","epoch":"TREATMENT"},{"seq":"20","testcd":"PULSE","test":"Pulse Rate","cat":null,"orres":"60.7","orresu":"beats/min","stresc":"60.7","stresn":"60.7","stresu":"beats/min","stnrlo":null,"stnrhi":null,"nrind":null,"pos":null,"loc":null,"dtc":"2024-03-28","dy":"32","visit":"WEEK 4","visitnum":"4.0","epoch":"TREATMENT"},{"seq":"21","testcd":"RESP","test":"Respiratory Rate","cat":null,"orres":"20.3","orresu":"breaths/min","stresc":"20.3","stresn":"20.3","stresu":"breaths/min","stnrlo":null,"stnrhi":null,"nrind":null,"pos":null,"loc":null,"dtc":"2024-03-28","dy":"32","visit":"WEEK 4","visitnum":"4.0","epoch":"TREATMENT"},{"seq":"22","testcd":"SYSBP","test":"Systolic Blood Pressure","cat":null,"orres":"91.6","orresu":"mmHg","stresc":"91.6","stresn":"91.6","stresu":"mmHg","stnrlo":null,"stnrhi":null,"nrind":null,"pos":null,"loc":null,"dtc":"2024-03-28","dy":"32","visit":"WEEK 4","visitnum":"4.0","epoch":"TREATMENT"},{"seq":"23","testcd":"TEMP","test":"Temperature","cat":null,"orres":"36.7","orresu":"C","stresc":"36.7","stresn":"36.7","stresu":"C","stnrlo":null,"stnrhi":null,"nrind":null,"pos":null,"loc":null,"dtc":"2024-03-28","dy":"32","visit":"WEEK 4","visitnum":"4.0","epoch":"TREATMENT"},{"seq":"24","testcd":"WEIGHT","test":"Weight","cat":null,"orres":"40.3","orresu":"kg","stresc":"40.3","stresn":"40.3","stresu":"kg","stnrlo":null,"stnrhi":null,"nrind":null,"pos":null,"loc":null,"dtc":"2024-03-28","dy":"32","visit":"WEEK 4","visitnum":"4.0","epoch":"TREATMENT"},{"seq":"25","testcd":"BMI","test":"BMI","cat":null,"orres":null,"orresu":null,"stresc":"16.1","stresn":"16.1","stresu":"kg/m2","stnrlo":null,"stnrhi":null,"nrind":null,"pos":null,"loc":null,"dtc":"2024-04-22","dy":"57","visit":"WEEK 8","visitnum":"5.0","epoch":"TREATMENT"},{"seq":"26","testcd":"DIABP","test":"Diastolic Blood Pressure","cat":null,"orres":"57.2","orresu":"mmHg","stresc":"57.2","stresn":"57.2","stresu":"mmHg","stnrlo":null,"stnrhi":null,"nrind":null,"pos":null,"loc":null,"dtc":"2024-04-22","dy":"57","visit":"WEEK 8","visitnum":"5.0","epoch":"TREATMENT"},{"seq":"27","testcd":"HEIGHT","test":"Height","cat":null,"orres":"157.4","orresu":"cm","stresc":"157.4","stresn":"157.4","stresu":"cm","stnrlo":null,"stnrhi":null,"nrind":null,"pos":null,"loc":null,"dtc":"2024-04-22","dy":"57","visit":"WEEK 8","visitnum":"5.0","epoch":"TREATMENT"},{"seq":"28","testcd":"PULSE","test":"Pulse Rate","cat":null,"orres":"62.7","orresu":"beats/min","stresc":"62.7","stresn":"62.7","stresu":"beats/min","stnrlo":null,"stnrhi":null,"nrind":null,"pos":null,"loc":null,"dtc":"2024-04-22","dy":"57","visit":"WEEK 8","visitnum":"5.0","epoch":"TREATMENT"},{"seq":"29","testcd":"RESP","test":"Respiratory Rate","cat":null,"orres":"19.3","orresu":"breaths/min","stresc":"19.3","stresn":"19.3","stresu":"breaths/min","stnrlo":null,"stnrhi":null,"nrind":null,"pos":null,"loc":null,"dtc":"2024-04-22","dy":"57","visit":"WEEK 8","visitnum":"5.0","epoch":"TREATMENT"},{"seq":"30","testcd":"SYSBP","test":"Systolic Blood Pressure","cat":null,"orres":null,"orresu":null,"stresc":null,"stresn":null,"stresu":null,"stnrlo":null,"stnrhi":null,"nrind":null,"pos":null,"loc":null,"dtc":"2024-04-22","dy":"57","visit":"WEEK 8","visitnum":"5.0","epoch":"TREATMENT"},{"seq":"31","testcd":"TEMP","test":"Temperature","cat":null,"orres":"36.6","orresu":"C","stresc":"36.6","stresn":"36.6","stresu":"C","stnrlo":null,"stnrhi":null,"nrind":null,"pos":null,"loc":null,"dtc":"2024-04-22","dy":"57","visit":"WEEK 8","visitnum":"5.0","epoch":"TREATMENT"},{"seq":"32","testcd":"WEIGHT","test":"Weight","cat":null,"orres":"40.0","orresu":"kg","stresc":"40.0","stresn":"40.0","stresu":"kg","stnrlo":null,"stnrhi":null,"nrind":null,"pos":null,"loc":null,"dtc":"2024-04-22","dy":"57","visit":"WEEK 8","visitnum":"5.0","epoch":"TREATMENT"},{"seq":"33","testcd":"BMI","test":"BMI","cat":null,"orres":null,"orresu":null,"stresc":"16.1","stresn":"16.1","stresu":"kg/m2","stnrlo":null,"stnrhi":null,"nrind":null,"pos":null,"loc":null,"dtc":"2024-10-29","dy":"247","visit":"WEEK 36","visitnum":"8.0","epoch":"TREATMENT"},{"seq":"34","testcd":"DIABP","test":"Diastolic Blood Pressure","cat":null,"orres":"56.0","orresu":"mmHg","stresc":"56.0","stresn":"56.0","stresu":"mmHg","stnrlo":null,"stnrhi":null,"nrind":null,"pos":null,"loc":null,"dtc":"2024-10-29","dy":"247","visit":"WEEK 36","visitnum":"8.0","epoch":"TREATMENT"},{"seq":"35","testcd":"HEIGHT","test":"Height","cat":null,"orres":"157.8","orresu":"cm","stresc":"157.8","stresn":"157.8","stresu":"cm","stnrlo":null,"stnrhi":null,"nrind":null,"pos":null,"loc":null,"dtc":"2024-10-29","dy":"247","visit":"WEEK 36","visitnum":"8.0","epoch":"TREATMENT"},{"seq":"36","testcd":"PULSE","test":"Pulse Rate","cat":null,"orres":"65.1","orresu":"beats/min","stresc":"65.1","stresn":"65.1","stresu":"beats/min","stnrlo":null,"stnrhi":null,"nrind":null,"pos":null,"loc":null,"dtc":"2024-10-29","dy":"247","visit":"WEEK 36","visitnum":"8.0","epoch":"TREATMENT"},{"seq":"37","testcd":"RESP","test":"Respiratory Rate","cat":null,"orres":"21.0","orresu":"breaths/min","stresc":"21.0","stresn":"21.0","stresu":"breaths/min","stnrlo":null,"stnrhi":null,"nrind":null,"pos":null,"loc":null,"dtc":"2024-10-29","dy":"247","visit":"WEEK 36","visitnum":"8.0","epoch":"TREATMENT"},{"seq":"38","testcd":"SYSBP","test":"Systolic Blood Pressure","cat":null,"orres":"90.1","orresu":"mmHg","stresc":"90.1","stresn":"90.1","stresu":"mmHg","stnrlo":null,"stnrhi":null,"nrind":null,"pos":null,"loc":null,"dtc":"2024-10-29","dy":"247","visit":"WEEK 36","visitnum":"8.0","epoch":"TREATMENT"},{"seq":"39","testcd":"TEMP","test":"Temperature","cat":null,"orres":"36.6","orresu":"C","stresc":"36.6","stresn":"36.6","stresu":"C","stnrlo":null,"stnrhi":null,"nrind":null,"pos":null,"loc":null,"dtc":"2024-10-29","dy":"247","visit":"WEEK 36","visitnum":"8.0","epoch":"TREATMENT"},{"seq":"40","testcd":"WEIGHT","test":"Weight","cat":null,"orres":"40.0","orresu":"kg","stresc":"40.0","stresn":"40.0","stresu":"kg","stnrlo":null,"stnrhi":null,"nrind":null,"pos":null,"loc":null,"dtc":"2024-10-29","dy":"247","visit":"WEEK 36","visitnum":"8.0","epoch":"TREATMENT"},{"seq":"41","testcd":"BMI","test":"BMI","cat":null,"orres":null,"orresu":null,"stresc":"16.1","stresn":"16.1","stresu":"kg/m2","stnrlo":null,"stnrhi":null,"nrind":null,"pos":null,"loc":null,"dtc":"2025-03-31","dy":"400","visit":"WEEK 58","visitnum":"9.0","epoch":"TREATMENT"},{"seq":"42","testcd":"DIABP","test":"Diastolic Blood Pressure","cat":null,"orres":"57.0","orresu":"mmHg","stresc":"57.0","stresn":"57.0","stresu":"mmHg","stnrlo":null,"stnrhi":null,"nrind":null,"pos":null,"loc":null,"dtc":"2025-03-31","dy":"400","visit":"WEEK 58","visitnum":"9.0","epoch":"TREATMENT"},{"seq":"43","testcd":"HEIGHT","test":"Height","cat":null,"orres":"157.4","orresu":"cm","stresc":"157.4","stresn":"157.4","stresu":"cm","stnrlo":null,"stnrhi":null,"nrind":null,"pos":null,"loc":null,"dtc":"2025-03-31","dy":"400","visit":"WEEK 58","visitnum":"9.0","epoch":"TREATMENT"},{"seq":"44","testcd":"PULSE","test":"Pulse Rate","cat":null,"orres":"68.6","orresu":"beats/min","stresc":"68.6","stresn":"68.6","stresu":"beats/min","stnrlo":null,"stnrhi":null,"nrind":null,"pos":null,"loc":null,"dtc":"2025-03-31","dy":"400","visit":"WEEK 58","visitnum":"9.0","epoch":"TREATMENT"},{"seq":"45","testcd":"RESP","test":"Respiratory Rate","cat":null,"orres":"20.6","orresu":"breaths/min","stresc":"20.6","stresn":"20.6","stresu":"breaths/min","stnrlo":null,"stnrhi":null,"nrind":null,"pos":null,"loc":null,"dtc":"2025-03-31","dy":"400","visit":"WEEK 58","visitnum":"9.0","epoch":"TREATMENT"},{"seq":"46","testcd":"SYSBP","test":"Systolic Blood Pressure","cat":null,"orres":"93.1","orresu":"mmHg","stresc":"93.1","stresn":"93.1","stresu":"mmHg","stnrlo":null,"stnrhi":null,"nrind":null,"pos":null,"loc":null,"dtc":"2025-03-31","dy":"400","visit":"WEEK 58","visitnum":"9.0","epoch":"TREATMENT"},{"seq":"47","testcd":"TEMP","test":"Temperature","cat":null,"orres":"36.6","orresu":"C","stresc":"36.6","stresn":"36.6","stresu":"C","stnrlo":null,"stnrhi":null,"nrind":null,"pos":null,"loc":null,"dtc":"2025-03-31","dy":"400","visit":"WEEK 58","visitnum":"9.0","epoch":"TREATMENT"},{"seq":"48","testcd":"WEIGHT","test":"Weight","cat":null,"orres":"40.0","orresu":"kg","stresc":"40.0","stresn":"40.0","stresu":"kg","stnrlo":null,"stnrhi":null,"nrind":null,"pos":null,"loc":null,"dtc":"2025-03-31","dy":"400","visit":"WEEK 58","visitnum":"9.0","epoch":"TREATMENT"},{"seq":"49","testcd":"BMI","test":"BMI","cat":null,"orres":null,"orresu":null,"stresc":"16.1","stresn":"16.1","stresu":"kg/m2","stnrlo":null,"stnrhi":null,"nrind":null,"pos":null,"loc":null,"dtc":"2025-10-03","dy":"586","visit":"WEEK 84","visitnum":"10.0","epoch":"TREATMENT"},{"seq":"50","testcd":"DIABP","test":"Diastolic Blood Pressure","cat":null,"orres":"55.1","orresu":"mmHg","stresc":"55.1","stresn":"55.1","stresu":"mmHg","stnrlo":null,"stnrhi":null,"nrind":null,"pos":null,"loc":null,"dtc":"2025-10-03","dy":"586","visit":"WEEK 84","visitnum":"10.0","epoch":"TREATMENT"},{"seq":"51","testcd":"HEIGHT","test":"Height","cat":null,"orres":"157.5","orresu":"cm","stresc":"157.5","stresn":"157.5","stresu":"cm","stnrlo":null,"stnrhi":null,"nrind":null,"pos":null,"loc":null,"dtc":"2025-10-03","dy":"586","visit":"WEEK 84","visitnum":"10.0","epoch":"TREATMENT"},{"seq":"52","testcd":"PULSE","test":"Pulse Rate","cat":null,"orres":"69.3","orresu":"beats/min","stresc":"69.3","stresn":"69.3","stresu":"beats/min","stnrlo":null,"stnrhi":null,"nrind":null,"pos":null,"loc":null,"dtc":"2025-10-03","dy":"586","visit":"WEEK 84","visitnum":"10.0","epoch":"TREATMENT"},{"seq":"53","testcd":"RESP","test":"Respiratory Rate","cat":null,"orres":"20.2","orresu":"breaths/min","stresc":"20.2","stresn":"20.2","stresu":"breaths/min","stnrlo":null,"stnrhi":null,"nrind":null,"pos":null,"loc":null,"dtc":"2025-10-03","dy":"586","visit":"WEEK 84","visitnum":"10.0","epoch":"TREATMENT"},{"seq":"54","testcd":"SYSBP","test":"Systolic Blood Pressure","cat":null,"orres":"93.0","orresu":"mmHg","stresc":"93.0","stresn":"93.0","stresu":"mmHg","stnrlo":null,"stnrhi":null,"nrind":null,"pos":null,"loc":null,"dtc":"2025-10-03","dy":"586","visit":"WEEK 84","visitnum":"10.0","epoch":"TREATMENT"},{"seq":"55","testcd":"TEMP","test":"Temperature","cat":null,"orres":"36.7","orresu":"C","stresc":"36.7","stresn":"36.7","stresu":"C","stnrlo":null,"stnrhi":null,"nrind":null,"pos":null,"loc":null,"dtc":"2025-10-03","dy":"586","visit":"WEEK 84","visitnum":"10.0","epoch":"TREATMENT"},{"seq":"56","testcd":"WEIGHT","test":"Weight","cat":null,"orres":"40.0","orresu":"kg","stresc":"40.0","stresn":"40.0","stresu":"kg","stnrlo":null,"stnrhi":null,"nrind":null,"pos":null,"loc":null,"dtc":"2025-10-03","dy":"586","visit":"WEEK 84","visitnum":"10.0","epoch":"TREATMENT"},{"seq":"57","testcd":"BMI","test":"BMI","cat":null,"orres":null,"orresu":null,"stresc":"16.0","stresn":"16.0","stresu":"kg/m2","stnrlo":null,"stnrhi":null,"nrind":null,"pos":null,"loc":null,"dtc":"2026-05-10","dy":"805","visit":"WEEK 114 EOT","visitnum":"12.0","epoch":"TREATMENT"},{"seq":"58","testcd":"DIABP","test":"Diastolic Blood Pressure","cat":null,"orres":"57.5","orresu":"mmHg","stresc":"57.5","stresn":"57.5","stresu":"mmHg","stnrlo":null,"stnrhi":null,"nrind":null,"pos":null,"loc":null,"dtc":"2026-05-10","dy":"805","visit":"WEEK 114 EOT","visitnum":"12.0","epoch":"TREATMENT"},{"seq":"59","testcd":"HEIGHT","test":"Height","cat":null,"orres":"158.0","orresu":"cm","stresc":"158.0","stresn":"158.0","stresu":"cm","stnrlo":null,"stnrhi":null,"nrind":null,"pos":null,"loc":null,"dtc":"2026-05-10","dy":"805","visit":"WEEK 114 EOT","visitnum":"12.0","epoch":"TREATMENT"},{"seq":"60","testcd":"PULSE","test":"Pulse Rate","cat":null,"orres":"66.0","orresu":"beats/min","stresc":"66.0","stresn":"66.0","stresu":"beats/min","stnrlo":null,"stnrhi":null,"nrind":null,"pos":null,"loc":null,"dtc":"2026-05-10","dy":"805","visit":"WEEK 114 EOT","visitnum":"12.0","epoch":"TREATMENT"},{"seq":"61","testcd":"RESP","test":"Respiratory Rate","cat":null,"orres":"20.4","orresu":"breaths/min","stresc":"20.4","stresn":"20.4","stresu":"breaths/min","stnrlo":null,"stnrhi":null,"nrind":null,"pos":null,"loc":null,"dtc":"2026-05-10","dy":"805","visit":"WEEK 114 EOT","visitnum":"12.0","epoch":"TREATMENT"},{"seq":"62","testcd":"SYSBP","test":"Systolic Blood Pressure","cat":null,"orres":"93.9","orresu":"mmHg","stresc":"93.9","stresn":"93.9","stresu":"mmHg","stnrlo":null,"stnrhi":null,"nrind":null,"pos":null,"loc":null,"dtc":"2026-05-10","dy":"805","visit":"WEEK 114 EOT","visitnum":"12.0","epoch":"TREATMENT"},{"seq":"63","testcd":"TEMP","test":"Temperature","cat":null,"orres":"36.7","orresu":"C","stresc":"36.7","stresn":"36.7","stresu":"C","stnrlo":null,"stnrhi":null,"nrind":null,"pos":null,"loc":null,"dtc":"2026-05-10","dy":"805","visit":"WEEK 114 EOT","visitnum":"12.0","epoch":"TREATMENT"},{"seq":"64","testcd":"WEIGHT","test":"Weight","cat":null,"orres":"40.0","orresu":"kg","stresc":"40.0","stresn":"40.0","stresu":"kg","stnrlo":null,"stnrhi":null,"nrind":null,"pos":null,"loc":null,"dtc":"2026-05-10","dy":"805","visit":"WEEK 114 EOT","visitnum":"12.0","epoch":"TREATMENT"}]},"section_10_questionnaires_and_scores":{"questionnaires":[],"findings_about":[]},"section_11_protocol_deviations":{"deviations":[{"seq":"1","term":"Missed IRBESARTAN dose on 2024-03-18","decod":"MISSED DOSE","cat":"MINOR","scat":"DOSING","start_dtc":"2024-03-18","end_dtc":null,"visit":null},{"seq":"2","term":"Vital signs assessment not performed at WEEK 8","decod":"MISSED ASSESSMENT","cat":"MINOR","scat":"ASSESSMENT","start_dtc":"2024-04-22","end_dtc":null,"visit":null},{"seq":"3","term":"Missed IRBESARTAN dose on 2024-05-04","decod":"MISSED DOSE","cat":"MINOR","scat":"DOSING","start_dtc":"2024-05-04","end_dtc":null,"visit":null},{"seq":"4","term":"Visit WEEK 36 occurred 6 days early (Day 247 vs planned Day 253)","decod":"VISIT OCCURRED OUTSIDE VISIT WINDOW","cat":"MINOR","scat":"VISIT WINDOW","start_dtc":"2024-10-29","end_dtc":null,"visit":null},{"seq":"5","term":"Missed IRBESARTAN dose on 2024-10-31","decod":"MISSED DOSE","cat":"MINOR","scat":"DOSING","start_dtc":"2024-10-31","end_dtc":null,"visit":null},{"seq":"6","term":"Missed IRBESARTAN dose on 2024-12-22","decod":"MISSED DOSE","cat":"MINOR","scat":"DOSING","start_dtc":"2024-12-22","end_dtc":null,"visit":null},{"seq":"7","term":"Dose modified from 300.0 to 150.0 mg","decod":"DOSE MODIFICATION","cat":"MINOR","scat":"DOSING","start_dtc":"2024-12-23","end_dtc":null,"visit":null},{"seq":"8","term":"Missed IRBESARTAN dose on 2024-12-29","decod":"MISSED DOSE","cat":"MINOR","scat":"DOSING","start_dtc":"2024-12-29","end_dtc":null,"visit":null},{"seq":"9","term":"Missed IRBESARTAN dose on 2025-02-08","decod":"MISSED DOSE","cat":"MINOR","scat":"DOSING","start_dtc":"2025-02-08","end_dtc":null,"visit":null},{"seq":"10","term":"Missed IRBESARTAN dose on 2025-03-01","decod":"MISSED DOSE","cat":"MINOR","scat":"DOSING","start_dtc":"2025-03-01","end_dtc":null,"visit":null},{"seq":"11","term":"Visit WEEK 58 occurred 7 days early (Day 400 vs planned Day 407)","decod":"VISIT OCCURRED OUTSIDE VISIT WINDOW","cat":"MINOR","scat":"VISIT WINDOW","start_dtc":"2025-03-31","end_dtc":null,"visit":null},{"seq":"12","term":"Missed IRBESARTAN dose on 2025-07-19","decod":"MISSED DOSE","cat":"MINOR","scat":"DOSING","start_dtc":"2025-07-19","end_dtc":null,"visit":null},{"seq":"13","term":"Missed IRBESARTAN dose on 2025-08-06","decod":"MISSED DOSE","cat":"MINOR","scat":"DOSING","start_dtc":"2025-08-06","end_dtc":null,"visit":null},{"seq":"14","term":"Missed IRBESARTAN dose on 2025-09-03","decod":"MISSED DOSE","cat":"MINOR","scat":"DOSING","start_dtc":"2025-09-03","end_dtc":null,"visit":null},{"seq":"15","term":"Visit WEEK 84 occurred 3 days early (Day 586 vs planned Day 589)","decod":"VISIT OCCURRED OUTSIDE VISIT WINDOW","cat":"MINOR","scat":"VISIT WINDOW","start_dtc":"2025-10-03","end_dtc":null,"visit":null},{"seq":"16","term":"Missed IRBESARTAN dose on 2025-12-19","decod":"MISSED DOSE","cat":"MINOR","scat":"DOSING","start_dtc":"2025-12-19","end_dtc":null,"visit":null},{"seq":"17","term":"Missed IRBESARTAN dose on 2026-01-22","decod":"MISSED DOSE","cat":"MINOR","scat":"DOSING","start_dtc":"2026-01-22","end_dtc":null,"visit":null},{"seq":"18","term":"Missed IRBESARTAN dose on 2026-02-04","decod":"MISSED DOSE","cat":"MINOR","scat":"DOSING","start_dtc":"2026-02-04","end_dtc":null,"visit":null}],"total":18},"section_12_disposition":{"completion_status":"COMPLETED","disposition_records":[{"seq":"1","term":"INFORMED CONSENT OBTAINED","decod":"INFORMED CONSENT OBTAINED","cat":"PROTOCOL MILESTONE","scat":null,"dtc":"2024-02-17","dy":null,"visit":null,"epoch":"SCREENING"},{"seq":"2","term":"RANDOMIZED","decod":"RANDOMIZED","cat":"PROTOCOL MILESTONE","scat":null,"dtc":"2024-02-26","dy":null,"visit":null,"epoch":"TREATMENT"},{"seq":"3","term":"COMPLETED","decod":"COMPLETED","cat":"DISPOSITION EVENT","scat":null,"dtc":"2026-07-12","dy":null,"visit":null,"epoch":"FOLLOW-UP"}],"death":null},"section_13_hospitalizations":{"items":[{"seq":"1","term":"Nausea","decod":"Nausea","cat":"HOSPITALIZATION","start_dtc":"2024-08-20","end_dtc":"2024-09-02","epoch":"TREATMENT"}],"total":1},"section_14_substance_us