{"subject_id":"021IGAN17001-CHN_SITE02-0002","study_id":"021IGAN17001","generated_at":"2026-07-07T05:55:05.591960+00:00","sdtmig_version":"3.4","flags":{"has_serious_ae":true,"has_fatal_ae":false,"has_protocol_deviation":true,"n_protocol_deviations":58,"n_adverse_events":26,"n_concomitant_meds":6,"max_ae_severity":"SEVERE","screen_failure":false,"discontinued_early":false,"discontinuation_reason":null,"death":false,"exposure_days":557},"timeline":[{"dtc":"2024-01-05","dy":"-52","event":"VISIT: SCREENING","domain":"SV","category":"visit"},{"dtc":"2024-02-08","dy":"-18","event":"INFORMED CONSENT OBTAINED","domain":"DS","category":"milestone"},{"dtc":"2024-02-26","dy":"1","event":"RANDOMIZED","domain":"DS","category":"milestone"},{"dtc":"2024-02-26","dy":"1","event":"FIRST DOSE: IRBESARTAN","domain":"EX","category":"exposure"},{"dtc":"2024-02-26","dy":"1","event":"VISIT: BASELINE","domain":"SV","category":"visit"},{"dtc":"2024-03-14","dy":"18","event":"VISIT: WEEK 2","domain":"SV","category":"visit"},{"dtc":"2024-03-16","dy":"20","event":"AE: Headache (SEVERE) [SERIOUS]","domain":"AE","category":"adverse_event"},{"dtc":"2024-03-16","dy":"20","event":"CM START: IBUPROFEN","domain":"CM","category":"concomitant_med"},{"dtc":"2024-03-27","dy":"31","event":"VISIT: WEEK 4","domain":"SV","category":"visit"},{"dtc":"2024-03-28","dy":"32","event":"AE: Headache (MILD)","domain":"AE","category":"adverse_event"},{"dtc":"2024-03-29","dy":"33","event":"AE: Oedema peripheral (MODERATE)","domain":"AE","category":"adverse_event"},{"dtc":"2024-04-01","dy":"36","event":"DEVIATION: MISSED DOSE","domain":"DV","category":"deviation"},{"dtc":"2024-04-05","dy":"40","event":"AE: Dizziness (MILD)","domain":"AE","category":"adverse_event"},{"dtc":"2024-04-08","dy":"43","event":"DEVIATION: MISSED DOSE","domain":"DV","category":"deviation"},{"dtc":"2024-04-12","dy":"47","event":"DEVIATION: MISSED DOSE","domain":"DV","category":"deviation"},{"dtc":"2024-04-22","dy":"57","event":"DEVIATION: VISIT OCCURRED OUTSIDE VISIT WINDOW","domain":"DV","category":"deviation"},{"dtc":"2024-04-22","dy":"57","event":"VISIT: WEEK 8","domain":"SV","category":"visit"},{"dtc":"2024-04-28","dy":"63","event":"AE: Headache (MILD)","domain":"AE","category":"adverse_event"},{"dtc":"2024-05-18","dy":"83","event":"DEVIATION: MISSED DOSE","domain":"DV","category":"deviation"},{"dtc":"2024-05-20","dy":"85","event":"VISIT: WEEK 12","domain":"SV","category":"visit"},{"dtc":"2024-05-27","dy":"92","event":"DEVIATION: MISSED DOSE","domain":"DV","category":"deviation"},{"dtc":"2024-06-04","dy":"100","event":"DEVIATION: MISSED DOSE","domain":"DV","category":"deviation"},{"dtc":"2024-06-17","dy":"113","event":"DEVIATION: MISSED DOSE","domain":"DV","category":"deviation"},{"dtc":"2024-06-19","dy":"115","event":"AE: Oedema peripheral (MILD)","domain":"AE","category":"adverse_event"},{"dtc":"2024-07-01","dy":"127","event":"DEVIATION: MISSED DOSE","domain":"DV","category":"deviation"},{"dtc":"2024-07-10","dy":"136","event":"DEVIATION: MISSED DOSE","domain":"DV","category":"deviation"},{"dtc":"2024-07-23","dy":"149","event":"DEVIATION: MISSED DOSE","domain":"DV","category":"deviation"},{"dtc":"2024-07-29","dy":"155","event":"DEVIATION: MISSED DOSE","domain":"DV","category":"deviation"},{"dtc":"2024-08-04","dy":"161","event":"AE: Dizziness (MODERATE)","domain":"AE","category":"adverse_event"},{"dtc":"2024-08-10","dy":"167","event":"DEVIATION: VISIT OCCURRED OUTSIDE VISIT WINDOW","domain":"DV","category":"deviation"},{"dtc":"2024-08-10","dy":"167","event":"VISIT: WEEK 24","domain":"SV","category":"visit"},{"dtc":"2024-08-14","dy":"171","event":"DEVIATION: MISSED DOSE","domain":"DV","category":"deviation"},{"dtc":"2024-08-27","dy":"184","event":"DEVIATION: MISSED DOSE","domain":"DV","category":"deviation"},{"dtc":"2024-09-04","dy":"192","event":"DEVIATION: MISSED DOSE","domain":"DV","category":"deviation"},{"dtc":"2024-09-05","dy":"193","event":"DEVIATION: MISSED DOSE","domain":"DV","category":"deviation"},{"dtc":"2024-09-12","dy":"200","event":"DEVIATION: MISSED DOSE","domain":"DV","category":"deviation"},{"dtc":"2024-09-13","dy":"201","event":"AE: Blood creatinine increased (MILD)","domain":"AE","category":"adverse_event"},{"dtc":"2024-09-13","dy":"201","event":"CM START: PARACETAMOL","domain":"CM","category":"concomitant_med"},{"dtc":"2024-09-23","dy":"211","event":"DEVIATION: MISSED DOSE","domain":"DV","category":"deviation"},{"dtc":"2024-09-25","dy":"213","event":"AE: Fatigue (MILD)","domain":"AE","category":"adverse_event"},{"dtc":"2024-09-25","dy":"213","event":"DEVIATION: DOSE MODIFICATION","domain":"DV","category":"deviation"},{"dtc":"2024-09-26","dy":"214","event":"DEVIATION: MISSED DOSE","domain":"DV","category":"deviation"},{"dtc":"2024-09-28","dy":"216","event":"AE: Oedema peripheral (MODERATE)","domain":"AE","category":"adverse_event"},{"dtc":"2024-10-07","dy":"225","event":"DEVIATION: MISSED DOSE","domain":"DV","category":"deviation"},{"dtc":"2024-10-10","dy":"228","event":"DEVIATION: MISSED DOSE","domain":"DV","category":"deviation"},{"dtc":"2024-10-18","dy":"236","event":"DEVIATION: MISSED DOSE","domain":"DV","category":"deviation"},{"dtc":"2024-10-24","dy":"242","event":"DEVIATION: MISSED DOSE","domain":"DV","category":"deviation"},{"dtc":"2024-11-05","dy":"254","event":"DEVIATION: VISIT OCCURRED OUTSIDE VISIT WINDOW","domain":"DV","category":"deviation"},{"dtc":"2024-11-05","dy":"254","event":"VISIT: WEEK 36","domain":"SV","category":"visit"},{"dtc":"2024-11-06","dy":"255","event":"AE: Hypotension (MILD)","domain":"AE","category":"adverse_event"},{"dtc":"2024-11-09","dy":"258","event":"DEVIATION: MISSED DOSE","domain":"DV","category":"deviation"},{"dtc":"2024-11-11","dy":"260","event":"DEVIATION: MISSED DOSE","domain":"DV","category":"deviation"},{"dtc":"2024-11-18","dy":"267","event":"AE: Alanine aminotransferase increased (SEVERE) [SERIOUS]","domain":"AE","category":"adverse_event"},{"dtc":"2024-11-18","dy":"267","event":"CM START: PARACETAMOL","domain":"CM","category":"concomitant_med"},{"dtc":"2024-11-23","dy":"272","event":"DEVIATION: MISSED DOSE","domain":"DV","category":"deviation"},{"dtc":"2024-11-27","dy":"276","event":"AE: Oedema peripheral (MILD)","domain":"AE","category":"adverse_event"},{"dtc":"2024-12-14","dy":"293","event":"DEVIATION: MISSED DOSE","domain":"DV","category":"deviation"},{"dtc":"2024-12-18","dy":"297","event":"DEVIATION: MISSED DOSE","domain":"DV","category":"deviation"},{"dtc":"2024-12-24","dy":"303","event":"DEVIATION: MISSED DOSE","domain":"DV","category":"deviation"},{"dtc":"2024-12-25","dy":"304","event":"DEVIATION: MISSED DOSE","domain":"DV","category":"deviation"},{"dtc":"2024-12-27","dy":"306","event":"DEVIATION: MISSED DOSE","domain":"DV","category":"deviation"},{"dtc":"2024-12-28","dy":"307","event":"AE: Headache (MILD)","domain":"AE","category":"adverse_event"},{"dtc":"2025-01-10","dy":"320","event":"AE: Nausea (MILD)","domain":"AE","category":"adverse_event"},{"dtc":"2025-01-10","dy":"320","event":"CM START: ONDANSETRON","domain":"CM","category":"concomitant_med"},{"dtc":"2025-01-21","dy":"331","event":"DEVIATION: MISSED DOSE","domain":"DV","category":"deviation"},{"dtc":"2025-01-24","dy":"334","event":"DEVIATION: MISSED DOSE","domain":"DV","category":"deviation"},{"dtc":"2025-01-31","dy":"341","event":"DEVIATION: MISSED DOSE","domain":"DV","category":"deviation"},{"dtc":"2025-02-01","dy":"342","event":"AE: Nausea (MILD)","domain":"AE","category":"adverse_event"},{"dtc":"2025-02-03","dy":"344","event":"AE: Hyperkalaemia (MODERATE)","domain":"AE","category":"adverse_event"},{"dtc":"2025-02-03","dy":"344","event":"CM START: SODIUM POLYSTYRENE SULFONATE","domain":"CM","category":"concomitant_med"},{"dtc":"2025-02-16","dy":"357","event":"AE: Nausea (MILD)","domain":"AE","category":"adverse_event"},{"dtc":"2025-02-23","dy":"364","event":"DEVIATION: MISSED DOSE","domain":"DV","category":"deviation"},{"dtc":"2025-02-24","dy":"365","event":"AE: Fatigue (MILD)","domain":"AE","category":"adverse_event"},{"dtc":"2025-03-11","dy":"380","event":"DEVIATION: MISSED DOSE","domain":"DV","category":"deviation"},{"dtc":"2025-03-16","dy":"385","event":"DEVIATION: MISSED DOSE","domain":"DV","category":"deviation"},{"dtc":"2025-03-24","dy":"393","event":"AE: Dizziness (MILD)","domain":"AE","category":"adverse_event"},{"dtc":"2025-03-28","dy":"397","event":"DEVIATION: MISSED DOSE","domain":"DV","category":"deviation"},{"dtc":"2025-04-08","dy":"408","event":"VISIT: WEEK 58","domain":"SV","category":"visit"},{"dtc":"2025-04-17","dy":"417","event":"DEVIATION: MISSED DOSE","domain":"DV","category":"deviation"},{"dtc":"2025-04-21","dy":"421","event":"DEVIATION: MISSED DOSE","domain":"DV","category":"deviation"},{"dtc":"2025-04-30","dy":"430","event":"DEVIATION: MISSED DOSE","domain":"DV","category":"deviation"},{"dtc":"2025-05-13","dy":"443","event":"DEVIATION: MISSED DOSE","domain":"DV","category":"deviation"},{"dtc":"2025-05-16","dy":"446","event":"DEVIATION: MISSED DOSE","domain":"DV","category":"deviation"},{"dtc":"2025-05-18","dy":"448","event":"AE: Dizziness (MODERATE)","domain":"AE","category":"adverse_event"},{"dtc":"2025-06-09","dy":"470","event":"DEVIATION: MISSED DOSE","domain":"DV","category":"deviation"},{"dtc":"2025-06-17","dy":"478","event":"AE: Blood creatinine increased (MILD)","domain":"AE","category":"adverse_event"},{"dtc":"2025-06-17","dy":"478","event":"CM START: PARACETAMOL","domain":"CM","category":"concomitant_med"},{"dtc":"2025-06-18","dy":"479","event":"AE: Alanine aminotransferase increased (MODERATE)","domain":"AE","category":"adverse_event"},{"dtc":"2025-06-18","dy":"479","event":"DEVIATION: DOSE MODIFICATION","domain":"DV","category":"deviation"},{"dtc":"2025-06-23","dy":"484","event":"DEVIATION: MISSED DOSE","domain":"DV","category":"deviation"},{"dtc":"2025-07-01","dy":"492","event":"DEVIATION: MISSED DOSE","domain":"DV","category":"deviation"},{"dtc":"2025-07-05","dy":"496","event":"DEVIATION: MISSED DOSE","domain":"DV","category":"deviation"},{"dtc":"2025-07-15","dy":"506","event":"DEVIATION: MISSED DOSE","domain":"DV","category":"deviation"},{"dtc":"2025-07-31","dy":"522","event":"DEVIATION: MISSED DOSE","domain":"DV","category":"deviation"},{"dtc":"2025-08-03","dy":"525","event":"AE: Diarrhoea (MILD)","domain":"AE","category":"adverse_event"},{"dtc":"2025-08-03","dy":"525","event":"DEVIATION: DOSE MODIFICATION","domain":"DV","category":"deviation"},{"dtc":"2025-08-11","dy":"533","event":"AE: Oedema peripheral (MILD)","domain":"AE","category":"adverse_event"},{"dtc":"2025-08-16","dy":"538","event":"DEVIATION: MISSED DOSE","domain":"DV","category":"deviation"},{"dtc":"2025-08-21","dy":"543","event":"DEVIATION: MISSED DOSE","domain":"DV","category":"deviation"},{"dtc":"2025-08-27","dy":"549","event":"DEVIATION: MISSED DOSE","domain":"DV","category":"deviation"},{"dtc":"2025-09-05","dy":"558","event":"LAST DOSE: IRBESARTAN","domain":"EX","category":"exposure"},{"dtc":"2025-10-10","dy":"593","event":"DEVIATION: VISIT OCCURRED OUTSIDE VISIT WINDOW","domain":"DV","category":"deviation"},{"dtc":"2025-10-10","dy":"593","event":"VISIT: WEEK 84","domain":"SV","category":"visit"},{"dtc":"2026-02-05","dy":"711","event":"AE: Oedema peripheral (MODERATE)","domain":"AE","category":"adverse_event"},{"dtc":"2026-03-30","dy":"764","event":"VISIT: WEEK 110","domain":"SV","category":"visit"},{"dtc":"2026-05-02","dy":"797","event":"VISIT: WEEK 114 EOT","domain":"SV","category":"visit"},{"dtc":"2026-06-01","dy":"827","event":"VISIT: SAFETY FU","domain":"SV","category":"visit"},{"dtc":"2026-07-12","dy":"868","event":"COMPLETED","domain":"DS","category":"milestone"}],"section_1_demographics":{"usubjid":"021IGAN17001-CHN_SITE02-0002","subjid":"0002","siteid":"CHN_SITE02","age":"34","ageu":"YEARS","sex":"M","race":"BLACK OR AFRICAN AMERICAN","ethnicity":"HISPANIC OR LATINO","country":"CHN","arm":"Irbesartan 300 mg QD (active control)","armcd":"IRBESARTAN","actarm":"Irbesartan 300 mg QD (active control)","actarmcd":"IRBESARTAN","randomization_date":null,"informed_consent_date":"2024-02-08","reference_start_date":"2024-02-26","reference_end_date":"2026-07-12","screen_failure":false,"death_flag":null,"death_date":null,"subject_characteristics":[{"testcd":"ALCUSE","test":"Alcohol Use","orres":"NON-DRINKER","stresc":"NON-DRINKER","visit":null,"dtc":"2024-02-08"},{"testcd":"BMI","test":"Body Mass Index","orres":"28.8","stresc":"28.8","visit":null,"dtc":"2024-02-08"},{"testcd":"DURDIS","test":"Duration of Disease","orres":"206 months","stresc":"206","visit":null,"dtc":"2024-02-08"},{"testcd":"TOBUSE","test":"Tobacco Use","orres":"NEVER SMOKED","stresc":"NEVER SMOKED","visit":null,"dtc":"2024-02-08"}]},"section_2_medical_history":{"items":[{"seq":"1","term":"HYPERTENSION","decod":"HYPERTENSION","cat":"CARDIOVASCULAR","scat":null,"presp":null,"occur":null,"status":null,"onset_dtc":"2007-02","end_dtc":null,"visit":null},{"seq":"2","term":"IGA NEPHROPATHY","decod":"IGA NEPHROPATHY","cat":"RENAL","scat":null,"presp":null,"occur":null,"status":null,"onset_dtc":"2012-02-11","end_dtc":"2018-07-18","visit":null},{"seq":"3","term":"RECURRENT UPPER RESPIRATORY TRACT INFECTION","decod":"RECURRENT UPPER RESPIRATORY TRACT INFECTION","cat":"RESPIRATORY","scat":null,"presp":null,"occur":null,"status":null,"onset_dtc":"2007-02","end_dtc":"2015-01-15","visit":null}]},"section_3_inclusion_exclusion":{"criteria":[]},"section_4_trial_participation":{"visits":[{"visitnum":"1.0","visit":"SCREENING","start_dtc":"2024-01-05","end_dtc":"2024-01-05","updes":null},{"visitnum":"2.0","visit":"BASELINE","start_dtc":"2024-02-26","end_dtc":"2024-02-26","updes":null},{"visitnum":"3.0","visit":"WEEK 2","start_dtc":"2024-03-14","end_dtc":"2024-03-14","updes":null},{"visitnum":"4.0","visit":"WEEK 4","start_dtc":"2024-03-27","end_dtc":"2024-03-27","updes":null},{"visitnum":"5.0","visit":"WEEK 8","start_dtc":"2024-04-22","end_dtc":"2024-04-22","updes":null},{"visitnum":"6.0","visit":"WEEK 12","start_dtc":"2024-05-20","end_dtc":"2024-05-20","updes":null},{"visitnum":"7.0","visit":"WEEK 24","start_dtc":"2024-08-10","end_dtc":"2024-08-10","updes":null},{"visitnum":"8.0","visit":"WEEK 36","start_dtc":"2024-11-05","end_dtc":"2024-11-05","updes":null},{"visitnum":"9.0","visit":"WEEK 58","start_dtc":"2025-04-08","end_dtc":"2025-04-08","updes":null},{"visitnum":"10.0","visit":"WEEK 84","start_dtc":"2025-10-10","end_dtc":"2025-10-10","updes":null},{"visitnum":"11.0","visit":"WEEK 110","start_dtc":"2026-03-30","end_dtc":"2026-03-30","updes":null},{"visitnum":"12.0","visit":"WEEK 114 EOT","start_dtc":"2026-05-02","end_dtc":"2026-05-02","updes":null},{"visitnum":"13.0","visit":"SAFETY FU","start_dtc":"2026-06-01","end_dtc":"2026-06-01","updes":null}],"epochs":[{"seq":"1","etcd":"SCRN","element":"Screening","start_dtc":"2024-01-15","end_dtc":"2024-02-26","updes":null},{"seq":"2","etcd":"TRT","element":"Treatment (double-blind)","start_dtc":"2024-02-26","end_dtc":"2026-05-04","updes":null},{"seq":"3","etcd":"FU","element":"Safety follow-up","start_dtc":"2026-05-04","end_dtc":"2026-05-31","updes":null}],"visit_count":13},"section_5_concomitant_medications":{"medications":[{"seq":"1","trt":"IBUPROFEN","decod":"IBUPROFEN","cat":"CONCOMITANT","dose":"400","doseu":null,"dosef":"PRN","route":"ORAL","indication":"HEADACHE","start_dtc":"2024-03-16","end_dtc":"2024-03-28","ongoing":null,"visit":null},{"seq":"2","trt":"PARACETAMOL","decod":"PARACETAMOL","cat":"CONCOMITANT","dose":"500","doseu":null,"dosef":"PRN","route":"ORAL","indication":"BLOOD CREATININE INCREASED","start_dtc":"2024-09-13","end_dtc":"2024-09-16","ongoing":null,"visit":null},{"seq":"3","trt":"PARACETAMOL","decod":"PARACETAMOL","cat":"CONCOMITANT","dose":"500","doseu":null,"dosef":"PRN","route":"ORAL","indication":"ALANINE AMINOTRANSFERASE INCREASED","start_dtc":"2024-11-18","end_dtc":"2024-12-10","ongoing":null,"visit":null},{"seq":"4","trt":"ONDANSETRON","decod":"ONDANSETRON","cat":"CONCOMITANT","dose":"4","doseu":null,"dosef":"PRN","route":"ORAL","indication":"NAUSEA","start_dtc":"2025-01-10","end_dtc":"2025-02-04","ongoing":null,"visit":null},{"seq":"5","trt":"SODIUM POLYSTYRENE SULFONATE","decod":"SODIUM POLYSTYRENE SULFONATE","cat":"CONCOMITANT","dose":"15.0","doseu":null,"dosef":"QD","route":"ORAL","indication":"HYPERKALAEMIA","start_dtc":"2025-02-03","end_dtc":"2025-02-06","ongoing":null,"visit":null},{"seq":"6","trt":"PARACETAMOL","decod":"PARACETAMOL","cat":"CONCOMITANT","dose":"500","doseu":null,"dosef":"PRN","route":"ORAL","indication":"BLOOD CREATININE INCREASED","start_dtc":"2025-06-17","end_dtc":"2025-07-09","ongoing":null,"visit":null}]},"section_6_exposure":{"exposure_as_administered":[{"seq":"1","trt":"IRBESARTAN","dose":"300.0","doseu":null,"dosef":"QD","route":"ORAL","lot":null,"start_dtc":"2024-02-26","end_dtc":"2024-08-03","start_dy":"1","end_dy":"160","epoch":"TREATMENT","visit":null},{"seq":"2","trt":"IRBESARTAN","dose":"300.0","doseu":null,"dosef":"QD","route":"ORAL","lot":null,"start_dtc":"2024-08-06","end_dtc":"2024-09-24","start_dy":"163","end_dy":"212","epoch":"TREATMENT","visit":null},{"seq":"3","trt":"IRBESARTAN","dose":"150.0","doseu":null,"dosef":"QD","route":"ORAL","lot":null,"start_dtc":"2024-09-25","end_dtc":"2025-06-17","start_dy":"213","end_dy":"478","epoch":"TREATMENT","visit":null},{"seq":"4","trt":"IRBESARTAN","dose":"150.0","doseu":null,"dosef":"QD","route":"ORAL","lot":null,"start_dtc":"2025-06-18","end_dtc":"2025-08-02","start_dy":"479","end_dy":"524","epoch":"TREATMENT","visit":null},{"seq":"5","trt":"IRBESARTAN","dose":"150.0","doseu":null,"dosef":"QD","route":"ORAL","lot":null,"start_dtc":"2025-08-03","end_dtc":"2025-09-05","start_dy":"525","end_dy":"558","epoch":"TREATMENT","visit":null}],"exposure_as_collected":[{"seq":"1","trt":"IRBESARTAN","dose":"300.0","doseu":null,"dosef":"QD","route":"ORAL","start_dtc":"2024-02-26","end_dtc":"2024-02-26","visit":"BASELINE"},{"seq":"2","trt":"IRBESARTAN","dose":"300.0","doseu":null,"dosef":"QD","route":"ORAL","start_dtc":"2024-02-27","end_dtc":"2024-02-27","visit":"BASELINE"},{"seq":"3","trt":"IRBESARTAN","dose":"300.0","doseu":null,"dosef":"QD","route":"ORAL","start_dtc":"2024-02-28","end_dtc":"2024-02-28","visit":"BASELINE"},{"seq":"4","trt":"IRBESARTAN","dose":"300.0","doseu":null,"dosef":"QD","route":"ORAL","start_dtc":"2024-02-29","end_dtc":"2024-02-29","visit":"BASELINE"},{"seq":"5","trt":"IRBESARTAN","dose":"300.0","doseu":null,"dosef":"QD","route":"ORAL","start_dtc":"2024-03-01","end_dtc":"2024-03-01","visit":null},{"seq":"6","trt":"IRBESARTAN","dose":"300.0","doseu":null,"dosef":"QD","route":"ORAL","start_dtc":"2024-03-02","end_dtc":"2024-03-02","visit":null},{"seq":"7","trt":"IRBESARTAN","dose":"300.0","doseu":null,"dosef":"QD","route":"ORAL","start_dtc":"2024-03-03","end_dtc":"2024-03-03","visit":null},{"seq":"8","trt":"IRBESARTAN","dose":"300.0","doseu":null,"dosef":"QD","route":"ORAL","start_dtc":"2024-03-04","end_dtc":"2024-03-04","visit":null},{"seq":"9","trt":"IRBESARTAN","dose":"300.0","doseu":null,"dosef":"QD","route":"ORAL","start_dtc":"2024-03-05","end_dtc":"2024-03-05","visit":null},{"seq":"10","trt":"IRBESARTAN","dose":"300.0","doseu":null,"dosef":"QD","route":"ORAL","start_dtc":"2024-03-06","end_dtc":"2024-03-06","visit":null},{"seq":"11","trt":"IRBESARTAN","dose":"300.0","doseu":null,"dosef":"QD","route":"ORAL","start_dtc":"2024-03-07","end_dtc":"2024-03-07","visit":null},{"seq":"12","trt":"IRBESARTAN","dose":"300.0","doseu":null,"dosef":"QD","route":"ORAL","start_dtc":"2024-03-08","end_dtc":"2024-03-08","visit":"WEEK 2"},{"seq":"13","trt":"IRBESARTAN","dose":"300.0","doseu":null,"dosef":"QD","route":"ORAL","start_dtc":"2024-03-09","end_dtc":"2024-03-09","visit":"WEEK 2"},{"seq":"14","trt":"IRBESARTAN","dose":"300.0","doseu":null,"dosef":"QD","route":"ORAL","start_dtc":"2024-03-10","end_dtc":"2024-03-10","visit":"WEEK 2"},{"seq":"15","trt":"IRBESARTAN","dose":"300.0","doseu":null,"dosef":"QD","route":"ORAL","start_dtc":"2024-03-11","end_dtc":"2024-03-11","visit":"WEEK 2"},{"seq":"16","trt":"IRBESARTAN","dose":"300.0","doseu":null,"dosef":"QD","route":"ORAL","start_dtc":"2024-03-12","end_dtc":"2024-03-12","visit":"WEEK 2"},{"seq":"17","trt":"IRBESARTAN","dose":"300.0","doseu":null,"dosef":"QD","route":"ORAL","start_dtc":"2024-03-13","end_dtc":"2024-03-13","visit":"WEEK 2"},{"seq":"18","trt":"IRBESARTAN","dose":"300.0","doseu":null,"dosef":"QD","route":"ORAL","start_dtc":"2024-03-14","end_dtc":"2024-03-14","visit":"WEEK 2"},{"seq":"19","trt":"IRBESARTAN","dose":"300.0","doseu":null,"dosef":"QD","route":"ORAL","start_dtc":"2024-03-15","end_dtc":"2024-03-15","visit":null},{"seq":"20","trt":"IRBESARTAN","dose":"300.0","doseu":null,"dosef":"QD","route":"ORAL","start_dtc":"2024-03-16","end_dtc":"2024-03-16","visit":null},{"seq":"21","trt":"IRBESARTAN","dose":"300.0","doseu":null,"dosef":"QD","route":"ORAL","start_dtc":"2024-03-17","end_dtc":"2024-03-17","visit":null},{"seq":"22","trt":"IRBESARTAN","dose":"300.0","doseu":null,"dosef":"QD","route":"ORAL","start_dtc":"2024-03-18","end_dtc":"2024-03-18","visit":null},{"seq":"23","trt":"IRBESARTAN","dose":"300.0","doseu":null,"dosef":"QD","route":"ORAL","start_dtc":"2024-03-19","end_dtc":"2024-03-19","visit":null},{"seq":"24","trt":"IRBESARTAN","dose":"300.0","doseu":null,"dosef":"QD","route":"ORAL","start_dtc":"2024-03-20","end_dtc":"2024-03-20","visit":null},{"seq":"25","trt":"IRBESARTAN","dose":"300.0","doseu":null,"dosef":"QD","route":"ORAL","start_dtc":"2024-03-21","end_dtc":"2024-03-21","visit":null},{"seq":"26","trt":"IRBESARTAN","dose":"300.0","doseu":null,"dosef":"QD","route":"ORAL","start_dtc":"2024-03-22","end_dtc":"2024-03-22","visit":"WEEK 4"},{"seq":"27","trt":"IRBESARTAN","dose":"300.0","doseu":null,"dosef":"QD","route":"ORAL","start_dtc":"2024-03-23","end_dtc":"2024-03-23","visit":"WEEK 4"},{"seq":"28","trt":"IRBESARTAN","dose":"300.0","doseu":null,"dosef":"QD","route":"ORAL","start_dtc":"2024-03-24","end_dtc":"2024-03-24","visit":"WEEK 4"},{"seq":"29","trt":"IRBESARTAN","dose":"300.0","doseu":null,"dosef":"QD","route":"ORAL","start_dtc":"2024-03-25","end_dtc":"2024-03-25","visit":"WEEK 4"},{"seq":"30","trt":"IRBESARTAN","dose":"300.0","doseu":null,"dosef":"QD","route":"ORAL","start_dtc":"2024-03-26","end_dtc":"2024-03-26","visit":"WEEK 4"},{"seq":"31","trt":"IRBESARTAN","dose":"300.0","doseu":null,"dosef":"QD","route":"ORAL","start_dtc":"2024-03-27","end_dtc":"2024-03-27","visit":"WEEK 4"},{"seq":"32","trt":"IRBESARTAN","dose":"300.0","doseu":null,"dosef":"QD","route":"ORAL","start_dtc":"2024-03-28","end_dtc":"2024-03-28","visit":"WEEK 4"},{"seq":"33","trt":"IRBESARTAN","dose":"300.0","doseu":null,"dosef":"QD","route":"ORAL","start_dtc":"2024-03-29","end_dtc":"2024-03-29","visit":null},{"seq":"34","trt":"IRBESARTAN","dose":"300.0","doseu":null,"dosef":"QD","route":"ORAL","start_dtc":"2024-03-30","end_dtc":"2024-03-30","visit":null},{"seq":"35","trt":"IRBESARTAN","dose":"300.0","doseu":null,"dosef":"QD","route":"ORAL","start_dtc":"2024-03-31","end_dtc":"2024-03-31","visit":null},{"seq":"36","trt":"IRBESARTAN","dose":null,"doseu":null,"dosef":"QD","route":"ORAL","start_dtc":"2024-04-01","end_dtc":"2024-04-01","visit":null},{"seq":"37","trt":"IRBESARTAN","dose":"300.0","doseu":null,"dosef":"QD","route":"ORAL","start_dtc":"2024-04-02","end_dtc":"2024-04-02","visit":null},{"seq":"38","trt":"IRBESARTAN","dose":"300.0","doseu":null,"dosef":"QD","route":"ORAL","start_dtc":"2024-04-03","end_dtc":"2024-04-03","visit":null},{"seq":"39","trt":"IRBESARTAN","dose":"300.0","doseu":null,"dosef":"QD","route":"ORAL","start_dtc":"2024-04-04","end_dtc":"2024-04-04","visit":null},{"seq":"40","trt":"IRBESARTAN","dose":"300.0","doseu":null,"dosef":"QD","route":"ORAL","start_dtc":"2024-04-05","end_dtc":"2024-04-05","visit":null},{"seq":"41","trt":"IRBESARTAN","dose":"300.0","doseu":null,"dosef":"QD","route":"ORAL","start_dtc":"2024-04-06","end_dtc":"2024-04-06","visit":null},{"seq":"42","trt":"IRBESARTAN","dose":"300.0","doseu":null,"dosef":"QD","route":"ORAL","start_dtc":"2024-04-07","end_dtc":"2024-04-07","visit":null},{"seq":"43","trt":"IRBESARTAN","dose":null,"doseu":null,"dosef":"QD","route":"ORAL","start_dtc":"2024-04-08","end_dtc":"2024-04-08","visit":null},{"seq":"44","trt":"IRBESARTAN","dose":"300.0","doseu":null,"dosef":"QD","route":"ORAL","start_dtc":"2024-04-09","end_dtc":"2024-04-09","visit":null},{"seq":"45","trt":"IRBESARTAN","dose":"300.0","doseu":null,"dosef":"QD","route":"ORAL","start_dtc":"2024-04-10","end_dtc":"2024-04-10","visit":null},{"seq":"46","trt":"IRBESARTAN","dose":"300.0","doseu":null,"dosef":"QD","route":"ORAL","start_dtc":"2024-04-11","end_dtc":"2024-04-11","visit":null},{"seq":"47","trt":"IRBESARTAN","dose":null,"doseu":null,"dosef":"QD","route":"ORAL","start_dtc":"2024-04-12","end_dtc":"2024-04-12","visit":null},{"seq":"48","trt":"IRBESARTAN","dose":"300.0","doseu":null,"dosef":"QD","route":"ORAL","start_dtc":"2024-04-13","end_dtc":"2024-04-13","visit":null},{"seq":"49","trt":"IRBESARTAN","dose":"300.0","doseu":null,"dosef":"QD","route":"ORAL","start_dtc":"2024-04-14","end_dtc":"2024-04-14","visit":null},{"seq":"50","trt":"IRBESARTAN","dose":"300.0","doseu":null,"dosef":"QD","route":"ORAL","start_dtc":"2024-04-15","end_dtc":"2024-04-15","visit":null},{"seq":"51","trt":"IRBESARTAN","dose":"300.0","doseu":null,"dosef":"QD","route":"ORAL","start_dtc":"2024-04-16","end_dtc":"2024-04-16","visit":null},{"seq":"52","trt":"IRBESARTAN","dose":"300.0","doseu":null,"dosef":"QD","route":"ORAL","start_dtc":"2024-04-17","end_dtc":"2024-04-17","visit":null},{"seq":"53","trt":"IRBESARTAN","dose":"300.0","doseu":null,"dosef":"QD","route":"ORAL","start_dtc":"2024-04-18","end_dtc":"2024-04-18","visit":null},{"seq":"54","trt":"IRBESARTAN","dose":"300.0","doseu":null,"dosef":"QD","route":"ORAL","start_dtc":"2024-04-19","end_dtc":"2024-04-19","visit":"WEEK 8"},{"seq":"55","trt":"IRBESARTAN","dose":"300.0","doseu":null,"dosef":"QD","route":"ORAL","start_dtc":"2024-04-20","end_dtc":"2024-04-20","visit":"WEEK 8"},{"seq":"56","trt":"IRBESARTAN","dose":"300.0","doseu":null,"dosef":"QD","route":"ORAL","start_dtc":"2024-04-21","end_dtc":"2024-04-21","visit":"WEEK 8"},{"seq":"57","trt":"IRBESARTAN","dose":"300.0","doseu":null,"dosef":"QD","route":"ORAL","start_dtc":"2024-04-22","end_dtc":"2024-04-22","visit":"WEEK 8"},{"seq":"58","trt":"IRBESARTAN","dose":"300.0","doseu":null,"dosef":"QD","route":"ORAL","start_dtc":"2024-04-23","end_dtc":"2024-04-23","visit":"WEEK 8"},{"seq":"59","trt":"IRBESARTAN","dose":"300.0","doseu":null,"dosef":"QD","route":"ORAL","start_dtc":"2024-04-24","end_dtc":"2024-04-24","visit":"WEEK 8"},{"seq":"60","trt":"IRBESARTAN","dose":"300.0","doseu":null,"dosef":"QD","route":"ORAL","start_dtc":"2024-04-25","end_dtc":"2024-04-25","visit":"WEEK 8"},{"seq":"61","trt":"IRBESARTAN","dose":"300.0","doseu":null,"dosef":"QD","route":"ORAL","start_dtc":"2024-04-26","end_dtc":"2024-04-26","visit":null},{"seq":"62","trt":"IRBESARTAN","dose":"300.0","doseu":null,"dosef":"QD","route":"ORAL","start_dtc":"2024-04-27","end_dtc":"2024-04-27","visit":null},{"seq":"63","trt":"IRBESARTAN","dose":"300.0","doseu":null,"dosef":"QD","route":"ORAL","start_dtc":"2024-04-28","end_dtc":"2024-04-28","visit":null},{"seq":"64","trt":"IRBESARTAN","dose":"300.0","doseu":null,"dosef":"QD","route":"ORAL","start_dtc":"2024-04-29","end_dtc":"2024-04-29","visit":null},{"seq":"65","trt":"IRBESARTAN","dose":"300.0","doseu":null,"dosef":"QD","route":"ORAL","start_dtc":"2024-04-30","end_dtc":"2024-04-30","visit":null},{"seq":"66","trt":"IRBESARTAN","dose":"300.0","doseu":null,"dosef":"QD","route":"ORAL","start_dtc":"2024-05-01","end_dtc":"2024-05-01","visit":null},{"seq":"67","trt":"IRBESARTAN","dose":"300.0","doseu":null,"dosef":"QD","route":"ORAL","start_dtc":"2024-05-02","end_dtc":"2024-05-02","visit":null},{"seq":"68","trt":"IRBESARTAN","dose":"300.0","doseu":null,"dosef":"QD","route":"ORAL","start_dtc":"2024-05-03","end_dtc":"2024-05-03","visit":null},{"seq":"69","trt":"IRBESARTAN","dose":"300.0","doseu":null,"dosef":"QD","route":"ORAL","start_dtc":"2024-05-04","end_dtc":"2024-05-04","visit":null},{"seq":"70","trt":"IRBESARTAN","dose":"300.0","doseu":null,"dosef":"QD","route":"ORAL","start_dtc":"2024-05-05","end_dtc":"2024-05-05","visit":null},{"seq":"71","trt":"IRBESARTAN","dose":"300.0","doseu":null,"dosef":"QD","route":"ORAL","start_dtc":"2024-05-06","end_dtc":"2024-05-06","visit":null},{"seq":"72","trt":"IRBESARTAN","dose":"300.0","doseu":null,"dosef":"QD","route":"ORAL","start_dtc":"2024-05-07","end_dtc":"2024-05-07","visit":null},{"seq":"73","trt":"IRBESARTAN","dose":"300.0","doseu":null,"dosef":"QD","route":"ORAL","start_dtc":"2024-05-08","end_dtc":"2024-05-08","visit":null},{"seq":"74","trt":"IRBESARTAN","dose":"300.0","doseu":null,"dosef":"QD","route":"ORAL","start_dtc":"2024-05-09","end_dtc":"2024-05-09","visit":null},{"seq":"75","trt":"IRBESARTAN","dose":"300.0","doseu":null,"dosef":"QD","route":"ORAL","start_dtc":"2024-05-10","end_dtc":"2024-05-10","visit":null},{"seq":"76","trt":"IRBESARTAN","dose":"300.0","doseu":null,"dosef":"QD","route":"ORAL","start_dtc":"2024-05-11","end_dtc":"2024-05-11","visit":null},{"seq":"77","trt":"IRBESARTAN","dose":"300.0","doseu":null,"dosef":"QD","route":"ORAL","start_dtc":"2024-05-12","end_dtc":"2024-05-12","visit":null},{"seq":"78","trt":"IRBESARTAN","dose":"300.0","doseu":null,"dosef":"QD","route":"ORAL","start_dtc":"2024-05-13","end_dtc":"2024-05-13","visit":null},{"seq":"79","trt":"IRBESARTAN","dose":"300.0","doseu":null,"dosef":"QD","route":"ORAL","start_dtc":"2024-05-14","end_dtc":"2024-05-14","visit":null},{"seq":"80","trt":"IRBESARTAN","dose":"300.0","doseu":null,"dosef":"QD","route":"ORAL","start_dtc":"2024-05-15","end_dtc":"2024-05-15","visit":null},{"seq":"81","trt":"IRBESARTAN","dose":"300.0","doseu":null,"dosef":"QD","route":"ORAL","start_dtc":"2024-05-16","end_dtc":"2024-05-16","visit":null},{"seq":"82","trt":"IRBESARTAN","dose":"300.0","doseu":null,"dosef":"QD","route":"ORAL","start_dtc":"2024-05-17","end_dtc":"2024-05-17","visit":"WEEK 12"},{"seq":"83","trt":"IRBESARTAN","dose":null,"doseu":null,"dosef":"QD","route":"ORAL","start_dtc":"2024-05-18","end_dtc":"2024-05-18","visit":"WEEK 12"},{"seq":"84","trt":"IRBESARTAN","dose":"300.0","doseu":null,"dosef":"QD","route":"ORAL","start_dtc":"2024-05-19","end_dtc":"2024-05-19","visit":"WEEK 12"},{"seq":"85","trt":"IRBESARTAN","dose":"300.0","doseu":null,"dosef":"QD","route":"ORAL","start_dtc":"2024-05-20","end_dtc":"2024-05-20","visit":"WEEK 12"},{"seq":"86","trt":"IRBESARTAN","dose":"300.0","doseu":null,"dosef":"QD","route":"ORAL","start_dtc":"2024-05-21","end_dtc":"2024-05-21","visit":"WEEK 12"},{"seq":"87","trt":"IRBESARTAN","dose":"300.0","doseu":null,"dosef":"QD","route":"ORAL","start_dtc":"2024-05-22","end_dtc":"2024-05-22","visit":"WEEK 12"},{"seq":"88","trt":"IRBESARTAN","dose":"300.0","doseu":null,"dosef":"QD","route":"ORAL","start_dtc":"2024-05-23","end_dtc":"2024-05-23","visit":"WEEK 12"},{"seq":"89","trt":"IRBESARTAN","dose":"300.0","doseu":null,"dosef":"QD","route":"ORAL","start_dtc":"2024-05-24","end_dtc":"2024-05-24","visit":null},{"seq":"90","trt":"IRBESARTAN","dose":"300.0","doseu":null,"dosef":"QD","route":"ORAL","start_dtc":"2024-05-25","end_dtc":"2024-05-25","visit":null},{"seq":"91","trt":"IRBESARTAN","dose":"300.0","doseu":null,"dosef":"QD","route":"ORAL","start_dtc":"2024-05-26","end_dtc":"2024-05-26","visit":null},{"seq":"92","trt":"IRBESARTAN","dose":null,"doseu":null,"dosef":"QD","route":"ORAL","start_dtc":"2024-05-27","end_dtc":"2024-05-27","visit":null},{"seq":"93","trt":"IRBESARTAN","dose":"300.0","doseu":null,"dosef":"QD","route":"ORAL","start_dtc":"2024-05-28","end_dtc":"2024-05-28","visit":null},{"seq":"94","trt":"IRBESARTAN","dose":"300.0","doseu":null,"dosef":"QD","route":"ORAL","start_dtc":"2024-05-29","end_dtc":"2024-05-29","visit":null},{"seq":"95","trt":"IRBESARTAN","dose":"300.0","doseu":null,"dosef":"QD","route":"ORAL","start_dtc":"2024-05-30","end_dtc":"2024-05-30","visit":null},{"seq":"96","trt":"IRBESARTAN","dose":"300.0","doseu":null,"dosef":"QD","route":"ORAL","start_dtc":"2024-05-31","end_dtc":"2024-05-31","visit":null},{"seq":"97","trt":"IRBESARTAN","dose":"300.0","doseu":null,"dosef":"QD","route":"ORAL","start_dtc":"2024-06-01","end_dtc":"2024-06-01","visit":null},{"seq":"98","trt":"IRBESARTAN","dose":"300.0","doseu":null,"dosef":"QD","route":"ORAL","start_dtc":"2024-06-02","end_dtc":"2024-06-02","visit":null},{"seq":"99","trt":"IRBESARTAN","dose":"300.0","doseu":null,"dosef":"QD","route":"ORAL","start_dtc":"2024-06-03","end_dtc":"2024-06-03","visit":null},{"seq":"100","trt":"IRBESARTAN","dose":null,"doseu":null,"dosef":"QD","route":"ORAL","start_dtc":"2024-06-04","end_dtc":"2024-06-04","visit":null},{"seq":"101","trt":"IRBESARTAN","dose":"300.0","doseu":null,"dosef":"QD","route":"ORAL","start_dtc":"2024-06-05","end_dtc":"2024-06-05","visit":null},{"seq":"102","trt":"IRBESARTAN","dose":"300.0","doseu":null,"dosef":"QD","route":"ORAL","start_dtc":"2024-06-06","end_dtc":"2024-06-06","visit":null},{"seq":"103","trt":"IRBESARTAN","dose":"300.0","doseu":null,"dosef":"QD","route":"ORAL","start_dtc":"2024-06-07","end_dtc":"2024-06-07","visit":null},{"seq":"104","trt":"IRBESARTAN","dose":"300.0","doseu":null,"dosef":"QD","route":"ORAL","start_dtc":"2024-06-08","end_dtc":"2024-06-08","visit":null},{"seq":"105","trt":"IRBESARTAN","dose":"300.0","doseu":null,"dosef":"QD","route":"ORAL","start_dtc":"2024-06-09","end_dtc":"2024-06-09","visit":null},{"seq":"106","trt":"IRBESARTAN","dose":"300.0","doseu":null,"dosef":"QD","route":"ORAL","start_dtc":"2024-06-10","end_dtc":"2024-06-10","visit":null},{"seq":"107","trt":"IRBESARTAN","dose":"300.0","doseu":null,"dosef":"QD","route":"ORAL","start_dtc":"2024-06-11","end_dtc":"2024-06-11","visit":null},{"seq":"108","trt":"IRBESARTAN","dose":"300.0","doseu":null,"dosef":"QD","route":"ORAL","start_dtc":"2024-06-12","end_dtc":"2024-06-12","visit":null},{"seq":"109","trt":"IRBESARTAN","dose":"300.0","doseu":null,"dosef":"QD","route":"ORAL","start_dtc":"2024-06-13","end_dtc":"2024-06-13","visit":null},{"seq":"110","trt":"IRBESARTAN","dose":"300.0","doseu":null,"dosef":"QD","route":"ORAL","start_dtc":"2024-06-14","end_dtc":"2024-06-14","visit":null},{"seq":"111","trt":"IRBESARTAN","dose":"300.0","doseu":null,"dosef":"QD","route":"ORAL","start_dtc":"2024-06-15","end_dtc":"2024-06-15","visit":null},{"seq":"112","trt":"IRBESARTAN","dose":"300.0","doseu":null,"dosef":"QD","route":"ORAL","start_dtc":"2024-06-16","end_dtc":"2024-06-16","visit":null},{"seq":"113","trt":"IRBESARTAN","dose":null,"doseu":null,"dosef":"QD","route":"ORAL","start_dtc":"2024-06-17","end_dtc":"2024-06-17","visit":null},{"seq":"114","trt":"IRBESARTAN","dose":"300.0","doseu":null,"dosef":"QD","route":"ORAL","start_dtc":"2024-06-18","end_dtc":"2024-06-18","visit":null},{"seq":"115","trt":"IRBESARTAN","dose":"300.0","doseu":null,"dosef":"QD","route":"ORAL","start_dtc":"2024-06-19","end_dtc":"2024-06-19","visit":null},{"seq":"116","trt":"IRBESARTAN","dose":"300.0","doseu":null,"dosef":"QD","route":"ORAL","start_dtc":"2024-06-20","end_dtc":"2024-06-20","visit":null},{"seq":"117","trt":"IRBESARTAN","dose":"300.0","doseu":null,"dosef":"QD","route":"ORAL","start_dtc":"2024-06-21","end_dtc":"2024-06-21","visit":null},{"seq":"118","trt":"IRBESARTAN","dose":"300.0","doseu":null,"dosef":"QD","route":"ORAL","start_dtc":"2024-06-22","end_dtc":"2024-06-22","visit":null},{"seq":"119","trt":"IRBESARTAN","dose":"300.0","doseu":null,"dosef":"QD","route":"ORAL","start_dtc":"2024-06-23","end_dtc":"2024-06-23","visit":null},{"seq":"120","trt":"IRBESARTAN","dose":"300.0","doseu":null,"dosef":"QD","route":"ORAL","start_dtc":"2024-06-24","end_dtc":"2024-06-24","visit":null},{"seq":"121","trt":"IRBESARTAN","dose":"300.0","doseu":null,"dosef":"QD","route":"ORAL","start_dtc":"2024-06-25","end_dtc":"2024-06-25","visit":null},{"seq":"122","trt":"IRBESARTAN","dose":"300.0","doseu":null,"dosef":"QD","route":"ORAL","start_dtc":"2024-06-26","end_dtc":"2024-06-26","visit":null},{"seq":"123","trt":"IRBESARTAN","dose":"300.0","doseu":null,"dosef":"QD","route":"ORAL","start_dtc":"2024-06-27","end_dtc":"2024-06-27","visit":null},{"seq":"124","trt":"IRBESARTAN","dose":"300.0","doseu":null,"dosef":"QD","route":"ORAL","start_dtc":"2024-06-28","end_dtc":"2024-06-28","visit":null},{"seq":"125","trt":"IRBESARTAN","dose":"300.0","doseu":null,"dosef":"QD","route":"ORAL","start_dtc":"2024-06-29","end_dtc":"2024-06-29","visit":null},{"seq":"126","trt":"IRBESARTAN","dose":"300.0","doseu":null,"dosef":"QD","route":"ORAL","start_dtc":"2024-06-30","end_dtc":"2024-06-30","visit":null},{"seq":"127","trt":"IRBESARTAN","dose":null,"doseu":null,"dosef":"QD","route":"ORAL","start_dtc":"2024-07-01","end_dtc":"2024-07-01","visit":null},{"seq":"128","trt":"IRBESARTAN","dose":"300.0","doseu":null,"dosef":"QD","route":"ORAL","start_dtc":"2024-07-02","end_dtc":"2024-07-02","visit":null},{"seq":"129","trt":"IRBESARTAN","dose":"300.0","doseu":null,"dosef":"QD","route":"ORAL","start_dtc":"2024-07-03","end_dtc":"2024-07-03","visit":null},{"seq":"130","trt":"IRBESARTAN","dose":"300.0","doseu":null,"dosef":"QD","route":"ORAL","start_dtc":"2024-07-04","end_dtc":"2024-07-04","visit":null},{"seq":"131","trt":"IRBESARTAN","dose":"300.0","doseu":null,"dosef":"QD","route":"ORAL","start_dtc":"2024-07-05","end_dtc":"2024-07-05","visit":null},{"seq":"132","trt":"IRBESARTAN","dose":"300.0","doseu":null,"dosef":"QD","route":"ORAL","start_dtc":"2024-07-06","end_dtc":"2024-07-06","visit":null},{"seq":"133","trt":"IRBESARTAN","dose":"300.0","doseu":null,"dosef":"QD","route":"ORAL","start_dtc":"2024-07-07","end_dtc":"2024-07-07","visit":null},{"seq":"134","trt":"IRBESARTAN","dose":"300.0","doseu":null,"dosef":"QD","route":"ORAL","start_dtc":"2024-07-08","end_dtc":"2024-07-08","visit":null},{"seq":"135","trt":"IRBESARTAN","dose":"300.0","doseu":null,"dosef":"QD","route":"ORAL","start_dtc":"2024-07-09","end_dtc":"2024-07-09","visit":null},{"seq":"136","trt":"IRBESARTAN","dose":null,"doseu":null,"dosef":"QD","route":"ORAL","start_dtc":"2024-07-10","end_dtc":"2024-07-10","visit":null},{"seq":"137","trt":"IRBESARTAN","dose":"300.0","doseu":null,"dosef":"QD","route":"ORAL","start_dtc":"2024-07-11","end_dtc":"2024-07-11","visit":null},{"seq":"138","trt":"IRBESARTAN","dose":"300.0","doseu":null,"dosef":"QD","route":"ORAL","start_dtc":"2024-07-12","end_dtc":"2024-07-12","visit":null},{"seq":"139","trt":"IRBESARTAN","dose":"300.0","doseu":null,"dosef":"QD","route":"ORAL","start_dtc":"2024-07-13","end_dtc":"2024-07-13","visit":null},{"seq":"140","trt":"IRBESARTAN","dose":"300.0","doseu":null,"dosef":"QD","route":"ORAL","start_dtc":"2024-07-14","end_dtc":"2024-07-14","visit":null},{"seq":"141","trt":"IRBESARTAN","dose":"300.0","doseu":null,"dosef":"QD","route":"ORAL","start_dtc":"2024-07-15","end_dtc":"2024-07-15","visit":null},{"seq":"142","trt":"IRBESARTAN","dose":"300.0","doseu":null,"dosef":"QD","route":"ORAL","start_dtc":"2024-07-16","end_dtc":"2024-07-16","visit":null},{"seq":"143","trt":"IRBESARTAN","dose":"300.0","doseu":null,"dosef":"QD","route":"ORAL","start_dtc":"2024-07-17","end_dtc":"2024-07-17","visit":null},{"seq":"144","trt":"IRBESARTAN","dose":"300.0","doseu":null,"dosef":"QD","route":"ORAL","start_dtc":"2024-07-18","end_dtc":"2024-07-18","visit":null},{"seq":"145","trt":"IRBESARTAN","dose":"300.0","doseu":null,"dosef":"QD","route":"ORAL","start_dtc":"2024-07-19","end_dtc":"2024-07-19","visit":null},{"seq":"146","trt":"IRBESARTAN","dose":"300.0","doseu":null,"dosef":"QD","route":"ORAL","start_dtc":"2024-07-20","end_dtc":"2024-07-20","visit":null},{"seq":"147","trt":"IRBESARTAN","dose":"300.0","doseu":null,"dosef":"QD","route":"ORAL","start_dtc":"2024-07-21","end_dtc":"2024-07-21","visit":null},{"seq":"148","trt":"IRBESARTAN","dose":"300.0","doseu":null,"dosef":"QD","route":"ORAL","start_dtc":"2024-07-22","end_dtc":"2024-07-22","visit":null},{"seq":"149","trt":"IRBESARTAN","dose":null,"doseu":null,"dosef":"QD","route":"ORAL","start_dtc":"2024-07-23","end_dtc":"2024-07-23","visit":null},{"seq":"150","trt":"IRBESARTAN","dose":"300.0","doseu":null,"dosef":"QD","route":"ORAL","start_dtc":"2024-07-24","end_dtc":"2024-07-24","visit":null},{"seq":"151","trt":"IRBESARTAN","dose":"300.0","doseu":null,"dosef":"QD","route":"ORAL","start_dtc":"2024-07-25","end_dtc":"2024-07-25","visit":null},{"seq":"152","trt":"IRBESARTAN","dose":"300.0","doseu":null,"dosef":"QD","route":"ORAL","start_dtc":"2024-07-26","end_dtc":"2024-07-26","visit":null},{"seq":"153","trt":"IRBESARTAN","dose":"300.0","doseu":null,"dosef":"QD","route":"ORAL","start_dtc":"2024-07-27","end_dtc":"2024-07-27","visit":null},{"seq":"154","trt":"IRBESARTAN","dose":"300.0","doseu":null,"dosef":"QD","route":"ORAL","start_dtc":"2024-07-28","end_dtc":"2024-07-28","visit":null},{"seq":"155","trt":"IRBESARTAN","dose":null,"doseu":null,"dosef":"QD","route":"ORAL","start_dtc":"2024-07-29","end_dtc":"2024-07-29","visit":null},{"seq":"156","trt":"IRBESARTAN","dose":"300.0","doseu":null,"dosef":"QD","route":"ORAL","start_dtc":"2024-07-30","end_dtc":"2024-07-30","visit":null},{"seq":"157","trt":"IRBESARTAN","dose":"300.0","doseu":null,"dosef":"QD","route":"ORAL","start_dtc":"2024-07-31","end_dtc":"2024-07-31","visit":null},{"seq":"158","trt":"IRBESARTAN","dose":"300.0","doseu":null,"dosef":"QD","route":"ORAL","start_dtc":"2024-08-01","end_dtc":"2024-08-01","visit":null},{"seq":"159","trt":"IRBESARTAN","dose":"300.0","doseu":null,"dosef":"QD","route":"ORAL","start_dtc":"2024-08-02","end_dtc":"2024-08-02","visit":null},{"seq":"160","trt":"IRBESARTAN","dose":"300.0","doseu":null,"dosef":"QD","route":"ORAL","start_dtc":"2024-08-03","end_dtc":"2024-08-03","visit":null},{"seq":"161","trt":"IRBESARTAN","dose":"300.0","doseu":null,"dosef":"QD","route":"ORAL","start_dtc":"2024-08-04","end_dtc":"2024-08-04","visit":null},{"seq":"162","trt":"IRBESARTAN","dose":"300.0","doseu":null,"dosef":"QD","route":"ORAL","start_dtc":"2024-08-05","end_dtc":"2024-08-05","visit":null},{"seq":"163","trt":"IRBESARTAN","dose":"300.0","doseu":null,"dosef":"QD","route":"ORAL","start_dtc":"2024-08-06","end_dtc":"2024-08-06","visit":null},{"seq":"164","trt":"IRBESARTAN","dose":"300.0","doseu":null,"dosef":"QD","route":"ORAL","start_dtc":"2024-08-07","end_dtc":"2024-08-07","visit":null},{"seq":"165","trt":"IRBESARTAN","dose":"300.0","doseu":null,"dosef":"QD","route":"ORAL","start_dtc":"2024-08-08","end_dtc":"2024-08-08","visit":null},{"seq":"166","trt":"IRBESARTAN","dose":"300.0","doseu":null,"dosef":"QD","route":"ORAL","start_dtc":"2024-08-09","end_dtc":"2024-08-09","visit":"WEEK 24"},{"seq":"167","trt":"IRBESARTAN","dose":"300.0","doseu":null,"dosef":"QD","route":"ORAL","start_dtc":"2024-08-10","end_dtc":"2024-08-10","visit":"WEEK 24"},{"seq":"168","trt":"IRBESARTAN","dose":"300.0","doseu":null,"dosef":"QD","route":"ORAL","start_dtc":"2024-08-11","end_dtc":"2024-08-11","visit":"WEEK 24"},{"seq":"169","trt":"IRBESARTAN","dose":"300.0","doseu":null,"dosef":"QD","route":"ORAL","start_dtc":"2024-08-12","end_dtc":"2024-08-12","visit":"WEEK 24"},{"seq":"170","trt":"IRBESARTAN","dose":"300.0","doseu":null,"dosef":"QD","route":"ORAL","start_dtc":"2024-08-13","end_dtc":"2024-08-13","visit":"WEEK 24"},{"seq":"171","trt":"IRBESARTAN","dose":null,"doseu":null,"dosef":"QD","route":"ORAL","start_dtc":"2024-08-14","end_dtc":"2024-08-14","visit":"WEEK 24"},{"seq":"172","trt":"IRBESARTAN","dose":"300.0","doseu":null,"dosef":"QD","route":"ORAL","start_dtc":"2024-08-15","end_dtc":"2024-08-15","visit":"WEEK 24"},{"seq":"173","trt":"IRBESARTAN","dose":"300.0","doseu":null,"dosef":"QD","route":"ORAL","start_dtc":"2024-08-16","end_dtc":"2024-08-16","visit":null},{"seq":"174","trt":"IRBESARTAN","dose":"300.0","doseu":null,"dosef":"QD","route":"ORAL","start_dtc":"2024-08-17","end_dtc":"2024-08-17","visit":null},{"seq":"175","trt":"IRBESARTAN","dose":"300.0","doseu":null,"dosef":"QD","route":"ORAL","start_dtc":"2024-08-18","end_dtc":"2024-08-18","visit":null},{"seq":"176","trt":"IRBESARTAN","dose":"300.0","doseu":null,"dosef":"QD","route":"ORAL","start_dtc":"2024-08-19","end_dtc":"2024-08-19","visit":null},{"seq":"177","trt":"IRBESARTAN","dose":"300.0","doseu":null,"dosef":"QD","route":"ORAL","start_dtc":"2024-08-20","end_dtc":"2024-08-20","visit":null},{"seq":"178","trt":"IRBESARTAN","dose":"300.0","doseu":null,"dosef":"QD","route":"ORAL","start_dtc":"2024-08-21","end_dtc":"2024-08-21","visit":null},{"seq":"179","trt":"IRBESARTAN","dose":"300.0","doseu":null,"dosef":"QD","route":"ORAL","start_dtc":"2024-08-22","end_dtc":"2024-08-22","visit":null},{"seq":"180","trt":"IRBESARTAN","dose":"300.0","doseu":null,"dosef":"QD","route":"ORAL","start_dtc":"2024-08-23","end_dtc":"2024-08-23","visit":null},{"seq":"181","trt":"IRBESARTAN","dose":"300.0","doseu":null,"dosef":"QD","route":"ORAL","start_dtc":"2024-08-24","end_dtc":"2024-08-24","visit":null},{"seq":"182","trt":"IRBESARTAN","dose":"300.0","doseu":null,"dosef":"QD","route":"ORAL","start_dtc":"2024-08-25","end_dtc":"2024-08-25","visit":null},{"seq":"183","trt":"IRBESARTAN","dose":"300.0","doseu":null,"dosef":"QD","route":"ORAL","start_dtc":"2024-08-26","end_dtc":"2024-08-26","visit":null},{"seq":"184","trt":"IRBESARTAN","dose":null,"doseu":null,"dosef":"QD","route":"ORAL","start_dtc":"2024-08-27","end_dtc":"2024-08-27","visit":null},{"seq":"185","trt":"IRBESARTAN","dose":"300.0","doseu":null,"dosef":"QD","route":"ORAL","start_dtc":"2024-08-28","end_dtc":"2024-08-28","visit":null},{"seq":"186","trt":"IRBESARTAN","dose":"300.0","doseu":null,"dosef":"QD","route":"ORAL","start_dtc":"2024-08-29","end_dtc":"2024-08-29","visit":null},{"seq":"187","trt":"IRBESARTAN","dose":"300.0","doseu":null,"dosef":"QD","route":"ORAL","start_dtc":"2024-08-30","end_dtc":"2024-08-30","visit":null},{"seq":"188","trt":"IRBESARTAN","dose":"300.0","doseu":null,"dosef":"QD","route":"ORAL","start_dtc":"2024-08-31","end_dtc":"2024-08-31","visit":null},{"seq":"189","trt":"IRBESARTAN","dose":"300.0","doseu":null,"dosef":"QD","route":"ORAL","start_dtc":"2024-09-01","end_dtc":"2024-09-01","visit":null},{"seq":"190","trt":"IRBESARTAN","dose":"300.0","doseu":null,"dosef":"QD","route":"ORAL","start_dtc":"2024-09-02","end_dtc":"2024-09-02","visit":null},{"seq":"191","trt":"IRBESARTAN","dose":"300.0","doseu":null,"dosef":"QD","route":"ORAL","start_dtc":"2024-09-03","end_dtc":"2024-09-03","visit":null},{"seq":"192","trt":"IRBESARTAN","dose":null,"doseu":null,"dosef":"QD","route":"ORAL","start_dtc":"2024-09-04","end_dtc":"2024-09-04","visit":null},{"seq":"193","trt":"IRBESARTAN","dose":null,"doseu":null,"dosef":"QD","route":"ORAL","start_dtc":"2024-09-05","end_dtc":"2024-09-05","visit":null},{"seq":"194","trt":"IRBESARTAN","dose":"300.0","doseu":null,"dosef":"QD","route":"ORAL","start_dtc":"2024-09-06","end_dtc":"2024-09-06","visit":null},{"seq":"195","trt":"IRBESARTAN","dose":"300.0","doseu":null,"dosef":"QD","route":"ORAL","start_dtc":"2024-09-07","end_dtc":"2024-09-07","visit":null},{"seq":"196","trt":"IRBESARTAN","dose":"300.0","doseu":null,"dosef":"QD","route":"ORAL","start_dtc":"2024-09-08","end_dtc":"2024-09-08","visit":null},{"seq":"197","trt":"IRBESARTAN","dose":null,"doseu":null,"dosef":"QD","route":"ORAL","start_dtc":"2024-09-09","end_dtc":"2024-09-09","visit":null},{"seq":"198","trt":"IRBESARTAN","dose":"300.0","doseu":null,"dosef":"QD","route":"ORAL","start_dtc":"2024-09-10","end_dtc":"2024-09-10","visit":null},{"seq":"199","trt":"IRBESARTAN","dose":"300.0","doseu":null,"dosef":"QD","route":"ORAL","start_dtc":"2024-09-11","end_dtc":"2024-09-11","visit":null},{"seq":"200","trt":"IRBESARTAN","dose":null,"doseu":null,"dosef":"QD","route":"ORAL","start_dtc":"2024-09-12","end_dtc":"2024-09-12","visit":null},{"seq":"201","trt":"IRBESARTAN","dose":"300.0","doseu":null,"dosef":"QD","route":"ORAL","start_dtc":"2024-09-13","end_dtc":"2024-09-13","visit":null},{"seq":"202","trt":"IRBESARTAN","dose":"300.0","doseu":null,"dosef":"QD","route":"ORAL","start_dtc":"2024-09-14","end_dtc":"2024-09-14","visit":null},{"seq":"203","trt":"IRBESARTAN","dose":"300.0","doseu":null,"dosef":"QD","route":"ORAL","start_dtc":"2024-09-15","end_dtc":"2024-09-15","visit":null},{"seq":"204","trt":"IRBESARTAN","dose":"300.0","doseu":null,"dosef":"QD","route":"ORAL","start_dtc":"2024-09-16","end_dtc":"2024-09-16","visit":null},{"seq":"205","trt":"IRBESARTAN","dose":"300.0","doseu":null,"dosef":"QD","route":"ORAL","start_dtc":"2024-09-17","end_dtc":"2024-09-17","visit":null},{"seq":"206","trt":"IRBESARTAN","dose":"300.0","doseu":null,"dosef":"QD","route":"ORAL","start_dtc":"2024-09-18","end_dtc":"2024-09-18","visit":null},{"seq":"207","trt":"IRBESARTAN","dose":"300.0","doseu":null,"dosef":"QD","route":"ORAL","start_dtc":"2024-09-19","end_dtc":"2024-09-19","visit":null},{"seq":"208","trt":"IRBESARTAN","dose":"300.0","doseu":null,"dosef":"QD","route":"ORAL","start_dtc":"2024-09-20","end_dtc":"2024-09-20","visit":null},{"seq":"209","trt":"IRBESARTAN","dose":"300.0","doseu":null,"dosef":"QD","route":"ORAL","start_dtc":"2024-09-21","end_dtc":"2024-09-21","visit":null},{"seq":"210","trt":"IRBESARTAN","dose":"300.0","doseu":null,"dosef":"QD","route":"ORAL","start_dtc":"2024-09-22","end_dtc":"2024-09-22","visit":null},{"seq":"211","trt":"IRBESARTAN","dose":null,"doseu":null,"dosef":"QD","route":"ORAL","start_dtc":"2024-09-23","end_dtc":"2024-09-23","visit":null},{"seq":"212","trt":"IRBESARTAN","dose":"300.0","doseu":null,"dosef":"QD","route":"ORAL","start_dtc":"2024-09-24","end_dtc":"2024-09-24","visit":null},{"seq":"213","trt":"IRBESARTAN","dose":"300.0","doseu":null,"dosef":"QD","route":"ORAL","start_dtc":"2024-09-25","end_dtc":"2024-09-25","visit":null},{"seq":"214","trt":"IRBESARTAN","dose":null,"doseu":null,"dosef":"QD","route":"ORAL","start_dtc":"2024-09-26","end_dtc":"2024-09-26","visit":null},{"seq":"215","trt":"IRBESARTAN","dose":"300.0","doseu":null,"dosef":"QD","route":"ORAL","start_dtc":"2024-09-27","end_dtc":"2024-09-27","visit":null},{"seq":"216","trt":"IRBESARTAN","dose":"300.0","doseu":null,"dosef":"QD","route":"ORAL","start_dtc":"2024-09-28","end_dtc":"2024-09-28","visit":null},{"seq":"217","trt":"IRBESARTAN","dose":"300.0","doseu":null,"dosef":"QD","route":"ORAL","start_dtc":"2024-09-29","end_dtc":"2024-09-29","visit":null},{"seq":"218","trt":"IRBESARTAN","dose":"300.0","doseu":null,"dosef":"QD","route":"ORAL","start_dtc":"2024-09-30","end_dtc":"2024-09-30","visit":null},{"seq":"219","trt":"IRBESARTAN","dose":"300.0","doseu":null,"dosef":"QD","route":"ORAL","start_dtc":"2024-10-01","end_dtc":"2024-10-01","visit":null},{"seq":"220","trt":"IRBESARTAN","dose":"300.0","doseu":null,"dosef":"QD","route":"ORAL","start_dtc":"2024-10-02","end_dtc":"2024-10-02","visit":null},{"seq":"221","trt":"IRBESARTAN","dose":"300.0","doseu":null,"dosef":"QD","route":"ORAL","start_dtc":"2024-10-03","end_dtc":"2024-10-03","visit":null},{"seq":"222","trt":"IRBESARTAN","dose":"300.0","doseu":null,"dosef":"QD","route":"ORAL","start_dtc":"2024-10-04","end_dtc":"2024-10-04","visit":null},{"seq":"223","trt":"IRBESARTAN","dose":"300.0","doseu":null,"dosef":"QD","route":"ORAL","start_dtc":"2024-10-05","end_dtc":"2024-10-05","visit":null},{"seq":"224","trt":"IRBESARTAN","dose":"300.0","doseu":null,"dosef":"QD","route":"ORAL","start_dtc":"2024-10-06","end_dtc":"2024-10-06","visit":null},{"seq":"225","trt":"IRBESARTAN","dose":null,"doseu":null,"dosef":"QD","route":"ORAL","start_dtc":"2024-10-07","end_dtc":"2024-10-07","visit":null},{"seq":"226","trt":"IRBESARTAN","dose":"300.0","doseu":null,"dosef":"QD","route":"ORAL","start_dtc":"2024-10-08","end_dtc":"2024-10-08","visit":null},{"seq":"227","trt":"IRBESARTAN","dose":"300.0","doseu":null,"dosef":"QD","route":"ORAL","start_dtc":"2024-10-09","end_dtc":"2024-10-09","visit":null},{"seq":"228","trt":"IRBESARTAN","dose":null,"doseu":null,"dosef":"QD","route":"ORAL","start_dtc":"2024-10-10","end_dtc":"2024-10-10","visit":null},{"seq":"229","trt":"IRBESARTAN","dose":"300.0","doseu":null,"dosef":"QD","route":"ORAL","start_dtc":"2024-10-11","end_dtc":"2024-10-11","visit":null},{"seq":"230","trt":"IRBESARTAN","dose":"300.0","doseu":null,"dosef":"QD","route":"ORAL","start_dtc":"2024-10-12","end_dtc":"2024-10-12","visit":null},{"seq":"231","trt":"IRBESARTAN","dose":"300.0","doseu":null,"dosef":"QD","route":"ORAL","start_dtc":"2024-10-13","end_dtc":"2024-10-13","visit":null},{"seq":"232","trt":"IRBESARTAN","dose":"300.0","doseu":null,"dosef":"QD","route":"ORAL","start_dtc":"2024-10-14","end_dtc":"2024-10-14","visit":null},{"seq":"233","trt":"IRBESARTAN","dose":"300.0","doseu":null,"dosef":"QD","route":"ORAL","start_dtc":"2024-10-15","end_dtc":"2024-10-15","visit":null},{"seq":"234","trt":"IRBESARTAN","dose":"300.0","doseu":null,"dosef":"QD","route":"ORAL","start_dtc":"2024-10-16","end_dtc":"2024-10-16","visit":null},{"seq":"235","trt":"IRBESARTAN","dose":"300.0","doseu":null,"dosef":"QD","route":"ORAL","start_dtc":"2024-10-17","end_dtc":"2024-10-17","visit":null},{"seq":"236","trt":"IRBESARTAN","dose":null,"doseu":null,"dosef":"QD","route":"ORAL","start_dtc":"2024-10-18","end_dtc":"2024-10-18","visit":null},{"seq":"237","trt":"IRBESARTAN","dose":"300.0","doseu":null,"dosef":"QD","route":"ORAL","start_dtc":"2024-10-19","end_dtc":"2024-10-19","visit":null},{"seq":"238","trt":"IRBESARTAN","dose":"300.0","doseu":null,"dosef":"QD","route":"ORAL","start_dtc":"2024-10-20","end_dtc":"2024-10-20","visit":null},{"seq":"239","trt":"IRBESARTAN","dose":"300.0","doseu":null,"dosef":"QD","route":"ORAL","start_dtc":"2024-10-21","end_dtc":"2024-10-21","visit":null},{"seq":"240","trt":"IRBESARTAN","dose":"300.0","doseu":null,"dosef":"QD","route":"ORAL","start_dtc":"2024-10-22","end_dtc":"2024-10-22","visit":null},{"seq":"241","trt":"IRBESARTAN","dose":"300.0","doseu":null,"dosef":"QD","route":"ORAL","start_dtc":"2024-10-23","end_dtc":"2024-10-23","visit":null},{"seq":"242","trt":"IRBESARTAN","dose":null,"doseu":null,"dosef":"QD","route":"ORAL","start_dtc":"2024-10-24","end_dtc":"2024-10-24","visit":null},{"seq":"243","trt":"IRBESARTAN","dose":"300.0","doseu":null,"dosef":"QD","route":"ORAL","start_dtc":"2024-10-25","end_dtc":"2024-10-25","visit":null},{"seq":"244","trt":"IRBESARTAN","dose":"300.0","doseu":null,"dosef":"QD","route":"ORAL","start_dtc":"2024-10-26","end_dtc":"2024-10-26","visit":null},{"seq":"245","trt":"IRBESARTAN","dose":"300.0","doseu":null,"dosef":"QD","route":"ORAL","start_dtc":"2024-10-27","end_dtc":"2024-10-27","visit":null},{"seq":"246","trt":"IRBESARTAN","dose":"300.0","doseu":null,"dosef":"QD","route":"ORAL","start_dtc":"2024-10-28","end_dtc":"2024-10-28","visit":null},{"seq":"247","trt":"IRBESARTAN","dose":"300.0","doseu":null,"dosef":"QD","route":"ORAL","start_dtc":"2024-10-29","end_dtc":"2024-10-29","visit":null},{"seq":"248","trt":"IRBESARTAN","dose":"300.0","doseu":null,"dosef":"QD","route":"ORAL","start_dtc":"2024-10-30","end_dtc":"2024-10-30","visit":null},{"seq":"249","trt":"IRBESARTAN","dose":"300.0","doseu":null,"dosef":"QD","route":"ORAL","start_dtc":"2024-10-31","end_dtc":"2024-10-31","visit":null},{"seq":"250","trt":"IRBESARTAN","dose":"300.0","doseu":null,"dosef":"QD","route":"ORAL","start_dtc":"2024-11-01","end_dtc":"2024-11-01","visit":"WEEK 36"},{"seq":"251","trt":"IRBESARTAN","dose":"300.0","doseu":null,"dosef":"QD","route":"ORAL","start_dtc":"2024-11-02","end_dtc":"2024-11-02","visit":"WEEK 36"},{"seq":"252","trt":"IRBESARTAN","dose":"300.0","doseu":null,"dosef":"QD","route":"ORAL","start_dtc":"2024-11-03","end_dtc":"2024-11-03","visit":"WEEK 36"},{"seq":"253","trt":"IRBESARTAN","dose":"300.0","doseu":null,"dosef":"QD","route":"ORAL","start_dtc":"2024-11-04","end_dtc":"2024-11-04","visit":"WEEK 36"},{"seq":"254","trt":"IRBESARTAN","dose":"300.0","doseu":null,"dosef":"QD","route":"ORAL","start_dtc":"2024-11-05","end_dtc":"2024-11-05","visit":"WEEK 36"},{"seq":"255","trt":"IRBESARTAN","dose":"300.0","doseu":null,"dosef":"QD","route":"ORAL","start_dtc":"2024-11-06","end_dtc":"2024-11-06","visit":"WEEK 36"},{"seq":"256","trt":"IRBESARTAN","dose":"300.0","doseu":null,"dosef":"QD","route":"ORAL","start_dtc":"2024-11-07","end_dtc":"2024-11-07","visit":"WEEK 36"},{"seq":"257","trt":"IRBESARTAN","dose":"300.0","doseu":null,"dosef":"QD","route":"ORAL","start_dtc":"2024-11-08","end_dtc":"2024-11-08","visit":null},{"seq":"258","trt":"IRBESARTAN","dose":null,"doseu":null,"dosef":"QD","route":"ORAL","start_dtc":"2024-11-09","end_dtc":"2024-11-09","visit":null},{"seq":"259","trt":"IRBESARTAN","dose":"300.0","doseu":null,"dosef":"QD","route":"ORAL","start_dtc":"2024-11-10","end_dtc":"2024-11-10","visit":null},{"seq":"260","trt":"IRBESARTAN","dose":null,"doseu":null,"dosef":"QD","route":"ORAL","start_dtc":"2024-11-11","end_dtc":"2024-11-11","visit":null},{"seq":"261","trt":"IRBESARTAN","dose":"300.0","doseu":null,"dosef":"QD","route":"ORAL","start_dtc":"2024-11-12","end_dtc":"2024-11-12","visit":null},{"seq":"262","trt":"IRBESARTAN","dose":"300.0","doseu":null,"dosef":"QD","route":"ORAL","start_dtc":"2024-11-13","end_dtc":"2024-11-13","visit":null},{"seq":"263","trt":"IRBESARTAN","dose":"300.0","doseu":null,"dosef":"QD","route":"ORAL","start_dtc":"2024-11-14","end_dtc":"2024-11-14","visit":null},{"seq":"264","trt":"IRBESARTAN","dose":"300.0","doseu":null,"dosef":"QD","route":"ORAL","start_dtc":"2024-11-15","end_dtc":"2024-11-15","visit":null},{"seq":"265","trt":"IRBESARTAN","dose":"300.0","doseu":null,"dosef":"QD","route":"ORAL","start_dtc":"2024-11-16","end_dtc":"2024-11-16","visit":null},{"seq":"266","trt":"IRBESARTAN","dose":"300.0","doseu":null,"dosef":"QD","route":"ORAL","start_dtc":"2024-11-17","end_dtc":"2024-11-17","visit":null},{"seq":"267","trt":"IRBESARTAN","dose":"300.0","doseu":null,"dosef":"QD","route":"ORAL","start_dtc":"2024-11-18","end_dtc":"2024-11-18","visit":null},{"seq":"268","trt":"IRBESARTAN","dose":"300.0","doseu":null,"dosef":"QD","route":"ORAL","start_dtc":"2024-11-19","end_dtc":"2024-11-19","visit":null},{"seq":"269","trt":"IRBESARTAN","dose":"300.0","doseu":null,"dosef":"QD","route":"ORAL","start_dtc":"2024-11-20","end_dtc":"2024-11-20","visit":null},{"seq":"270","trt":"IRBESARTAN","dose":"300.0","doseu":null,"dosef":"QD","route":"ORAL","start_dtc":"2024-11-21","end_dtc":"2024-11-21","visit":null},{"seq":"271","trt":"IRBESARTAN","dose":"300.0","doseu":null,"dosef":"QD","route":"ORAL","start_dtc":"2024-11-22","end_dtc":"2024-11-22","visit":null},{"seq":"272","trt":"IRBESARTAN","dose":null,"doseu":null,"dosef":"QD","route":"ORAL","start_dtc":"2024-11-23","end_dtc":"2024-11-23","visit":null},{"seq":"273","trt":"IRBESARTAN","dose":"300.0","doseu":null,"dosef":"QD","route":"ORAL","start_dtc":"2024-11-24","end_dtc":"2024-11-24","visit":null},{"seq":"274","trt":"IRBESARTAN","dose":"300.0","doseu":null,"dosef":"QD","route":"ORAL","start_dtc":"2024-11-25","end_dtc":"2024-11-25","visit":null},{"seq":"275","trt":"IRBESARTAN","dose":"300.0","doseu":null,"dosef":"QD","route":"ORAL","start_dtc":"2024-11-26","end_dtc":"2024-11-26","visit":null},{"seq":"276","trt":"IRBESARTAN","dose":"300.0","doseu":null,"dosef":"QD","route":"ORAL","start_dtc":"2024-11-27","end_dtc":"2024-11-27","visit":null},{"seq":"277","trt":"IRBESARTAN","dose":"300.0","doseu":null,"dosef":"QD","route":"ORAL","start_dtc":"2024-11-28","end_dtc":"2024-11-28","visit":null},{"seq":"278","trt":"IRBESARTAN","dose":"300.0","doseu":null,"dosef":"QD","route":"ORAL","start_dtc":"2024-11-29","end_dtc":"2024-11-29","visit":null},{"seq":"279","trt":"IRBESARTAN","dose":"300.0","doseu":null,"dosef":"QD","route":"ORAL","start_dtc":"2024-11-30","end_dtc":"2024-11-30","visit":null},{"seq":"280","trt":"IRBESARTAN","dose":"300.0","doseu":null,"dosef":"QD","route":"ORAL","start_dtc":"2024-12-01","end_dtc":"2024-12-01","visit":null},{"seq":"281","trt":"IRBESARTAN","dose":"300.0","doseu":null,"dosef":"QD","route":"ORAL","start_dtc":"2024-12-02","end_dtc":"2024-12-02","visit":null},{"seq":"282","trt":"IRBESARTAN","dose":"300.0","doseu":null,"dosef":"QD","route":"ORAL","start_dtc":"2024-12-03","end_dtc":"2024-12-03","visit":null},{"seq":"283","trt":"IRBESARTAN","dose":"300.0","doseu":null,"dosef":"QD","route":"ORAL","start_dtc":"2024-12-04","end_dtc":"2024-12-04","visit":null},{"seq":"284","trt":"IRBESARTAN","dose":"300.0","doseu":null,"dosef":"QD","route":"ORAL","start_dtc":"2024-12-05","end_dtc":"2024-12-05","visit":null},{"seq":"285","trt":"IRBESARTAN","dose":"300.0","doseu":null,"dosef":"QD","route":"ORAL","start_dtc":"2024-12-06","end_dtc":"2024-12-06","visit":null},{"seq":"286","trt":"IRBESARTAN","dose":"300.0","doseu":null,"dosef":"QD","route":"ORAL","start_dtc":"2024-12-07","end_dtc":"2024-12-07","visit":null},{"seq":"287","trt":"IRBESARTAN","dose":"300.0","doseu":null,"dosef":"QD","route":"ORAL","start_dtc":"2024-12-08","end_dtc":"2024-12-08","visit":null},{"seq":"288","trt":"IRBESARTAN","dose":"300.0","doseu":null,"dosef":"QD","route":"ORAL","start_dtc":"2024-12-09","end_dtc":"2024-12-09","visit":null},{"seq":"289","trt":"IRBESARTAN","dose":"300.0","doseu":null,"dosef":"QD","route":"ORAL","start_dtc":"2024-12-10","end_dtc":"2024-12-10","visit":null},{"seq":"290","trt":"IRBESARTAN","dose":"300.0","doseu":null,"dosef":"QD","route":"ORAL","start_dtc":"2024-12-11","end_dtc":"2024-12-11","visit":null},{"seq":"291","trt":"IRBESARTAN","dose":"300.0","doseu":null,"dosef":"QD","route":"ORAL","start_dtc":"2024-12-12","end_dtc":"2024-12-12","visit":null},{"seq":"292","trt":"IRBESARTAN","dose":"300.0","doseu":null,"dosef":"QD","route":"ORAL","start_dtc":"2024-12-13","end_dtc":"2024-12-13","visit":null},{"seq":"293","trt":"IRBESARTAN","dose":null,"doseu":null,"dosef":"QD","route":"ORAL","start_dtc":"2024-12-14","end_dtc":"2024-12-14","visit":null},{"seq":"294","trt":"IRBESARTAN","dose":"300.0","doseu":null,"dosef":"QD","route":"ORAL","start_dtc":"2024-12-15","end_dtc":"2024-12-15","visit":null},{"seq":"295","trt":"IRBESARTAN","dose":"300.0","doseu":null,"dosef":"QD","route":"ORAL","start_dtc":"2024-12-16","end_dtc":"2024-12-16","visit":null},{"seq":"296","trt":"IRBESARTAN","dose":"300.0","doseu":null,"dosef":"QD","route":"ORAL","start_dtc":"2024-12-17","end_dtc":"2024-12-17","visit":null},{"seq":"297","trt":"IRBESARTAN","dose":null,"doseu":null,"dosef":"QD","route":"ORAL","start_dtc":"2024-12-18","end_dtc":"2024-12-18","visit":null},{"seq":"298","trt":"IRBESARTAN","dose":"300.0","doseu":null,"dosef":"QD","route":"ORAL","start_dtc":"2024-12-19","end_dtc":"2024-12-19","visit":null},{"seq":"299","trt":"IRBESARTAN","dose":"300.0","doseu":null,"dosef":"QD","route":"ORAL","start_dtc":"2024-12-20","end_dtc":"2024-12-20","visit":null},{"seq":"300","trt":"IRBESARTAN","dose":"300.0","doseu":null,"dosef":"QD","route":"ORAL","start_dtc":"2024-12-21","end_dtc":"2024-12-21","visit":null},{"seq":"301","trt":"IRBESARTAN","dose":"300.0","doseu":null,"dosef":"QD","route":"ORAL","start_dtc":"2024-12-22","end_dtc":"2024-12-22","visit":null},{"seq":"302","trt":"IRBESARTAN","dose":"300.0","doseu":null,"dosef":"QD","route":"ORAL","start_dtc":"2024-12-23","end_dtc":"2024-12-23","visit":null},{"seq":"303","trt":"IRBESARTAN","dose":null,"doseu":null,"dosef":"QD","route":"ORAL","start_dtc":"2024-12-24","end_dtc":"2024-12-24","visit":null},{"seq":"304","trt":"IRBESARTAN","dose":null,"doseu":null,"dosef":"QD","route":"ORAL","start_dtc":"2024-12-25","end_dtc":"2024-12-25","visit":null},{"seq":"305","trt":"IRBESARTAN","dose":"300.0","doseu":null,"dosef":"QD","route":"ORAL","start_dtc":"2024-12-26","end_dtc":"2024-12-26","visit":null},{"seq":"306","trt":"IRBESARTAN","dose":null,"doseu":null,"dosef":"QD","route":"ORAL","start_dtc":"2024-12-27","end_dtc":"2024-12-27","visit":null},{"seq":"307","trt":"IRBESARTAN","dose":"300.0","doseu":null,"dosef":"QD","route":"ORAL","start_dtc":"2024-12-28","end_dtc":"2024-12-28","visit":null},{"seq":"308","trt":"IRBESARTAN","dose":"300.0","doseu":null,"dosef":"QD","route":"ORAL","start_dtc":"2024-12-29","end_dtc":"2024-12-29","visit":null},{"seq":"309","trt":"IRBESARTAN","dose":"300.0","doseu":null,"dosef":"QD","route":"ORAL","start_dtc":"2024-12-30","end_dtc":"2024-12-30","visit":null},{"seq":"310","trt":"IRBESARTAN","dose":"300.0","doseu":null,"dosef":"QD","route":"ORAL","start_dtc":"2024-12-31","end_dtc":"2024-12-31","visit":null},{"seq":"311","trt":"IRBESARTAN","dose":"300.0","doseu":null,"dosef":"QD","route":"ORAL","start_dtc":"2025-01-01","end_dtc":"2025-01-01","visit":null},{"seq":"312","trt":"IRBESARTAN","dose":"300.0","doseu":null,"dosef":"QD","route":"ORAL","start_dtc":"2025-01-02","end_dtc":"2025-01-02","visit":null},{"seq":"313","trt":"IRBESARTAN","dose":"300.0","doseu":null,"dosef":"QD","route":"ORAL","start_dtc":"2025-01-03","end_dtc":"2025-01-03","visit":null},{"seq":"314","trt":"IRBESARTAN","dose":"300.0","doseu":null,"dosef":"QD","route":"ORAL","start_dtc":"2025-01-04","end_dtc":"2025-01-04","visit":null},{"seq":"315","trt":"IRBESARTAN","dose":"300.0","doseu":null,"dosef":"QD","route":"ORAL","start_dtc":"2025-01-05","end_dtc":"2025-01-05","visit":null},{"seq":"316","trt":"IRBESARTAN","dose":"300.0","doseu":null,"dosef":"QD","route":"ORAL","start_dtc":"2025-01-06","end_dtc":"2025-01-06","visit":null},{"seq":"317","trt":"IRBESARTAN","dose":"300.0","doseu":null,"dosef":"QD","route":"ORAL","start_dtc":"2025-01-07","end_dtc":"2025-01-07","visit":null},{"seq":"318","trt":"IRBESARTAN","dose":"300.0","doseu":null,"dosef":"QD","route":"ORAL","start_dtc":"2025-01-08","end_dtc":"2025-01-08","visit":null},{"seq":"319","trt":"IRBESARTAN","dose":"300.0","doseu":null,"dosef":"QD","route":"ORAL","start_dtc":"2025-01-09","end_dtc":"2025-01-09","visit":null},{"seq":"320","trt":"IRBESARTAN","dose":"300.0","doseu":null,"dosef":"QD","route":"ORAL","start_dtc":"2025-01-10","end_dtc":"2025-01-10","visit":null},{"seq":"321","trt":"IRBESARTAN","dose":"300.0","doseu":null,"dosef":"QD","route":"ORAL","start_dtc":"2025-01-11","end_dtc":"2025-01-11","visit":null},{"seq":"322","trt":"IRBESARTAN","dose":"300.0","doseu":null,"dosef":"QD","route":"ORAL","start_dtc":"2025-01-12","end_dtc":"2025-01-12","visit":null},{"seq":"323","trt":"IRBESARTAN","dose":"300.0","doseu":null,"dosef":"QD","route":"ORAL","start_dtc":"2025-01-13","end_dtc":"2025-01-13","visit":null},{"seq":"324","trt":"IRBESARTAN","dose":"300.0","doseu":null,"dosef":"QD","route":"ORAL","start_dtc":"2025-01-14","end_dtc":"2025-01-14","visit":null},{"seq":"325","trt":"IRBESARTAN","dose":"300.0","doseu":null,"dosef":"QD","route":"ORAL","start_dtc":"2025-01-15","end_dtc":"2025-01-15","visit":null},{"seq":"326","trt":"IRBESARTAN","dose":"300.0","doseu":null,"dosef":"QD","route":"ORAL","start_dtc":"2025-01-16","end_dtc":"2025-01-16","visit":null},{"seq":"327","trt":"IRBESARTAN","dose":"300.0","doseu":null,"dosef":"QD","route":"ORAL","start_dtc":"2025-01-17","end_dtc":"2025-01-17","visit":null},{"seq":"328","trt":"IRBESARTAN","dose":"300.0","doseu":null,"dosef":"QD","route":"ORAL","start_dtc":"2025-01-18","end_dtc":"2025-01-18","visit":null},{"seq":"329","trt":"IRBESARTAN","dose":"300.0","doseu":null,"dosef":"QD","route":"ORAL","start_dtc":"2025-01-19","end_dtc":"2025-01-19","visit":null},{"seq":"330","trt":"IRBESARTAN","dose":"300.0","doseu":null,"dosef":"QD","route":"ORAL","start_dtc":"2025-01-20","end_dtc":"2025-01-20","visit":null},{"seq":"331","trt":"IRBESARTAN","dose":null,"doseu":null,"dosef":"QD","route":"ORAL","start_dtc":"2025-01-21","end_dtc":"2025-01-21","visit":null},{"seq":"332","trt":"IRBESARTAN","dose":"300.0","doseu":null,"dosef":"QD","route":"ORAL","start_dtc":"2025-01-22","end_dtc":"2025-01-22","visit":null},{"seq":"333","trt":"IRBESARTAN","dose":"300.0","doseu":null,"dosef":"QD","route":"ORAL","start_dtc":"2025-01-23","end_dtc":"2025-01-23","visit":null},{"seq":"334","trt":"IRBESARTAN","dose":null,"doseu":null,"dosef":"QD","route":"ORAL","start_dtc":"2025-01-24","end_dtc":"2025-01-24","visit":null},{"seq":"335","trt":"IRBESARTAN","dose":"300.0","doseu":null,"dosef":"QD","route":"ORAL","start_dtc":"2025-01-25","end_dtc":"2025-01-25","visit":null},{"seq":"336","trt":"IRBESARTAN","dose":"300.0","doseu":null,"dosef":"QD","route":"ORAL","start_dtc":"2025-01-26","end_dtc":"2025-01-26","visit":null},{"seq":"337","trt":"IRBESARTAN","dose":"300.0","doseu":null,"dosef":"QD","route":"ORAL","start_dtc":"2025-01-27","end_dtc":"2025-01-27","visit":null},{"seq":"338","trt":"IRBESARTAN","dose":"300.0","doseu":null,"dosef":"QD","route":"ORAL","start_dtc":"2025-01-28","end_dtc":"2025-01-28","visit":null},{"seq":"339","trt":"IRBESARTAN","dose":"300.0","doseu":null,"dosef":"QD","route":"ORAL","start_dtc":"2025-01-29","end_dtc":"2025-01-29","visit":null},{"seq":"340","trt":"IRBESARTAN","dose":"300.0","doseu":null,"dosef":"QD","route":"ORAL","start_dtc":"2025-01-30","end_dtc":"2025-01-30","visit":null},{"seq":"341","trt":"IRBESARTAN","dose":null,"doseu":null,"dosef":"QD","route":"ORAL","start_dtc":"2025-01-31","end_dtc":"2025-01-31","visit":null},{"seq":"342","trt":"IRBESARTAN","dose":"300.0","doseu":null,"dosef":"QD","route":"ORAL","start_dtc":"2025-02-01","end_dtc":"2025-02-01","visit":null},{"seq":"343","trt":"IRBESARTAN","dose":"300.0","doseu":null,"dosef":"QD","route":"ORAL","start_dtc":"2025-02-02","end_dtc":"2025-02-02","visit":null},{"seq":"344","trt":"IRBESARTAN","dose":"300.0","doseu":null,"dosef":"QD","route":"ORAL","start_dtc":"2025-02-03","end_dtc":"2025-02-03","visit":null},{"seq":"345","trt":"IRBESARTAN","dose":"300.0","doseu":null,"dosef":"QD","route":"ORAL","start_dtc":"2025-02-04","end_dtc":"2025-02-04","visit":null},{"seq":"346","trt":"IRBESARTAN","dose":"300.0","doseu":null,"dosef":"QD","route":"ORAL","start_dtc":"2025-02-05","end_dtc":"2025-02-05","visit":null},{"seq":"347","trt":"IRBESARTAN","dose":"300.0","doseu":null,"dosef":"QD","route":"ORAL","start_dtc":"2025-02-06","end_dtc":"2025-02-06","visit":null},{"seq":"348","trt":"IRBESARTAN","dose":"300.0","doseu":null,"dosef":"QD","route":"ORAL","start_dtc":"2025-02-07","end_dtc":"2025-02-07","visit":null},{"seq":"349","trt":"IRBESARTAN","dose":"300.0","doseu":null,"dosef":"QD","route":"ORAL","start_dtc":"2025-02-08","end_dtc":"2025-02-08","visit":null},{"seq":"350","trt":"IRBESARTAN","dose":"300.0","doseu":null,"dosef":"QD","route":"ORAL","start_dtc":"2025-02-09","end_dtc":"2025-02-09","visit":null},{"seq":"351","trt":"IRBESARTAN","dose":"300.0","doseu":null,"dosef":"QD","route":"ORAL","start_dtc":"2025-02-10","end_dtc":"2025-02-10","visit":null},{"seq":"352","trt":"IRBESARTAN","dose":"300.0","doseu":null,"dosef":"QD","route":"ORAL","start_dtc":"2025-02-11","end_dtc":"2025-02-11","visit":null},{"seq":"353","trt":"IRBESARTAN","dose":"300.0","doseu":null,"dosef":"QD","route":"ORAL","start_dtc":"2025-02-12","end_dtc":"2025-02-12","visit":null},{"seq":"354","trt":"IRBESARTAN","dose":"300.0","doseu":null,"dosef":"QD","route":"ORAL","start_dtc":"2025-02-13","end_dtc":"2025-02-13","visit":null},{"seq":"355","trt":"IRBESARTAN","dose":"300.0","doseu":null,"dosef":"QD","route":"ORAL","start_dtc":"2025-02-14","end_dtc":"2025-02-14","visit":null},{"seq":"356","trt":"IRBESARTAN","dose":"300.0","doseu":null,"dosef":"QD","route":"ORAL","start_dtc":"2025-02-15","end_dtc":"2025-02-15","visit":null},{"seq":"357","trt":"IRBESARTAN","dose":"300.0","doseu":null,"dosef":"QD","route":"ORAL","start_dtc":"2025-02-16","end_dtc":"2025-02-16","visit":null},{"seq":"358","trt":"IRBESARTAN","dose":"300.0","doseu":null,"dosef":"QD","route":"ORAL","start_dtc":"2025-02-17","end_dtc":"2025-02-17","visit":null},{"seq":"359","trt":"IRBESARTAN","dose":"300.0","doseu":null,"dosef":"QD","route":"ORAL","start_dtc":"2025-02-18","end_dtc":"2025-02-18","visit":null},{"seq":"360","trt":"IRBESARTAN","dose":"300.0","doseu":null,"dosef":"QD","route":"ORAL","start_dtc":"2025-02-19","end_dtc":"2025-02-19","visit":null},{"seq":"361","trt":"IRBESARTAN","dose":"300.0","doseu":null,"dosef":"QD","route":"ORAL","start_dtc":"2025-02-20","end_dtc":"2025-02-20","visit":null},{"seq":"362","trt":"IRBESARTAN","dose":"300.0","doseu":null,"dosef":"QD","route":"ORAL","start_dtc":"2025-02-21","end_dtc":"2025-02-21","visit":null},{"seq":"363","trt":"IRBESARTAN","dose":"300.0","doseu":null,"dosef":"QD","route":"ORAL","start_dtc":"2025-02-22","end_dtc":"2025-02-22","visit":null},{"seq":"364","trt":"IRBESARTAN","dose":null,"doseu":null,"dosef":"QD","route":"ORAL","start_dtc":"2025-02-23","end_dtc":"2025-02-23","visit":null},{"seq":"365","trt":"IRBESARTAN","dose":"300.0","doseu":null,"dosef":"QD","route":"ORAL","start_dtc":"2025-02-24","end_dtc":"2025-02-24","visit":null},{"seq":"366","trt":"IRBESARTAN","dose":"300.0","doseu":null,"dosef":"QD","route":"ORAL","start_dtc":"2025-02-25","end_dtc":"2025-02-25","visit":null},{"seq":"367","trt":"IRBESARTAN","dose":"300.0","doseu":null,"dosef":"QD","route":"ORAL","start_dtc":"2025-02-26","end_dtc":"2025-02-26","visit":null},{"seq":"368","trt":"IRBESARTAN","dose":"300.0","doseu":null,"dosef":"QD","route":"ORAL","start_dtc":"2025-02-27","end_dtc":"2025-02-27","visit":null},{"seq":"369","trt":"IRBESARTAN","dose":"300.0","doseu":null,"dosef":"QD","route":"ORAL","start_dtc":"2025-02-28","end_dtc":"2025-02-28","visit":null},{"seq":"370","trt":"IRBESARTAN","dose":"300.0","doseu":null,"dosef":"QD","route":"ORAL","start_dtc":"2025-03-01","end_dtc":"2025-03-01","visit":null},{"seq":"371","trt":"IRBESARTAN","dose":"300.0","doseu":null,"dosef":"QD","route":"ORAL","start_dtc":"2025-03-02","end_dtc":"2025-03-02","visit":null},{"seq":"372","trt":"IRBESARTAN","dose":"300.0","doseu":null,"dosef":"QD","route":"ORAL","start_dtc":"2025-03-03","end_dtc":"2025-03-03","visit":null},{"seq":"373","trt":"IRBESARTAN","dose":"300.0","doseu":null,"dosef":"QD","route":"ORAL","start_dtc":"2025-03-04","end_dtc":"2025-03-04","visit":null},{"seq":"374","trt":"IRBESARTAN","dose":"300.0","doseu":null,"dosef":"QD","route":"ORAL","start_dtc":"2025-03-05","end_dtc":"2025-03-05","visit":null},{"seq":"375","trt":"IRBESARTAN","dose":"300.0","doseu":null,"dosef":"QD","route":"ORAL","start_dtc":"2025-03-06","end_dtc":"2025-03-06","visit":null},{"seq":"376","trt":"IRBESARTAN","dose":"300.0","doseu":null,"dosef":"QD","route":"ORAL","start_dtc":"2025-03-07","end_dtc":"2025-03-07","visit":null},{"seq":"377","trt":"IRBESARTAN","dose":"300.0","doseu":null,"dosef":"QD","route":"ORAL","start_dtc":"2025-03-08","end_dtc":"2025-03-08","visit":null},{"seq":"378","trt":"IRBESARTAN","dose":"300.0","doseu":null,"dosef":"QD","route":"ORAL","start_dtc":"2025-03-09","end_dtc":"2025-03-09","visit":null},{"seq":"379","trt":"IRBESARTAN","dose":"300.0","doseu":null,"dosef":"QD","route":"ORAL","start_dtc":"2025-03-10","end_dtc":"2025-03-10","visit":null},{"seq":"380","trt":"IRBESARTAN","dose":null,"doseu":null,"dosef":"QD","route":"ORAL","start_dtc":"2025-03-11","end_dtc":"2025-03-11","visit":null},{"seq":"381","trt":"IRBESARTAN","dose":"300.0","doseu":null,"dosef":"QD","route":"ORAL","start_dtc":"2025-03-12","end_dtc":"2025-03-12","visit":null},{"seq":"382","trt":"IRBESARTAN","dose":"300.0","doseu":null,"dosef":"QD","route":"ORAL","start_dtc":"2025-03-13","end_dtc":"2025-03-13","visit":null},{"seq":"383","trt":"IRBESARTAN","dose":"300.0","doseu":null,"dosef":"QD","route":"ORAL","start_dtc":"2025-03-14","end_dtc":"2025-03-14","visit":null},{"seq":"384","trt":"IRBESARTAN","dose":"300.0","doseu":null,"dosef":"QD","route":"ORAL","start_dtc":"2025-03-15","end_dtc":"2025-03-15","visit":null},{"seq":"385","trt":"IRBESARTAN","dose":null,"doseu":null,"dosef":"QD","route":"ORAL","start_dtc":"2025-03-16","end_dtc":"2025-03-16","visit":null},{"seq":"386","trt":"IRBESARTAN","dose":"300.0","doseu":null,"dosef":"QD","route":"ORAL","start_dtc":"2025-03-17","end_dtc":"2025-03-17","visit":null},{"seq":"387","trt":"IRBESARTAN","dose":"300.0","doseu":null,"dosef":"QD","route":"ORAL","start_dtc":"2025-03-18","end_dtc":"2025-03-18","visit":null},{"seq":"388","trt":"IRBESARTAN","dose":"300.0","doseu":null,"dosef":"QD","route":"ORAL","start_dtc":"2025-03-19","end_dtc":"2025-03-19","visit":null},{"seq":"389","trt":"IRBESARTAN","dose":"300.0","doseu":null,"dosef":"QD","route":"ORAL","start_dtc":"2025-03-20","end_dtc":"2025-03-20","visit":null},{"seq":"390","trt":"IRBESARTAN","dose":"300.0","doseu":null,"dosef":"QD","route":"ORAL","start_dtc":"2025-03-21","end_dtc":"2025-03-21","visit":null},{"seq":"391","trt":"IRBESARTAN","dose":"300.0","doseu":null,"dosef":"QD","route":"ORAL","start_dtc":"2025-03-22","end_dtc":"2025-03-22","visit":null},{"seq":"392","trt":"IRBESARTAN","dose":"300.0","doseu":null,"dosef":"QD","route":"ORAL","start_dtc":"2025-03-23","end_dtc":"2025-03-23","visit":null},{"seq":"393","trt":"IRBESARTAN","dose":"300.0","doseu":null,"dosef":"QD","route":"ORAL","start_dtc":"2025-03-24","end_dtc":"2025-03-24","visit":null},{"seq":"394","trt":"IRBESARTAN","dose":"300.0","doseu":null,"dosef":"QD","route":"ORAL","start_dtc":"2025-03-25","end_dtc":"2025-03-25","visit":null},{"seq":"395","trt":"IRBESARTAN","dose":"300.0","doseu":null,"dosef":"QD","route":"ORAL","start_dtc":"2025-03-26","end_dtc":"2025-03-26","visit":null},{"seq":"396","trt":"IRBESARTAN","dose":"300.0","doseu":null,"dosef":"QD","route":"ORAL","start_dtc":"2025-03-27","end_dtc":"2025-03-27","visit":null},{"seq":"397","trt":"IRBESARTAN","dose":null,"doseu":null,"dosef":"QD","route":"ORAL","start_dtc":"2025-03-28","end_dtc":"2025-03-28","visit":null},{"seq":"398","trt":"IRBESARTAN","dose":"300.0","doseu":null,"dosef":"QD","route":"ORAL","start_dtc":"2025-03-29","end_dtc":"2025-03-29","visit":null},{"seq":"399","trt":"IRBESARTAN","dose":"300.0","doseu":null,"dosef":"QD","route":"ORAL","start_dtc":"2025-03-30","end_dtc":"2025-03-30","visit":null},{"seq":"400","trt":"IRBESARTAN","dose":"300.0","doseu":null,"dosef":"QD","route":"ORAL","start_dtc":"2025-03-31","end_dtc":"2025-03-31","visit":null},{"seq":"401","trt":"IRBESARTAN","dose":"300.0","doseu":null,"dosef":"QD","route":"ORAL","start_dtc":"2025-04-01","end_dtc":"2025-04-01","visit":null},{"seq":"402","trt":"IRBESARTAN","dose":"300.0","doseu":null,"dosef":"QD","route":"ORAL","start_dtc":"2025-04-02","end_dtc":"2025-04-02","visit":null},{"seq":"403","trt":"IRBESARTAN","dose":"300.0","doseu":null,"dosef":"QD","route":"ORAL","start_dtc":"2025-04-03","end_dtc":"2025-04-03","visit":null},{"seq":"404","trt":"IRBESARTAN","dose":"300.0","doseu":null,"dosef":"QD","route":"ORAL","start_dtc":"2025-04-04","end_dtc":"2025-04-04","visit":"WEEK 58"},{"seq":"405","trt":"IRBESARTAN","dose":"300.0","doseu":null,"dosef":"QD","route":"ORAL","start_dtc":"2025-04-05","end_dtc":"2025-04-05","visit":"WEEK 58"},{"seq":"406","trt":"IRBESARTAN","dose":"300.0","doseu":null,"dosef":"QD","route":"ORAL","start_dtc":"2025-04-06","end_dtc":"2025-04-06","visit":"WEEK 58"},{"seq":"407","trt":"IRBESARTAN","dose":"300.0","doseu":null,"dosef":"QD","route":"ORAL","start_dtc":"2025-04-07","end_dtc":"2025-04-07","visit":"WEEK 58"},{"seq":"408","trt":"IRBESARTAN","dose":"300.0","doseu":null,"dosef":"QD","route":"ORAL","start_dtc":"2025-04-08","end_dtc":"2025-04-08","visit":"WEEK 58"},{"seq":"409","trt":"IRBESARTAN","dose":"300.0","doseu":null,"dosef":"QD","route":"ORAL","start_dtc":"2025-04-09","end_dtc":"2025-04-09","visit":"WEEK 58"},{"seq":"410","trt":"IRBESARTAN","dose":"300.0","doseu":null,"dosef":"QD","route":"ORAL","start_dtc":"2025-04-10","end_dtc":"2025-04-10","visit":"WEEK 58"},{"seq":"411","trt":"IRBESARTAN","dose":"300.0","doseu":null,"dosef":"QD","route":"ORAL","start_dtc":"2025-04-11","end_dtc":"2025-04-11","visit":null},{"seq":"412","trt":"IRBESARTAN","dose":"300.0","doseu":null,"dosef":"QD","route":"ORAL","start_dtc":"2025-04-12","end_dtc":"2025-04-12","visit":null},{"seq":"413","trt":"IRBESARTAN","dose":"300.0","doseu":null,"dosef":"QD","route":"ORAL","start_dtc":"2025-04-13","end_dtc":"2025-04-13","visit":null},{"seq":"414","trt":"IRBESARTAN","dose":"300.0","doseu":null,"dosef":"QD","route":"ORAL","start_dtc":"2025-04-14","end_dtc":"2025-04-14","visit":null},{"seq":"415","trt":"IRBESARTAN","dose":"300.0","doseu":null,"dosef":"QD","route":"ORAL","start_dtc":"2025-04-15","end_dtc":"2025-04-15","visit":null},{"seq":"416","trt":"IRBESARTAN","dose":"300.0","doseu":null,"dosef":"QD","route":"ORAL","start_dtc":"2025-04-16","end_dtc":"2025-04-16","visit":null},{"seq":"417","trt":"IRBESARTAN","dose":null,"doseu":null,"dosef":"QD","route":"ORAL","start_dtc":"2025-04-17","end_dtc":"2025-04-17","visit":null},{"seq":"418","trt":"IRBESARTAN","dose":"300.0","doseu":null,"dosef":"QD","route":"ORAL","start_dtc":"2025-04-18","end_dtc":"2025-04-18","visit":null},{"seq":"419","trt":"IRBESARTAN","dose":"300.0","doseu":null,"dosef":"QD","route":"ORAL","start_dtc":"2025-04-19","end_dtc":"2025-04-19","visit":null},{"seq":"420","trt":"IRBESARTAN","dose":"300.0","doseu":null,"dosef":"QD","route":"ORAL","start_dtc":"2025-04-20","end_dtc":"2025-04-20","visit":null},{"seq":"421","trt":"IRBESARTAN","dose":null,"doseu":null,"dosef":"QD","route":"ORAL","start_dtc":"2025-04-21","end_dtc":"2025-04-21","visit":null},{"seq":"422","trt":"IRBESARTAN","dose":"300.0","doseu":null,"dosef":"QD","route":"ORAL","start_dtc":"2025-04-22","end_dtc":"2025-04-22","visit":null},{"seq":"423","trt":"IRBESARTAN","dose":"300.0","doseu":null,"dosef":"QD","route":"ORAL","start_dtc":"2025-04-23","end_dtc":"2025-04-23","visit":null},{"seq":"424","trt":"IRBESARTAN","dose":"300.0","doseu":null,"dosef":"QD","route":"ORAL","start_dtc":"2025-04-24","end_dtc":"2025-04-24","visit":null},{"seq":"425","trt":"IRBESARTAN","dose":"300.0","doseu":null,"dosef":"QD","route":"ORAL","start_dtc":"2025-04-25","end_dtc":"2025-04-25","visit":null},{"seq":"426","trt":"IRBESARTAN","dose":"300.0","doseu":null,"dosef":"QD","route":"ORAL","start_dtc":"2025-04-26","end_dtc":"2025-04-26","visit":null},{"seq":"427","trt":"IRBESARTAN","dose":"300.0","doseu":null,"dosef":"QD","route":"ORAL","start_dtc":"2025-04-27","end_dtc":"2025-04-27","visit":null},{"seq":"428","trt":"IRBESARTAN","dose":"300.0","doseu":null,"dosef":"QD","route":"ORAL","start_dtc":"2025-04-28","end_dtc":"2025-04-28","visit":null},{"seq":"429","trt":"IRBESARTAN","dose":"300.0","doseu":null,"dosef":"QD","route":"ORAL","start_dtc":"2025-04-29","end_dtc":"2025-04-29","visit":null},{"seq":"430","trt":"IRBESARTAN","dose":null,"doseu":null,"dosef":"QD","route":"ORAL","start_dtc":"2025-04-30","end_dtc":"2025-04-30","visit":null},{"seq":"431","trt":"IRBESARTAN","dose":"300.0","doseu":null,"dosef":"QD","route":"ORAL","start_dtc":"2025-05-01","end_dtc":"2025-05-01","visit":null},{"seq":"432","trt":"IRBESARTAN","dose":"300.0","doseu":null,"dosef":"QD","route":"ORAL","start_dtc":"2025-05-02","end_dtc":"2025-05-02","visit":null},{"seq":"433","trt":"IRBESARTAN","dose":"300.0","doseu":null,"dosef":"QD","route":"ORAL","start_dtc":"2025-05-03","end_dtc":"2025-05-03","visit":null},{"seq":"434","trt":"IRBESARTAN","dose":"300.0","doseu":null,"dosef":"QD","route":"ORAL","start_dtc":"2025-05-04","end_dtc":"2025-05-04","visit":null},{"seq":"435","trt":"IRBESARTAN","dose":"300.0","doseu":null,"dosef":"QD","route":"ORAL","start_dtc":"2025-05-05","end_dtc":"2025-05-05","visit":null},{"seq":"436","trt":"IRBESARTAN","dose":"300.0","doseu":null,"dosef":"QD","route":"ORAL","start_dtc":"2025-05-06","end_dtc":"2025-05-06","visit":null},{"seq":"437","trt":"IRBESARTAN","dose":"300.0","doseu":null,"dosef":"QD","route":"ORAL","start_dtc":"2025-05-07","end_dtc":"2025-05-07","visit":null},{"seq":"438","trt":"IRBESARTAN","dose":"300.0","doseu":null,"dosef":"QD","route":"ORAL","start_dtc":"2025-05-08","end_dtc":"2025-05-08","visit":null},{"seq":"439","trt":"IRBESARTAN","dose":"300.0","doseu":null,"dosef":"QD","route":"ORAL","start_dtc":"2025-05-09","end_dtc":"2025-05-09","visit":null},{"seq":"440","trt":"IRBESARTAN","dose":"300.0","doseu":null,"dosef":"QD","route":"ORAL","start_dtc":"2025-05-10","end_dtc":"2025-05-10","visit":null},{"seq":"441","trt":"IRBESARTAN","dose":"300.0","doseu":null,"dosef":"QD","route":"ORAL","start_dtc":"2025-05-11","end_dtc":"2025-05-11","visit":null},{"seq":"442","trt":"IRBESARTAN","dose":"300.0","doseu":null,"dosef":"QD","route":"ORAL","start_dtc":"2025-05-12","end_dtc":"2025-05-12","visit":null},{"seq":"443","trt":"IRBESARTAN","dose":null,"doseu":null,"dosef":"QD","route":"ORAL","start_dtc":"2025-05-13","end_dtc":"2025-05-13","visit":null},{"seq":"444","trt":"IRBESARTAN","dose":"300.0","doseu":null,"dosef":"QD","route":"ORAL","start_dtc":"2025-05-14","end_dtc":"2025-05-14","visit":null},{"seq":"445","trt":"IRBESARTAN","dose":"300.0","doseu":null,"dosef":"QD","route":"ORAL","start_dtc":"2025-05-15","end_dtc":"2025-05-15","visit":null},{"seq":"446","trt":"IRBESARTAN","dose":null,"doseu":null,"dosef":"QD","route":"ORAL","start_dtc":"2025-05-16","end_dtc":"2025-05-16","visit":null},{"seq":"447","trt":"IRBESARTAN","dose":"300.0","doseu":null,"dosef":"QD","route":"ORAL","start_dtc":"2025-05-17","end_dtc":"2025-05-17","visit":null},{"seq":"448","trt":"IRBESARTAN","dose":"300.0","doseu":null,"dosef":"QD","route":"ORAL","start_dtc":"2025-05-18","end_dtc":"2025-05-18","visit":null},{"seq":"449","trt":"IRBESARTAN","dose":"300.0","doseu":null,"dosef":"QD","route":"ORAL","start_dtc":"2025-05-19","end_dtc":"2025-05-19","visit":null},{"seq":"450","trt":"IRBESARTAN","dose":"300.0","doseu":null,"dosef":"QD","route":"ORAL","start_dtc":"2025-05-20","end_dtc":"2025-05-20","visit":null},{"seq":"451","trt":"IRBESARTAN","dose":"300.0","doseu":null,"dosef":"QD","route":"ORAL","start_dtc":"2025-05-21","end_dtc":"2025-05-21","visit":null},{"seq":"452","trt":"IRBESARTAN","dose":"300.0","doseu":null,"dosef":"QD","route":"ORAL","start_dtc":"2025-05-22","end_dtc":"2025-05-22","visit":null},{"seq":"453","trt":"IRBESARTAN","dose":"300.0","doseu":null,"dosef":"QD","route":"ORAL","start_dtc":"2025-05-23","end_dtc":"2025-05-23","visit":null},{"seq":"454","trt":"IRBESARTAN","dose":"300.0","doseu":null,"dosef":"QD","route":"ORAL","start_dtc":"2025-05-24","end_dtc":"2025-05-24","visit":null},{"seq":"455","trt":"IRBESARTAN","dose":"300.0","doseu":null,"dosef":"QD","route":"ORAL","start_dtc":"2025-05-25","end_dtc":"2025-05-25","visit":null},{"seq":"456","trt":"IRBESARTAN","dose":"300.0","doseu":null,"dosef":"QD","route":"ORAL","start_dtc":"2025-05-26","end_dtc":"2025-05-26","visit":null},{"seq":"457","trt":"IRBESARTAN","dose":"300.0","doseu":null,"dosef":"QD","route":"ORAL","start_dtc":"2025-05-27","end_dtc":"2025-05-27","visit":null},{"seq":"458","trt":"IRBESARTAN","dose":"300.0","doseu":null,"dosef":"QD","route":"ORAL","start_dtc":"2025-05-28","end_dtc":"2025-05-28","visit":null},{"seq":"459","trt":"IRBESARTAN","dose":"300.0","doseu":null,"dosef":"QD","route":"ORAL","start_dtc":"2025-05-29","end_dtc":"2025-05-29","visit":null},{"seq":"460","trt":"IRBESARTAN","dose":"300.0","doseu":null,"dosef":"QD","route":"ORAL","start_dtc":"2025-05-30","end_dtc":"2025-05-30","visit":null},{"seq":"461","trt":"IRBESARTAN","dose":"300.0","doseu":null,"dosef":"QD","route":"ORAL","start_dtc":"2025-05-31","end_dtc":"2025-05-31","visit":null},{"seq":"462","trt":"IRBESARTAN","dose":"300.0","doseu":null,"dosef":"QD","route":"ORAL","start_dtc":"2025-06-01","end_dtc":"2025-06-01","visit":null},{"seq":"463","trt":"IRBESARTAN","dose":"300.0","doseu":null,"dosef":"QD","route":"ORAL","start_dtc":"2025-06-02","end_dtc":"2025-06-02","visit":null},{"seq":"464","trt":"IRBESARTAN","dose":"300.0","doseu":null,"dosef":"QD","route":"ORAL","start_dtc":"2025-06-03","end_dtc":"2025-06-03","visit":null},{"seq":"465","trt":"IRBESARTAN","dose":"300.0","doseu":null,"dosef":"QD","route":"ORAL","start_dtc":"2025-06-04","end_dtc":"2025-06-04","visit":null},{"seq":"466","trt":"IRBESARTAN","dose":"300.0","doseu":null,"dosef":"QD","route":"ORAL","start_dtc":"2025-06-05","end_dtc":"2025-06-05","visit":null},{"seq":"467","trt":"IRBESARTAN","dose":"300.0","doseu":null,"dosef":"QD","route":"ORAL","start_dtc":"2025-06-06","end_dtc":"2025-06-06","visit":null},{"seq":"468","trt":"IRBESARTAN","dose":"300.0","doseu":null,"dosef":"QD","route":"ORAL","start_dtc":"2025-06-07","end_dtc":"2025-06-07","visit":null},{"seq":"469","trt":"IRBESARTAN","dose":"300.0","doseu":null,"dosef":"QD","route":"ORAL","start_dtc":"2025-06-08","end_dtc":"2025-06-08","visit":null},{"seq":"470","trt":"IRBESARTAN","dose":null,"doseu":null,"dosef":"QD","route":"ORAL","start_dtc":"2025-06-09","end_dtc":"2025-06-09","visit":null},{"seq":"471","trt":"IRBESARTAN","dose":"300.0","doseu":null,"dosef":"QD","route":"ORAL","start_dtc":"2025-06-10","end_dtc":"2025-06-10","visit":null},{"seq":"472","trt":"IRBESARTAN","dose":"300.0","doseu":null,"dosef":"QD","route":"ORAL","start_dtc":"2025-06-11","end_dtc":"2025-06-11","visit":null},{"seq":"473","trt":"IRBESARTAN","dose":"300.0","doseu":null,"dosef":"QD","route":"ORAL","start_dtc":"2025-06-12","end_dtc":"2025-06-12","visit":null},{"seq":"474","trt":"IRBESARTAN","dose":"300.0","doseu":null,"dosef":"QD","route":"ORAL","start_dtc":"2025-06-13","end_dtc":"2025-06-13","visit":null},{"seq":"475","trt":"IRBESARTAN","dose":"300.0","doseu":null,"dosef":"QD","route":"ORAL","start_dtc":"2025-06-14","end_dtc":"2025-06-14","visit":null},{"seq":"476","trt":"IRBESARTAN","dose":"300.0","doseu":null,"dosef":"QD","route":"ORAL","start_dtc":"2025-06-15","end_dtc":"2025-06-15","visit":null},{"seq":"477","trt":"IRBESARTAN","dose":"300.0","doseu":null,"dosef":"QD","route":"ORAL","start_dtc":"2025-06-16","end_dtc":"2025-06-16","visit":null},{"seq":"478","trt":"IRBESARTAN","dose":"300.0","doseu":null,"dosef":"QD","route":"ORAL","start_dtc":"2025-06-17","end_dtc":"2025-06-17","visit":null},{"seq":"479","trt":"IRBESARTAN","dose":"300.0","doseu":null,"dosef":"QD","route":"ORAL","start_dtc":"2025-06-18","end_dtc":"2025-06-18","visit":null},{"seq":"480","trt":"IRBESARTAN","dose":"300.0","doseu":null,"dosef":"QD","route":"ORAL","start_dtc":"2025-06-19","end_dtc":"2025-06-19","visit":null},{"seq":"481","trt":"IRBESARTAN","dose":"300.0","doseu":null,"dosef":"QD","route":"ORAL","start_dtc":"2025-06-20","end_dtc":"2025-06-20","visit":null},{"seq":"482","trt":"IRBESARTAN","dose":"300.0","doseu":null,"dosef":"QD","route":"ORAL","start_dtc":"2025-06-21","end_dtc":"2025-06-21","visit":null},{"seq":"483","trt":"IRBESARTAN","dose":"300.0","doseu":null,"dosef":"QD","route":"ORAL","start_dtc":"2025-06-22","end_dtc":"2025-06-22","visit":null},{"seq":"484","trt":"IRBESARTAN","dose":null,"doseu":null,"dosef":"QD","route":"ORAL","start_dtc":"2025-06-23","end_dtc":"2025-06-23","visit":null},{"seq":"485","trt":"IRBESARTAN","dose":"300.0","doseu":null,"dosef":"QD","route":"ORAL","start_dtc":"2025-06-24","end_dtc":"2025-06-24","visit":null},{"seq":"486","trt":"IRBESARTAN","dose":"300.0","doseu":null,"dosef":"QD","route":"ORAL","start_dtc":"2025-06-25","end_dtc":"2025-06-25","visit":null},{"seq":"487","trt":"IRBESARTAN","dose":"300.0","doseu":null,"dosef":"QD","route":"ORAL","start_dtc":"2025-06-26","end_dtc":"2025-06-26","visit":null},{"seq":"488","trt":"IRBESARTAN","dose":"300.0","doseu":null,"dosef":"QD","route":"ORAL","start_dtc":"2025-06-27","end_dtc":"2025-06-27","visit":null},{"seq":"489","trt":"IRBESARTAN","dose":"300.0","doseu":null,"dosef":"QD","route":"ORAL","start_dtc":"2025-06-28","end_dtc":"2025-06-28","visit":null},{"seq":"490","trt":"IRBESARTAN","dose":"300.0","doseu":null,"dosef":"QD","route":"ORAL","start_dtc":"2025-06-29","end_dtc":"2025-06-29","visit":null},{"seq":"491","trt":"IRBESARTAN","dose":"300.0","doseu":null,"dosef":"QD","route":"ORAL","start_dtc":"2025-06-30","end_dtc":"2025-06-30","visit":null},{"seq":"492","trt":"IRBESARTAN","dose":null,"doseu":null,"dosef":"QD","route":"ORAL","start_dtc":"2025-07-01","end_dtc":"2025-07-01","visit":null},{"seq":"493","trt":"IRBESARTAN","dose":"300.0","doseu":null,"dosef":"QD","route":"ORAL","start_dtc":"2025-07-02","end_dtc":"2025-07-02","visit":null},{"seq":"494","trt":"IRBESARTAN","dose":"300.0","doseu":null,"dosef":"QD","route":"ORAL","start_dtc":"2025-07-03","end_dtc":"2025-07-03","visit":null},{"seq":"495","trt":"IRBESARTAN","dose":"300.0","doseu":null,"dosef":"QD","route":"ORAL","start_dtc":"2025-07-04","end_dtc":"2025-07-04","visit":null},{"seq":"496","trt":"IRBESARTAN","dose":null,"doseu":null,"dosef":"QD","route":"ORAL","start_dtc":"2025-07-05","end_dtc":"2025-07-05","visit":null},{"seq":"497","trt":"IRBESARTAN","dose":"300.0","doseu":null,"dosef":"QD","route":"ORAL","start_dtc":"2025-07-06","end_dtc":"2025-07-06","visit":null},{"seq":"498","trt":"IRBESARTAN","dose":"300.0","doseu":null,"dosef":"QD","route":"ORAL","start_dtc":"2025-07-07","end_dtc":"2025-07-07","visit":null},{"seq":"499","trt":"IRBESARTAN","dose":"300.0","doseu":null,"dosef":"QD","route":"ORAL","start_dtc":"2025-07-08","end_dtc":"2025-07-08","visit":null},{"seq":"500","trt":"IRBESARTAN","dose":"300.0","doseu":null,"dosef":"QD","route":"ORAL","start_dtc":"2025-07-09","end_dtc":"2025-07-09","visit":null},{"seq":"501","trt":"IRBESARTAN","dose":"300.0","doseu":null,"dosef":"QD","route":"ORAL","start_dtc":"2025-07-10","end_dtc":"2025-07-10","visit":null},{"seq":"502","trt":"IRBESARTAN","dose":"300.0","doseu":null,"dosef":"QD","route":"ORAL","start_dtc":"2025-07-11","end_dtc":"2025-07-11","visit":null},{"seq":"503","trt":"IRBESARTAN","dose":"300.0","doseu":null,"dosef":"QD","route":"ORAL","start_dtc":"2025-07-12","end_dtc":"2025-07-12","visit":null},{"seq":"504","trt":"IRBESARTAN","dose":"300.0","doseu":null,"dosef":"QD","route":"ORAL","start_dtc":"2025-07-13","end_dtc":"2025-07-13","visit":null},{"seq":"505","trt":"IRBESARTAN","dose":"300.0","doseu":null,"dosef":"QD","route":"ORAL","start_dtc":"2025-07-14","end_dtc":"2025-07-14","visit":null},{"seq":"506","trt":"IRBESARTAN","dose":null,"doseu":null,"dosef":"QD","route":"ORAL","start_dtc":"2025-07-15","end_dtc":"2025-07-15","visit":null},{"seq":"507","trt":"IRBESARTAN","dose":"300.0","doseu":null,"dosef":"QD","route":"ORAL","start_dtc":"2025-07-16","end_dtc":"2025-07-16","visit":null},{"seq":"508","trt":"IRBESARTAN","dose":"300.0","doseu":null,"dosef":"QD","route":"ORAL","start_dtc":"2025-07-17","end_dtc":"2025-07-17","visit":null},{"seq":"509","trt":"IRBESARTAN","dose":"300.0","doseu":null,"dosef":"QD","route":"ORAL","start_dtc":"2025-07-18","end_dtc":"2025-07-18","visit":null},{"seq":"510","trt":"IRBESARTAN","dose":"300.0","doseu":null,"dosef":"QD","route":"ORAL","start_dtc":"2025-07-19","end_dtc":"2025-07-19","visit":null},{"seq":"511","trt":"IRBESARTAN","dose":"300.0","doseu":null,"dosef":"QD","route":"ORAL","start_dtc":"2025-07-20","end_dtc":"2025-07-20","visit":null},{"seq":"512","trt":"IRBESARTAN","dose":"300.0","doseu":null,"dosef":"QD","route":"ORAL","start_dtc":"2025-07-21","end_dtc":"2025-07-21","visit":null},{"seq":"513","trt":"IRBESARTAN","dose":"300.0","doseu":null,"dosef":"QD","route":"ORAL","start_dtc":"2025-07-22","end_dtc":"2025-07-22","visit":null},{"seq":"514","trt":"IRBESARTAN","dose":"300.0","doseu":null,"dosef":"QD","route":"ORAL","start_dtc":"2025-07-23","end_dtc":"2025-07-23","visit":null},{"seq":"515","trt":"IRBESARTAN","dose":"300.0","doseu":null,"dosef":"QD","route":"ORAL","start_dtc":"2025-07-24","end_dtc":"2025-07-24","visit":null},{"seq":"516","trt":"IRBESARTAN","dose":"300.0","doseu":null,"dosef":"QD","route":"ORAL","start_dtc":"2025-07-25","end_dtc":"2025-07-25","visit":null},{"seq":"517","trt":"IRBESARTAN","dose":"300.0","doseu":null,"dosef":"QD","route":"ORAL","start_dtc":"2025-07-26","end_dtc":"2025-07-26","visit":null},{"seq":"518","trt":"IRBESARTAN","dose":"300.0","doseu":null,"dosef":"QD","route":"ORAL","start_dtc":"2025-07-27","end_dtc":"2025-07-27","visit":null},{"seq":"519","trt":"IRBESARTAN","dose":"300.0","doseu":null,"dosef":"QD","route":"ORAL","start_dtc":"2025-07-28","end_dtc":"2025-07-28","visit":null},{"seq":"520","trt":"IRBESARTAN","dose":"300.0","doseu":null,"dosef":"QD","route":"ORAL","start_dtc":"2025-07-29","end_dtc":"2025-07-29","visit":null},{"seq":"521","trt":"IRBESARTAN","dose":"300.0","doseu":null,"dosef":"QD","route":"ORAL","start_dtc":"2025-07-30","end_dtc":"2025-07-30","visit":null},{"seq":"522","trt":"IRBESARTAN","dose":null,"doseu":null,"dosef":"QD","route":"ORAL","start_dtc":"2025-07-31","end_dtc":"2025-07-31","visit":null},{"seq":"523","trt":"IRBESARTAN","dose":"300.0","doseu":null,"dosef":"QD","route":"ORAL","start_dtc":"2025-08-01","end_dtc":"2025-08-01","visit":null},{"seq":"524","trt":"IRBESARTAN","dose":"300.0","doseu":null,"dosef":"QD","route":"ORAL","start_dtc":"2025-08-02","end_dtc":"2025-08-02","visit":null},{"seq":"525","trt":"IRBESARTAN","dose":"300.0","doseu":null,"dosef":"QD","route":"ORAL","start_dtc":"2025-08-03","end_dtc":"2025-08-03","visit":null},{"seq":"526","trt":"IRBESARTAN","dose":"300.0","doseu":null,"dosef":"QD","route":"ORAL","start_dtc":"2025-08-04","end_dtc":"2025-08-04","visit":null},{"seq":"527","trt":"IRBESARTAN","dose":"300.0","doseu":null,"dosef":"QD","route":"ORAL","start_dtc":"2025-08-05","end_dtc":"2025-08-05","visit":null},{"seq":"528","trt":"IRBESARTAN","dose":"300.0","doseu":null,"dosef":"QD","route":"ORAL","start_dtc":"2025-08-06","end_dtc":"2025-08-06","visit":null},{"seq":"529","trt":"IRBESARTAN","dose":"300.0","doseu":null,"dosef":"QD","route":"ORAL","start_dtc":"2025-08-07","end_dtc":"2025-08-07","visit":null},{"seq":"530","trt":"IRBESARTAN","dose":"300.0","doseu":null,"dosef":"QD","route":"ORAL","start_dtc":"2025-08-08","end_dtc":"2025-08-08","visit":null},{"seq":"531","trt":"IRBESARTAN","dose":"300.0","doseu":null,"dosef":"QD","route":"ORAL","start_dtc":"2025-08-09","end_dtc":"2025-08-09","visit":null},{"seq":"532","trt":"IRBESARTAN","dose":"300.0","doseu":null,"dosef":"QD","route":"ORAL","start_dtc":"2025-08-10","end_dtc":"2025-08-10","visit":null},{"seq":"533","trt":"IRBESARTAN","dose":"300.0","doseu":null,"dosef":"QD","route":"ORAL","start_dtc":"2025-08-11","end_dtc":"2025-08-11","visit":null},{"seq":"534","trt":"IRBESARTAN","dose":"300.0","doseu":null,"dosef":"QD","route":"ORAL","start_dtc":"2025-08-12","end_dtc":"2025-08-12","visit":null},{"seq":"535","trt":"IRBESARTAN","dose":"300.0","doseu":null,"dosef":"QD","route":"ORAL","start_dtc":"2025-08-13","end_dtc":"2025-08-13","visit":null},{"seq":"536","trt":"IRBESARTAN","dose":"300.0","doseu":null,"dosef":"QD","route":"ORAL","start_dtc":"2025-08-14","end_dtc":"2025-08-14","visit":null},{"seq":"537","trt":"IRBESARTAN","dose":"300.0","doseu":null,"dosef":"QD","route":"ORAL","start_dtc":"2025-08-15","end_dtc":"2025-08-15","visit":null},{"seq":"538","trt":"IRBESARTAN","dose":null,"doseu":null,"dosef":"QD","route":"ORAL","start_dtc":"2025-08-16","end_dtc":"2025-08-16","visit":null},{"seq":"539","trt":"IRBESARTAN","dose":"300.0","doseu":null,"dosef":"QD","route":"ORAL","start_dtc":"2025-08-17","end_dtc":"2025-08-17","visit":null},{"seq":"540","trt":"IRBESARTAN","dose":"300.0","doseu":null,"dosef":"QD","route":"ORAL","start_dtc":"2025-08-18","end_dtc":"2025-08-18","visit":null},{"seq":"541","trt":"IRBESARTAN","dose":"300.0","doseu":null,"dosef":"QD","route":"ORAL","start_dtc":"2025-08-19","end_dtc":"2025-08-19","visit":null},{"seq":"542","trt":"IRBESARTAN","dose":"300.0","doseu":null,"dosef":"QD","route":"ORAL","start_dtc":"2025-08-20","end_dtc":"2025-08-20","visit":null},{"seq":"543","trt":"IRBESARTAN","dose":null,"doseu":null,"dosef":"QD","route":"ORAL","start_dtc":"2025-08-21","end_dtc":"2025-08-21","visit":null},{"seq":"544","trt":"IRBESARTAN","dose":"300.0","doseu":null,"dosef":"QD","route":"ORAL","start_dtc":"2025-08-22","end_dtc":"2025-08-22","visit":null},{"seq":"545","trt":"IRBESARTAN","dose":"300.0","doseu":null,"dosef":"QD","route":"ORAL","start_dtc":"2025-08-23","end_dtc":"2025-08-23","visit":null},{"seq":"546","trt":"IRBESARTAN","dose":"300.0","doseu":null,"dosef":"QD","route":"ORAL","start_dtc":"2025-08-24","end_dtc":"2025-08-24","visit":null},{"seq":"547","trt":"IRBESARTAN","dose":"300.0","doseu":null,"dosef":"QD","route":"ORAL","start_dtc":"2025-08-25","end_dtc":"2025-08-25","visit":null},{"seq":"548","trt":"IRBESARTAN","dose":"300.0","doseu":null,"dosef":"QD","route":"ORAL","start_dtc":"2025-08-26","end_dtc":"2025-08-26","visit":null},{"seq":"549","trt":"IRBESARTAN","dose":null,"doseu":null,"dosef":"QD","route":"ORAL","start_dtc":"2025-08-27","end_dtc":"2025-08-27","visit":null},{"seq":"550","trt":"IRBESARTAN","dose":"300.0","doseu":null,"dosef":"QD","route":"ORAL","start_dtc":"2025-08-28","end_dtc":"2025-08-28","visit":null},{"seq":"551","trt":"IRBESARTAN","dose":"300.0","doseu":null,"dosef":"QD","route":"ORAL","start_dtc":"2025-08-29","end_dtc":"2025-08-29","visit":null},{"seq":"552","trt":"IRBESARTAN","dose":"300.0","doseu":null,"dosef":"QD","route":"ORAL","start_dtc":"2025-08-30","end_dtc":"2025-08-30","visit":null},{"seq":"553","trt":"IRBESARTAN","dose":"300.0","doseu":null,"dosef":"QD","route":"ORAL","start_dtc":"2025-08-31","end_dtc":"2025-08-31","visit":null},{"seq":"554","trt":"IRBESARTAN","dose":"300.0","doseu":null,"dosef":"QD","route":"ORAL","start_dtc":"2025-09-01","end_dtc":"2025-09-01","visit":null},{"seq":"555","trt":"IRBESARTAN","dose":"300.0","doseu":null,"dosef":"QD","route":"ORAL","start_dtc":"2025-09-02","end_dtc":"2025-09-02","visit":null},{"seq":"556","trt":"IRBESARTAN","dose":"300.0","doseu":null,"dosef":"QD","route":"ORAL","start_dtc":"2025-09-03","end_dtc":"2025-09-03","visit":null},{"seq":"557","trt":"IRBESARTAN","dose":"300.0","doseu":null,"dosef":"QD","route":"ORAL","start_dtc":"2025-09-04","end_dtc":"2025-09-04","visit":null},{"seq":"558","trt":"IRBESARTAN","dose":"300.0","doseu":null,"dosef":"QD","route":"ORAL","start_dtc":"2025-09-05","end_dtc":"2025-09-05","visit":null}]},"section_7_adverse_events":{"summary":{"total_aes":26,"serious_aes":2,"fatal_aes":0,"by_severity":{"SEVERE":2,"MILD":17,"MODERATE":7},"by_soc":{"Nervous system disorders":8,"General disorders and administration site conditions":8,"Investigations":4,"Vascular disorders":1,"Gastrointestinal disorders":4,"Metabolism and nutrition disorders":1}},"events":[{"seq":"1","term":"HEADACHE","decod":"Headache","llt":"Headache","hlt":"Headaches NEC","hlgt":"Headaches","soc":"Nervous system disorders","bodsys":"Nervous system disorders","severity":"SEVERE","serious":"Y","causality":"NOT RELATED","action_taken":"DOSE NOT CHANGED","outcome":"RECOVERED/RESOLVED","fatal":"N","hospitalization":"Y","life_threatening":"N","onset_dtc":"2024-03-16","end_dtc":"2024-03-19","onset_dy":"20","end_dy":"23","duration":null,"epoch":"TREATMENT","visit":null,"supplemental":{"AETRTEM":"Y"}},{"seq":"2","term":"HEADACHE","decod":"Headache","llt":"Headache","hlt":"Headaches NEC","hlgt":"Headaches","soc":"Nervous system disorders","bodsys":"Nervous system disorders","severity":"MILD","serious":"N","causality":"UNLIKELY RELATED","action_taken":"DOSE NOT CHANGED","outcome":"RECOVERED/RESOLVED","fatal":"N","hospitalization":"N","life_threatening":"N","onset_dtc":"2024-03-28","end_dtc":"2024-03-31","onset_dy":"32","end_dy":"35","duration":null,"epoch":"TREATMENT","visit":null,"supplemental":{"AETRTEM":"Y"}},{"seq":"3","term":"OEDEMA PERIPHERAL","decod":"Oedema peripheral","llt":"Oedema peripheral","hlt":"Oedema NEC","hlgt":"Oedema NEC","soc":"General disorders and administration site conditions","bodsys":"General disorders and administration site conditions","severity":"MODERATE","serious":"N","causality":"UNLIKELY RELATED","action_taken":"DOSE NOT CHANGED","outcome":"RECOVERED/RESOLVED","fatal":"N","hospitalization":"N","life_threatening":"N","onset_dtc":"2024-03-29","end_dtc":"2024-04-09","onset_dy":"33","end_dy":"44","duration":null,"epoch":"TREATMENT","visit":null,"supplemental":{"AETRTEM":"Y"}},{"seq":"4","term":"DIZZINESS","decod":"Dizziness","llt":"Dizziness","hlt":"Dizziness and vertigo symptoms","hlgt":"Neurological signs and symptoms NEC","soc":"Nervous system disorders","bodsys":"Nervous system disorders","severity":"MILD","serious":"N","causality":"NOT RELATED","action_taken":"DOSE NOT CHANGED","outcome":"RECOVERED/RESOLVED","fatal":"N","hospitalization":"N","life_threatening":"N","onset_dtc":"2024-04-05","end_dtc":"2024-04-08","onset_dy":"40","end_dy":"43","duration":null,"epoch":"TREATMENT","visit":null,"supplemental":{"AETRTEM":"Y"}},{"seq":"5","term":"HEADACHE","decod":"Headache","llt":"Headache","hlt":"Headaches NEC","hlgt":"Headaches","soc":"Nervous system disorders","bodsys":"Nervous system disorders","severity":"MILD","serious":"N","causality":"PROBABLY RELATED","action_taken":"DOSE NOT CHANGED","outcome":"RECOVERED/RESOLVED WITH SEQUELAE","fatal":"N","hospitalization":"N","life_threatening":"N","onset_dtc":"2024-04-28","end_dtc":"2024-05-01","onset_dy":"63","end_dy":"66","duration":null,"epoch":"TREATMENT","visit":null,"supplemental":{"AETRTEM":"Y"}},{"seq":"6","term":"OEDEMA PERIPHERAL","decod":"Oedema peripheral","llt":"Oedema peripheral","hlt":"Oedema NEC","hlgt":"Oedema NEC","soc":"General disorders and administration site conditions","bodsys":"General disorders and administration site conditions","severity":"MILD","serious":"N","causality":"UNLIKELY RELATED","action_taken":"DOSE NOT CHANGED","outcome":"RECOVERED/RESOLVED","fatal":"N","hospitalization":"N","life_threatening":"N","onset_dtc":"2024-06-19","end_dtc":"2024-06-27","onset_dy":"115","end_dy":"123","duration":null,"epoch":"TREATMENT","visit":null,"supplemental":{"AETRTEM":"Y"}},{"seq":"7","term":"DIZZINESS","decod":"Dizziness","llt":"Dizziness","hlt":"Dizziness and vertigo symptoms","hlgt":"Neurological signs and symptoms NEC","soc":"Nervous system disorders","bodsys":"Nervous system disorders","severity":"MODERATE","serious":"N","causality":"RELATED","action_taken":"DRUG INTERRUPTED","outcome":"RECOVERED/RESOLVED","fatal":"N","hospitalization":"N","life_threatening":"N","onset_dtc":"2024-08-04","end_dtc":"2024-08-06","onset_dy":"161","end_dy":"163","duration":null,"epoch":"TREATMENT","visit":null,"supplemental":{"AETRTEM":"Y"}},{"seq":"8","term":"BLOOD CREATININE INCREASED","decod":"Blood creatinine increased","llt":"Blood creatinine increased","hlt":"Renal function analyses","hlgt":"Renal and urinary tract investigations and urinalyses","soc":"Investigations","bodsys":"Investigations","severity":"MILD","serious":"N","causality":"UNLIKELY RELATED","action_taken":"DOSE NOT CHANGED","outcome":"RECOVERED/RESOLVED","fatal":"N","hospitalization":"N","life_threatening":"N","onset_dtc":"2024-09-13","end_dtc":"2024-09-17","onset_dy":"201","end_dy":"205","duration":null,"epoch":"TREATMENT","visit":null,"supplemental":{"AETRTEM":"Y"}},{"seq":"9","term":"FATIGUE","decod":"Fatigue","llt":"Fatigue","hlt":"Asthenic conditions","hlgt":"General system disorders NEC","soc":"General disorders and administration site conditions","bodsys":"General disorders and administration site conditions","severity":"MILD","serious":"N","causality":"PROBABLY RELATED","action_taken":"DOSE REDUCED","outcome":"NOT RECOVERED/NOT RESOLVED","fatal":"N","hospitalization":"N","life_threatening":"N","onset_dtc":"2024-09-25","end_dtc":null,"onset_dy":"213","end_dy":null,"duration":null,"epoch":"TREATMENT","visit":null,"supplemental":{"AETRTEM":"Y"}},{"seq":"10","term":"OEDEMA PERIPHERAL","decod":"Oedema peripheral","llt":"Oedema peripheral","hlt":"Oedema NEC","hlgt":"Oedema NEC","soc":"General disorders and administration site conditions","bodsys":"General disorders and administration site conditions","severity":"MODERATE","serious":"N","causality":"UNLIKELY RELATED","action_taken":"DOSE NOT CHANGED","outcome":"RECOVERED/RESOLVED","fatal":"N","hospitalization":"N","life_threatening":"N","onset_dtc":"2024-09-28","end_dtc":"2024-10-14","onset_dy":"216","end_dy":"232","duration":null,"epoch":"TREATMENT","visit":null,"supplemental":{"AETRTEM":"Y"}},{"seq":"11","term":"HYPOTENSION","decod":"Hypotension","llt":"Hypotension","hlt":"Vascular hypotensive disorders","hlgt":"Vascular disorders NEC","soc":"Vascular disorders","bodsys":"Vascular disorders","severity":"MILD","serious":"N","causality":"UNLIKELY RELATED","action_taken":"DOSE NOT CHANGED","outcome":"RECOVERED/RESOLVED","fatal":"N","hospitalization":"N","life_threatening":"N","onset_dtc":"2024-11-06","end_dtc":"2024-11-18","onset_dy":"255","end_dy":"267","duration":null,"epoch":"TREATMENT","visit":null,"supplemental":{"AETRTEM":"Y"}},{"seq":"12","term":"ALANINE AMINOTRANSFERASE INCREASED","decod":"Alanine aminotransferase increased","llt":"Alanine aminotransferase increased","hlt":"Liver function analyses","hlgt":"Hepatobiliary investigations","soc":"Investigations","bodsys":"Investigations","severity":"SEVERE","serious":"Y","causality":"NOT RELATED","action_taken":"DOSE NOT CHANGED","outcome":"RECOVERING/RESOLVING","fatal":"N","hospitalization":"Y","life_threatening":"N","onset_dtc":"2024-11-18","end_dtc":"2024-12-23","onset_dy":"267","end_dy":"302","duration":null,"epoch":"TREATMENT","visit":null,"supplemental":{"AETRTEM":"Y"}},{"seq":"13","term":"OEDEMA PERIPHERAL","decod":"Oedema peripheral","llt":"Oedema peripheral","hlt":"Oedema NEC","hlgt":"Oedema NEC","soc":"General disorders and administration site conditions","bodsys":"General disorders and administration site conditions","severity":"MILD","serious":"N","causality":"NOT RELATED","action_taken":"DOSE NOT CHANGED","outcome":"RECOVERED/RESOLVED","fatal":"N","hospitalization":"N","life_threatening":"N","onset_dtc":"2024-11-27","end_dtc":"2024-11-29","onset_dy":"276","end_dy":"278","duration":null,"epoch":"TREATMENT","visit":null,"supplemental":{"AETRTEM":"Y"}},{"seq":"14","term":"HEADACHE","decod":"Headache","llt":"Headache","hlt":"Headaches NEC","hlgt":"Headaches","soc":"Nervous system disorders","bodsys":"Nervous system disorders","severity":"MILD","serious":"N","causality":"PROBABLY RELATED","action_taken":"DOSE NOT CHANGED","outcome":"RECOVERED/RESOLVED","fatal":"N","hospitalization":"N","life_threatening":"N","onset_dtc":"2024-12-28","end_dtc":"2024-12-29","onset_dy":"307","end_dy":"308","duration":null,"epoch":"TREATMENT","visit":null,"supplemental":{"AETRTEM":"Y"}},{"seq":"15","term":"NAUSEA","decod":"Nausea","llt":"Nausea","hlt":"Nausea and vomiting symptoms","hlgt":"Gastrointestinal signs and symptoms","soc":"Gastrointestinal disorders","bodsys":"Gastrointestinal disorders","severity":"MILD","serious":"N","causality":"NOT RELATED","action_taken":"DOSE NOT CHANGED","outcome":"RECOVERED/RESOLVED","fatal":"N","hospitalization":"N","life_threatening":"N","onset_dtc":"2025-01-10","end_dtc":"2025-01-11","onset_dy":"320","end_dy":"321","duration":null,"epoch":"TREATMENT","visit":null,"supplemental":{"AETRTEM":"Y"}},{"seq":"16","term":"NAUSEA","decod":"Nausea","llt":"Nausea","hlt":"Nausea and vomiting symptoms","hlgt":"Gastrointestinal signs and symptoms","soc":"Gastrointestinal disorders","bodsys":"Gastrointestinal disorders","severity":"MILD","serious":"N","causality":"RELATED","action_taken":"DOSE NOT CHANGED","outcome":"RECOVERED/RESOLVED","fatal":"N","hospitalization":"N","life_threatening":"N","onset_dtc":"2025-02-01","end_dtc":"2025-02-03","onset_dy":"342","end_dy":"344","duration":null,"epoch":"TREATMENT","visit":null,"supplemental":{"AETRTEM":"Y"}},{"seq":"17","term":"HYPERKALAEMIA","decod":"Hyperkalaemia","llt":"Hyperkalaemia","hlt":"Electrolyte and fluid balance conditions","hlgt":"Fluid and electrolyte conditions NEC","soc":"Metabolism and nutrition disorders","bodsys":"Metabolism and nutrition disorders","severity":"MODERATE","serious":"N","causality":"NOT RELATED","action_taken":"DOSE NOT CHANGED","outcome":"RECOVERED/RESOLVED","fatal":"N","hospitalization":"N","life_threatening":"N","onset_dtc":"2025-02-03","end_dtc":"2025-02-23","onset_dy":"344","end_dy":"364","duration":null,"epoch":"TREATMENT","visit":null,"supplemental":{"AETRTEM":"Y"}},{"seq":"18","term":"NAUSEA","decod":"Nausea","llt":"Nausea","hlt":"Nausea and vomiting symptoms","hlgt":"Gastrointestinal signs and symptoms","soc":"Gastrointestinal disorders","bodsys":"Gastrointestinal disorders","severity":"MILD","serious":"N","causality":"NOT RELATED","action_taken":"DOSE NOT CHANGED","outcome":"RECOVERED/RESOLVED","fatal":"N","hospitalization":"N","life_threatening":"N","onset_dtc":"2025-02-16","end_dtc":"2025-02-18","onset_dy":"357","end_dy":"359","duration":null,"epoch":"TREATMENT","visit":null,"supplemental":{"AETRTEM":"Y"}},{"seq":"19","term":"FATIGUE","decod":"Fatigue","llt":"Fatigue","hlt":"Asthenic conditions","hlgt":"General system disorders NEC","soc":"General disorders and administration site conditions","bodsys":"General disorders and administration site conditions","severity":"MILD","serious":"N","causality":"POSSIBLY RELATED","action_taken":"DOSE NOT CHANGED","outcome":"RECOVERING/RESOLVING","fatal":"N","hospitalization":"N","life_threatening":"N","onset_dtc":"2025-02-24","end_dtc":"2025-03-04","onset_dy":"365","end_dy":"373","duration":null,"epoch":"TREATMENT","visit":null,"supplemental":{"AETRTEM":"Y"}},{"seq":"20","term":"DIZZINESS","decod":"Dizziness","llt":"Dizziness","hlt":"Dizziness and vertigo symptoms","hlgt":"Neurological signs and symptoms NEC","soc":"Nervous system disorders","bodsys":"Nervous system disorders","severity":"MILD","serious":"N","causality":"NOT RELATED","action_taken":"DOSE NOT CHANGED","outcome":"RECOVERED/RESOLVED","fatal":"N","hospitalization":"N","life_threatening":"N","onset_dtc":"2025-03-24","end_dtc":"2025-03-27","onset_dy":"393","end_dy":"396","duration":null,"epoch":"TREATMENT","visit":null,"supplemental":{"AETRTEM":"Y"}},{"seq":"21","term":"DIZZINESS","decod":"Dizziness","llt":"Dizziness","hlt":"Dizziness and vertigo symptoms","hlgt":"Neurological signs and symptoms NEC","soc":"Nervous system disorders","bodsys":"Nervous system disorders","severity":"MODERATE","serious":"N","causality":"NOT RELATED","action_taken":"DOSE NOT CHANGED","outcome":"RECOVERED/RESOLVED","fatal":"N","hospitalization":"N","life_threatening":"N","onset_dtc":"2025-05-18","end_dtc":"2025-06-09","onset_dy":"448","end_dy":"470","duration":null,"epoch":"TREATMENT","visit":null,"supplemental":{"AETRTEM":"Y"}},{"seq":"22","term":"BLOOD CREATININE INCREASED","decod":"Blood creatinine increased","llt":"Blood creatinine increased","hlt":"Renal function analyses","hlgt":"Renal and urinary tract investigations and urinalyses","soc":"Investigations","bodsys":"Investigations","severity":"MILD","serious":"N","causality":"NOT RELATED","action_taken":"DOSE NOT CHANGED","outcome":"RECOVERED/RESOLVED","fatal":"N","hospitalization":"N","life_threatening":"N","onset_dtc":"2025-06-17","end_dtc":"2025-06-20","onset_dy":"478","end_dy":"481","duration":null,"epoch":"TREATMENT","visit":null,"supplemental":{"AETRTEM":"Y"}},{"seq":"23","term":"ALANINE AMINOTRANSFERASE INCREASED","decod":"Alanine aminotransferase increased","llt":"Alanine aminotransferase increased","hlt":"Liver function analyses","hlgt":"Hepatobiliary investigations","soc":"Investigations","bodsys":"Investigations","severity":"MODERATE","serious":"N","causality":"POSSIBLY RELATED","action_taken":"DOSE REDUCED","outcome":"RECOVERED/RESOLVED","fatal":"N","hospitalization":"N","life_threatening":"N","onset_dtc":"2025-06-18","end_dtc":"2025-07-05","onset_dy":"479","end_dy":"496","duration":null,"epoch":"TREATMENT","visit":null,"supplemental":{"AETRTEM":"Y"}},{"seq":"24","term":"DIARRHOEA","decod":"Diarrhoea","llt":"Diarrhoea","hlt":"Diarrhoea (excl infective)","hlgt":"Gastrointestinal motility and defaecation conditions","soc":"Gastrointestinal disorders","bodsys":"Gastrointestinal disorders","severity":"MILD","serious":"N","causality":"POSSIBLY RELATED","action_taken":"DOSE REDUCED","outcome":"RECOVERED/RESOLVED","fatal":"N","hospitalization":"N","life_threatening":"N","onset_dtc":"2025-08-03","end_dtc":"2025-08-06","onset_dy":"525","end_dy":"528","duration":null,"epoch":"TREATMENT","visit":null,"supplemental":{"AETRTEM":"Y"}},{"seq":"25","term":"OEDEMA PERIPHERAL","decod":"Oedema peripheral","llt":"Oedema peripheral","hlt":"Oedema NEC","hlgt":"Oedema NEC","soc":"General disorders and administration site conditions","bodsys":"General disorders and administration site conditions","severity":"MILD","serious":"N","causality":"PROBABLY RELATED","action_taken":"DOSE NOT CHANGED","outcome":"RECOVERED/RESOLVED","fatal":"N","hospitalization":"N","life_threatening":"N","onset_dtc":"2025-08-11","end_dtc":"2025-08-24","onset_dy":"533","end_dy":"546","duration":null,"epoch":"TREATMENT","visit":null,"supplemental":{"AETRTEM":"Y"}},{"seq":"26","term":"OEDEMA PERIPHERAL","decod":"Oedema peripheral","llt":"Oedema peripheral","hlt":"Oedema NEC","hlgt":"Oedema NEC","soc":"General disorders and administration site conditions","bodsys":"General disorders and administration site conditions","severity":"MODERATE","serious":"N","causality":"NOT RELATED","action_taken":"DOSE NOT CHANGED","outcome":"RECOVERED/RESOLVED","fatal":"N","hospitalization":"N","life_threatening":"N","onset_dtc":"2026-02-05","end_dtc":"2026-02-16","onset_dy":"711","end_dy":"722","duration":null,"epoch":"TREATMENT","visit":null,"supplemental":{"AETRTEM":"Y"}}]},"section_8_laboratory_results":{"summary":{"total_records":84,"abnormal_count":9,"abnormal_pct":10.7},"shift_summary":[{"testcd":"ALT","baseline_value":18.82,"baseline_nrind":"NORMAL","worst_post_baseline_value":19.44,"worst_post_baseline_nrind":"NORMAL","worst_visit":"BASELINE"},{"testcd":"AST","baseline_value":20.52,"baseline_nrind":"NORMAL","worst_post_baseline_value":20.14,"worst_post_baseline_nrind":"NORMAL","worst_visit":"BASELINE"},{"testcd":"CREAT","baseline_value":104.32,"baseline_nrind":"NORMAL","worst_post_baseline_value":105.33,"worst_post_baseline_nrind":"NORMAL","worst_visit":"WEEK 36"},{"testcd":"GLUC","baseline_value":4.21,"baseline_nrind":"NORMAL","worst_post_baseline_value":4.27,"worst_post_baseline_nrind":"NORMAL","worst_visit":"BASELINE"},{"testcd":"HGB","baseline_value":138.07,"baseline_nrind":"NORMAL","worst_post_baseline_value":136.42,"worst_post_baseline_nrind":"NORMAL","worst_visit":"WEEK 2"},{"testcd":"PLAT","baseline_value":290.19,"baseline_nrind":"NORMAL","worst_post_baseline_value":317.19,"worst_post_baseline_nrind":"NORMAL","worst_visit":"WEEK 84"},{"testcd":"WBC","baseline_value":3.7,"baseline_nrind":"LOW","worst_post_baseline_value":4.72,"worst_post_baseline_nrind":"NORMAL","worst_visit":"WEEK 110"}],"results":[{"seq":"1","testcd":"ALT","test":"Alanine Aminotransferase","cat":"CHEMISTRY","orres":"18.82","orresu":"U/L","stresc":"18.82","stresn":"18.82","stresu":"U/L","stnrlo":"7","stnrhi":"56","nrind":"NORMAL","fast":null,"dtc":"2024-01-05","dy":"-52","visit":"SCREENING","visitnum":"1.0","epoch":"SCREENING","spec":null,"method":null},{"seq":"2","testcd":"AST","test":"Aspartate Aminotransferase","cat":"CHEMISTRY","orres":"20.52","orresu":"U/L","stresc":"20.52","stresn":"20.52","stresu":"U/L","stnrlo":"10","stnrhi":"40","nrind":"NORMAL","fast":null,"dtc":"2024-01-05","dy":"-52","visit":"SCREENING","visitnum":"1.0","epoch":"SCREENING","spec":null,"method":null},{"seq":"3","testcd":"CREAT","test":"Creatinine","cat":"CHEMISTRY","orres":"104.32","orresu":"umol/L","stresc":"104.32","stresn":"104.32","stresu":"umol/L","stnrlo":"62","stnrhi":"106","nrind":"NORMAL","fast":null,"dtc":"2024-01-05","dy":"-52","visit":"SCREENING","visitnum":"1.0","epoch":"SCREENING","spec":null,"method":null},{"seq":"4","testcd":"GLUC","test":"Glucose","cat":"CHEMISTRY","orres":"4.21","orresu":"mmol/L","stresc":"4.21","stresn":"4.21","stresu":"mmol/L","stnrlo":"3.9","stnrhi":"5.6","nrind":"NORMAL","fast":null,"dtc":"2024-01-05","dy":"-52","visit":"SCREENING","visitnum":"1.0","epoch":"SCREENING","spec":null,"method":null},{"seq":"5","testcd":"HGB","test":"Hemoglobin","cat":"HEMATOLOGY","orres":"138.07","orresu":"g/L","stresc":"138.07","stresn":"138.07","stresu":"g/L","stnrlo":"130","stnrhi":"175","nrind":"NORMAL","fast":null,"dtc":"2024-01-05","dy":"-52","visit":"SCREENING","visitnum":"1.0","epoch":"SCREENING","spec":null,"method":null},{"seq":"6","testcd":"PLAT","test":"Platelets","cat":"HEMATOLOGY","orres":"290.19","orresu":"10^9/L","stresc":"290.19","stresn":"290.19","stresu":"10^9/L","stnrlo":"150","stnrhi":"400","nrind":"NORMAL","fast":null,"dtc":"2024-01-05","dy":"-52","visit":"SCREENING","visitnum":"1.0","epoch":"SCREENING","spec":null,"method":null},{"seq":"7","testcd":"WBC","test":"Leukocytes","cat":"HEMATOLOGY","orres":"3.7","orresu":"10^9/L","stresc":"3.7","stresn":"3.7","stresu":"10^9/L","stnrlo":"4.0","stnrhi":"11.0","nrind":"LOW","fast":null,"dtc":"2024-01-05","dy":"-52","visit":"SCREENING","visitnum":"1.0","epoch":"SCREENING","spec":null,"method":null},{"seq":"8","testcd":"ALT","test":"Alanine Aminotransferase","cat":"CHEMISTRY","orres":"19.44","orresu":"U/L","stresc":"19.44","stresn":"19.44","stresu":"U/L","stnrlo":"7","stnrhi":"56","nrind":"NORMAL","fast":null,"dtc":"2024-02-26","dy":"1","visit":"BASELINE","visitnum":"2.0","epoch":"TREATMENT","spec":null,"method":null},{"seq":"9","testcd":"AST","test":"Aspartate Aminotransferase","cat":"CHEMISTRY","orres":"20.14","orresu":"U/L","stresc":"20.14","stresn":"20.14","stresu":"U/L","stnrlo":"10","stnrhi":"40","nrind":"NORMAL","fast":null,"dtc":"2024-02-26","dy":"1","visit":"BASELINE","visitnum":"2.0","epoch":"TREATMENT","spec":null,"method":null},{"seq":"10","testcd":"CREAT","test":"Creatinine","cat":"CHEMISTRY","orres":"104.43","orresu":"umol/L","stresc":"104.43","stresn":"104.43","stresu":"umol/L","stnrlo":"62","stnrhi":"106","nrind":"NORMAL","fast":null,"dtc":"2024-02-26","dy":"1","visit":"BASELINE","visitnum":"2.0","epoch":"TREATMENT","spec":null,"method":null},{"seq":"11","testcd":"GLUC","test":"Glucose","cat":"CHEMISTRY","orres":"4.27","orresu":"mmol/L","stresc":"4.27","stresn":"4.27","stresu":"mmol/L","stnrlo":"3.9","stnrhi":"5.6","nrind":"NORMAL","fast":null,"dtc":"2024-02-26","dy":"1","visit":"BASELINE","visitnum":"2.0","epoch":"TREATMENT","spec":null,"method":null},{"seq":"12","testcd":"HGB","test":"Hemoglobin","cat":"HEMATOLOGY","orres":"138.4","orresu":"g/L","stresc":"138.4","stresn":"138.4","stresu":"g/L","stnrlo":"130","stnrhi":"175","nrind":"NORMAL","fast":null,"dtc":"2024-02-26","dy":"1","visit":"BASELINE","visitnum":"2.0","epoch":"TREATMENT","spec":null,"method":null},{"seq":"13","testcd":"PLAT","test":"Platelets","cat":"HEMATOLOGY","orres":"298.67","orresu":"10^9/L","stresc":"298.67","stresn":"298.67","stresu":"10^9/L","stnrlo":"150","stnrhi":"400","nrind":"NORMAL","fast":null,"dtc":"2024-02-26","dy":"1","visit":"BASELINE","visitnum":"2.0","epoch":"TREATMENT","spec":null,"method":null},{"seq":"14","testcd":"WBC","test":"Leukocytes","cat":"HEMATOLOGY","orres":"3.12","orresu":"10^9/L","stresc":"3.12","stresn":"3.12","stresu":"10^9/L","stnrlo":"4.0","stnrhi":"11.0","nrind":"LOW","fast":null,"dtc":"2024-02-26","dy":"1","visit":"BASELINE","visitnum":"2.0","epoch":"TREATMENT","spec":null,"method":null},{"seq":"15","testcd":"ALT","test":"Alanine Aminotransferase","cat":"CHEMISTRY","orres":"18.16","orresu":"U/L","stresc":"18.16","stresn":"18.16","stresu":"U/L","stnrlo":"7","stnrhi":"56","nrind":"NORMAL","fast":null,"dtc":"2024-03-14","dy":"18","visit":"WEEK 2","visitnum":"3.0","epoch":"TREATMENT","spec":null,"method":null},{"seq":"16","testcd":"AST","test":"Aspartate Aminotransferase","cat":"CHEMISTRY","orres":"19.22","orresu":"U/L","stresc":"19.22","stresn":"19.22","stresu":"U/L","stnrlo":"10","stnrhi":"40","nrind":"NORMAL","fast":null,"dtc":"2024-03-14","dy":"18","visit":"WEEK 2","visitnum":"3.0","epoch":"TREATMENT","spec":null,"method":null},{"seq":"17","testcd":"CREAT","test":"Creatinine","cat":"CHEMISTRY","orres":"100.37","orresu":"umol/L","stresc":"100.37","stresn":"100.37","stresu":"umol/L","stnrlo":"62","stnrhi":"106","nrind":"NORMAL","fast":null,"dtc":"2024-03-14","dy":"18","visit":"WEEK 2","visitnum":"3.0","epoch":"TREATMENT","spec":null,"method":null},{"seq":"18","testcd":"GLUC","test":"Glucose","cat":"CHEMISTRY","orres":"4.17","orresu":"mmol/L","stresc":"4.17","stresn":"4.17","stresu":"mmol/L","stnrlo":"3.9","stnrhi":"5.6","nrind":"NORMAL","fast":null,"dtc":"2024-03-14","dy":"18","visit":"WEEK 2","visitnum":"3.0","epoch":"TREATMENT","spec":null,"method":null},{"seq":"19","testcd":"HGB","test":"Hemoglobin","cat":"HEMATOLOGY","orres":"136.42","orresu":"g/L","stresc":"136.42","stresn":"136.42","stresu":"g/L","stnrlo":"130","stnrhi":"175","nrind":"NORMAL","fast":null,"dtc":"2024-03-14","dy":"18","visit":"WEEK 2","visitnum":"3.0","epoch":"TREATMENT","spec":null,"method":null},{"seq":"20","testcd":"PLAT","test":"Platelets","cat":"HEMATOLOGY","orres":"291.09","orresu":"10^9/L","stresc":"291.09","stresn":"291.09","stresu":"10^9/L","stnrlo":"150","stnrhi":"400","nrind":"NORMAL","fast":null,"dtc":"2024-03-14","dy":"18","visit":"WEEK 2","visitnum":"3.0","epoch":"TREATMENT","spec":null,"method":null},{"seq":"21","testcd":"WBC","test":"Leukocytes","cat":"HEMATOLOGY","orres":"3.05","orresu":"10^9/L","stresc":"3.05","stresn":"3.05","stresu":"10^9/L","stnrlo":"4.0","stnrhi":"11.0","nrind":"LOW","fast":null,"dtc":"2024-03-14","dy":"18","visit":"WEEK 2","visitnum":"3.0","epoch":"TREATMENT","spec":null,"method":null},{"seq":"22","testcd":"ALT","test":"Alanine Aminotransferase","cat":"CHEMISTRY","orres":"18.73","orresu":"U/L","stresc":"18.73","stresn":"18.73","stresu":"U/L","stnrlo":"7","stnrhi":"56","nrind":"NORMAL","fast":null,"dtc":"2024-03-27","dy":"31","visit":"WEEK 4","visitnum":"4.0","epoch":"TREATMENT","spec":null,"method":null},{"seq":"23","testcd":"AST","test":"Aspartate Aminotransferase","cat":"CHEMISTRY","orres":"16.95","orresu":"U/L","stresc":"16.95","stresn":"16.95","stresu":"U/L","stnrlo":"10","stnrhi":"40","nrind":"NORMAL","fast":null,"dtc":"2024-03-27","dy":"31","visit":"WEEK 4","visitnum":"4.0","epoch":"TREATMENT","spec":null,"method":null},{"seq":"24","testcd":"CREAT","test":"Creatinine","cat":"CHEMISTRY","orres":"99.86","orresu":"umol/L","stresc":"99.86","stresn":"99.86","stresu":"umol/L","stnrlo":"62","stnrhi":"106","nrind":"NORMAL","fast":null,"dtc":"2024-03-27","dy":"31","visit":"WEEK 4","visitnum":"4.0","epoch":"TREATMENT","spec":null,"method":null},{"seq":"25","testcd":"GLUC","test":"Glucose","cat":"CHEMISTRY","orres":"4.26","orresu":"mmol/L","stresc":"4.26","stresn":"4.26","stresu":"mmol/L","stnrlo":"3.9","stnrhi":"5.6","nrind":"NORMAL","fast":null,"dtc":"2024-03-27","dy":"31","visit":"WEEK 4","visitnum":"4.0","epoch":"TREATMENT","spec":null,"method":null},{"seq":"26","testcd":"HGB","test":"Hemoglobin","cat":"HEMATOLOGY","orres":"138.18","orresu":"g/L","stresc":"138.18","stresn":"138.18","stresu":"g/L","stnrlo":"130","stnrhi":"175","nrind":"NORMAL","fast":null,"dtc":"2024-03-27","dy":"31","visit":"WEEK 4","visitnum":"4.0","epoch":"TREATMENT","spec":null,"method":null},{"seq":"27","testcd":"PLAT","test":"Platelets","cat":"HEMATOLOGY","orres":"291.55","orresu":"10^9/L","stresc":"291.55","stresn":"291.55","stresu":"10^9/L","stnrlo":"150","stnrhi":"400","nrind":"NORMAL","fast":null,"dtc":"2024-03-27","dy":"31","visit":"WEEK 4","visitnum":"4.0","epoch":"TREATMENT","spec":null,"method":null},{"seq":"28","testcd":"WBC","test":"Leukocytes","cat":"HEMATOLOGY","orres":"3.24","orresu":"10^9/L","stresc":"3.24","stresn":"3.24","stresu":"10^9/L","stnrlo":"4.0","stnrhi":"11.0","nrind":"LOW","fast":null,"dtc":"2024-03-27","dy":"31","visit":"WEEK 4","visitnum":"4.0","epoch":"TREATMENT","spec":null,"method":null},{"seq":"29","testcd":"ALT","test":"Alanine Aminotransferase","cat":"CHEMISTRY","orres":"18.27","orresu":"U/L","stresc":"18.27","stresn":"18.27","stresu":"U/L","stnrlo":"7","stnrhi":"56","nrind":"NORMAL","fast":null,"dtc":"2024-04-22","dy":"57","visit":"WEEK 8","visitnum":"5.0","epoch":"TREATMENT","spec":null,"method":null},{"seq":"30","testcd":"AST","test":"Aspartate Aminotransferase","cat":"CHEMISTRY","orres":"16.39","orresu":"U/L","stresc":"16.39","stresn":"16.39","stresu":"U/L","stnrlo":"10","stnrhi":"40","nrind":"NORMAL","fast":null,"dtc":"2024-04-22","dy":"57","visit":"WEEK 8","visitnum":"5.0","epoch":"TREATMENT","spec":null,"method":null},{"seq":"31","testcd":"CREAT","test":"Creatinine","cat":"CHEMISTRY","orres":"99.53","orresu":"umol/L","stresc":"99.53","stresn":"99.53","stresu":"umol/L","stnrlo":"62","stnrhi":"106","nrind":"NORMAL","fast":null,"dtc":"2024-04-22","dy":"57","visit":"WEEK 8","visitnum":"5.0","epoch":"TREATMENT","spec":null,"method":null},{"seq":"32","testcd":"GLUC","test":"Glucose","cat":"CHEMISTRY","orres":"4.21","orresu":"mmol/L","stresc":"4.21","stresn":"4.21","stresu":"mmol/L","stnrlo":"3.9","stnrhi":"5.6","nrind":"NORMAL","fast":null,"dtc":"2024-04-22","dy":"57","visit":"WEEK 8","visitnum":"5.0","epoch":"TREATMENT","spec":null,"method":null},{"seq":"33","testcd":"HGB","test":"Hemoglobin","cat":"HEMATOLOGY","orres":"137.65","orresu":"g/L","stresc":"137.65","stresn":"137.65","stresu":"g/L","stnrlo":"130","stnrhi":"175","nrind":"NORMAL","fast":null,"dtc":"2024-04-22","dy":"57","visit":"WEEK 8","visitnum":"5.0","epoch":"TREATMENT","spec":null,"method":null},{"seq":"34","testcd":"PLAT","test":"Platelets","cat":"HEMATOLOGY","orres":"305.26","orresu":"10^9/L","stresc":"305.26","stresn":"305.26","stresu":"10^9/L","stnrlo":"150","stnrhi":"400","nrind":"NORMAL","fast":null,"dtc":"2024-04-22","dy":"57","visit":"WEEK 8","visitnum":"5.0","epoch":"TREATMENT","spec":null,"method":null},{"seq":"35","testcd":"WBC","test":"Leukocytes","cat":"HEMATOLOGY","orres":"3.1","orresu":"10^9/L","stresc":"3.1","stresn":"3.1","stresu":"10^9/L","stnrlo":"4.0","stnrhi":"11.0","nrind":"LOW","fast":null,"dtc":"2024-04-22","dy":"57","visit":"WEEK 8","visitnum":"5.0","epoch":"TREATMENT","spec":null,"method":null},{"seq":"36","testcd":"ALT","test":"Alanine Aminotransferase","cat":"CHEMISTRY","orres":"16.91","orresu":"U/L","stresc":"16.91","stresn":"16.91","stresu":"U/L","stnrlo":"7","stnrhi":"56","nrind":"NORMAL","fast":null,"dtc":"2024-05-20","dy":"85","visit":"WEEK 12","visitnum":"6.0","epoch":"TREATMENT","spec":null,"method":null},{"seq":"37","testcd":"AST","test":"Aspartate Aminotransferase","cat":"CHEMISTRY","orres":"18.13","orresu":"U/L","stresc":"18.13","stresn":"18.13","stresu":"U/L","stnrlo":"10","stnrhi":"40","nrind":"NORMAL","fast":null,"dtc":"2024-05-20","dy":"85","visit":"WEEK 12","visitnum":"6.0","epoch":"TREATMENT","spec":null,"method":null},{"seq":"38","testcd":"CREAT","test":"Creatinine","cat":"CHEMISTRY","orres":"102.53","orresu":"umol/L","stresc":"102.53","stresn":"102.53","stresu":"umol/L","stnrlo":"62","stnrhi":"106","nrind":"NORMAL","fast":null,"dtc":"2024-05-20","dy":"85","visit":"WEEK 12","visitnum":"6.0","epoch":"TREATMENT","spec":null,"method":null},{"seq":"39","testcd":"GLUC","test":"Glucose","cat":"CHEMISTRY","orres":"4.07","orresu":"mmol/L","stresc":"4.07","stresn":"4.07","stresu":"mmol/L","stnrlo":"3.9","stnrhi":"5.6","nrind":"NORMAL","fast":null,"dtc":"2024-05-20","dy":"85","visit":"WEEK 12","visitnum":"6.0","epoch":"TREATMENT","spec":null,"method":null},{"seq":"40","testcd":"HGB","test":"Hemoglobin","cat":"HEMATOLOGY","orres":"138.45","orresu":"g/L","stresc":"138.45","stresn":"138.45","stresu":"g/L","stnrlo":"130","stnrhi":"175","nrind":"NORMAL","fast":null,"dtc":"2024-05-20","dy":"85","visit":"WEEK 12","visitnum":"6.0","epoch":"TREATMENT","spec":null,"method":null},{"seq":"41","testcd":"PLAT","test":"Platelets","cat":"HEMATOLOGY","orres":"298.65","orresu":"10^9/L","stresc":"298.65","stresn":"298.65","stresu":"10^9/L","stnrlo":"150","stnrhi":"400","nrind":"NORMAL","fast":null,"dtc":"2024-05-20","dy":"85","visit":"WEEK 12","visitnum":"6.0","epoch":"TREATMENT","spec":null,"method":null},{"seq":"42","testcd":"WBC","test":"Leukocytes","cat":"HEMATOLOGY","orres":null,"orresu":null,"stresc":null,"stresn":null,"stresu":null,"stnrlo":null,"stnrhi":null,"nrind":null,"fast":null,"dtc":"2024-05-20","dy":"85","visit":"WEEK 12","visitnum":"6.0","epoch":"TREATMENT","spec":null,"method":null},{"seq":"43","testcd":"ALT","test":"Alanine Aminotransferase","cat":"CHEMISTRY","orres":null,"orresu":null,"stresc":null,"stresn":null,"stresu":null,"stnrlo":null,"stnrhi":null,"nrind":null,"fast":null,"dtc":"2024-08-10","dy":"167","visit":"WEEK 24","visitnum":"7.0","epoch":"TREATMENT","spec":null,"method":null},{"seq":"44","testcd":"AST","test":"Aspartate Aminotransferase","cat":"CHEMISTRY","orres":null,"orresu":null,"stresc":null,"stresn":null,"stresu":null,"stnrlo":null,"stnrhi":null,"nrind":null,"fast":null,"dtc":"2024-08-10","dy":"167","visit":"WEEK 24","visitnum":"7.0","epoch":"TREATMENT","spec":null,"method":null},{"seq":"45","testcd":"CREAT","test":"Creatinine","cat":"CHEMISTRY","orres":"102.53","orresu":"umol/L","stresc":"102.53","stresn":"102.53","stresu":"umol/L","stnrlo":"62","stnrhi":"106","nrind":"NORMAL","fast":null,"dtc":"2024-08-10","dy":"167","visit":"WEEK 24","visitnum":"7.0","epoch":"TREATMENT","spec":null,"method":null},{"seq":"46","testcd":"GLUC","test":"Glucose","cat":"CHEMISTRY","orres":"4.11","orresu":"mmol/L","stresc":"4.11","stresn":"4.11","stresu":"mmol/L","stnrlo":"3.9","stnrhi":"5.6","nrind":"NORMAL","fast":null,"dtc":"2024-08-10","dy":"167","visit":"WEEK 24","visitnum":"7.0","epoch":"TREATMENT","spec":null,"method":null},{"seq":"47","testcd":"HGB","test":"Hemoglobin","cat":"HEMATOLOGY","orres":"138.44","orresu":"g/L","stresc":"138.44","stresn":"138.44","stresu":"g/L","stnrlo":"130","stnrhi":"175","nrind":"NORMAL","fast":null,"dtc":"2024-08-10","dy":"167","visit":"WEEK 24","visitnum":"7.0","epoch":"TREATMENT","spec":null,"method":null},{"seq":"48","testcd":"PLAT","test":"Platelets","cat":"HEMATOLOGY","orres":"299.77","orresu":"10^9/L","stresc":"299.77","stresn":"299.77","stresu":"10^9/L","stnrlo":"150","stnrhi":"400","nrind":"NORMAL","fast":null,"dtc":"2024-08-10","dy":"167","visit":"WEEK 24","visitnum":"7.0","epoch":"TREATMENT","spec":null,"method":null},{"seq":"49","testcd":"WBC","test":"Leukocytes","cat":"HEMATOLOGY","orres":"3.31","orresu":"10^9/L","stresc":"3.31","stresn":"3.31","stresu":"10^9/L","stnrlo":"4.0","stnrhi":"11.0","nrind":"LOW","fast":null,"dtc":"2024-08-10","dy":"167","visit":"WEEK 24","visitnum":"7.0","epoch":"TREATMENT","spec":null,"method":null},{"seq":"50","testcd":"ALT","test":"Alanine Aminotransferase","cat":"CHEMISTRY","orres":"14.92","orresu":"U/L","stresc":"14.92","stresn":"14.92","stresu":"U/L","stnrlo":"7","stnrhi":"56","nrind":"NORMAL","fast":null,"dtc":"2024-11-05","dy":"254","visit":"WEEK 36","visitnum":"8.0","epoch":"TREATMENT","spec":null,"method":null},{"seq":"51","testcd":"AST","test":"Aspartate Aminotransferase","cat":"CHEMISTRY","orres":null,"orresu":null,"stresc":null,"stresn":null,"stresu":null,"stnrlo":null,"stnrhi":null,"nrind":null,"fast":null,"dtc":"2024-11-05","dy":"254","visit":"WEEK 36","visitnum":"8.0","epoch":"TREATMENT","spec":null,"method":null},{"seq":"52","testcd":"CREAT","test":"Creatinine","cat":"CHEMISTRY","orres":"105.33","orresu":"umol/L","stresc":"105.33","stresn":"105.33","stresu":"umol/L","stnrlo":"62","stnrhi":"106","nrind":"NORMAL","fast":null,"dtc":"2024-11-05","dy":"254","visit":"WEEK 36","visitnum":"8.0","epoch":"TREATMENT","spec":null,"method":null},{"seq":"53","testcd":"GLUC","test":"Glucose","cat":"CHEMISTRY","orres":"4.02","orresu":"mmol/L","stresc":"4.02","stresn":"4.02","stresu":"mmol/L","stnrlo":"3.9","stnrhi":"5.6","nrind":"NORMAL","fast":null,"dtc":"2024-11-05","dy":"254","visit":"WEEK 36","visitnum":"8.0","epoch":"TREATMENT","spec":null,"method":null},{"seq":"54","testcd":"HGB","test":"Hemoglobin","cat":"HEMATOLOGY","orres":"139.15","orresu":"g/L","stresc":"139.15","stresn":"139.15","stresu":"g/L","stnrlo":"130","stnrhi":"175","nrind":"NORMAL","fast":null,"dtc":"2024-11-05","dy":"254","visit":"WEEK 36","visitnum":"8.0","epoch":"TREATMENT","spec":null,"method":null},{"seq":"55","testcd":"PLAT","test":"Platelets","cat":"HEMATOLOGY","orres":"310.76","orresu":"10^9/L","stresc":"310.76","stresn":"310.76","stresu":"10^9/L","stnrlo":"150","stnrhi":"400","nrind":"NORMAL","fast":null,"dtc":"2024-11-05","dy":"254","visit":"WEEK 36","visitnum":"8.0","epoch":"TREATMENT","spec":null,"method":null},{"seq":"56","testcd":"WBC","test":"Leukocytes","cat":"HEMATOLOGY","orres":"2.96","orresu":"10^9/L","stresc":"2.96","stresn":"2.96","stresu":"10^9/L","stnrlo":"4.0","stnrhi":"11.0","nrind":"LOW","fast":null,"dtc":"2024-11-05","dy":"254","visit":"WEEK 36","visitnum":"8.0","epoch":"TREATMENT","spec":null,"method":null},{"seq":"57","testcd":"ALT","test":"Alanine Aminotransferase","cat":"CHEMISTRY","orres":"15.02","orresu":"U/L","stresc":"15.02","stresn":"15.02","stresu":"U/L","stnrlo":"7","stnrhi":"56","nrind":"NORMAL","fast":null,"dtc":"2025-04-08","dy":"408","visit":"WEEK 58","visitnum":"9.0","epoch":"TREATMENT","spec":null,"method":null},{"seq":"58","testcd":"AST","test":"Aspartate Aminotransferase","cat":"CHEMISTRY","orres":"18.03","orresu":"U/L","stresc":"18.03","stresn":"18.03","stresu":"U/L","stnrlo":"10","stnrhi":"40","nrind":"NORMAL","fast":null,"dtc":"2025-04-08","dy":"408","visit":"WEEK 58","visitnum":"9.0","epoch":"TREATMENT","spec":null,"method":null},{"seq":"59","testcd":"CREAT","test":"Creatinine","cat":"CHEMISTRY","orres":"104.58","orresu":"umol/L","stresc":"104.58","stresn":"104.58","stresu":"umol/L","stnrlo":"62","stnrhi":"106","nrind":"NORMAL","fast":null,"dtc":"2025-04-08","dy":"408","visit":"WEEK 58","visitnum":"9.0","epoch":"TREATMENT","spec":null,"method":null},{"seq":"60","testcd":"GLUC","test":"Glucose","cat":"CHEMISTRY","orres":"4.11","orresu":"mmol/L","stresc":"4.11","stresn":"4.11","stresu":"mmol/L","stnrlo":"3.9","stnrhi":"5.6","nrind":"NORMAL","fast":null,"dtc":"2025-04-08","dy":"408","visit":"WEEK 58","visitnum":"9.0","epoch":"TREATMENT","spec":null,"method":null},{"seq":"61","testcd":"HGB","test":"Hemoglobin","cat":"HEMATOLOGY","orres":"138.95","orresu":"g/L","stresc":"138.95","stresn":"138.95","stresu":"g/L","stnrlo":"130","stnrhi":"175","nrind":"NORMAL","fast":null,"dtc":"2025-04-08","dy":"408","visit":"WEEK 58","visitnum":"9.0","epoch":"TREATMENT","spec":null,"method":null},{"seq":"62","testcd":"PLAT","test":"Platelets","cat":"HEMATOLOGY","orres":"308.96","orresu":"10^9/L","stresc":"308.96","stresn":"308.96","stresu":"10^9/L","stnrlo":"150","stnrhi":"400","nrind":"NORMAL","fast":null,"dtc":"2025-04-08","dy":"408","visit":"WEEK 58","visitnum":"9.0","epoch":"TREATMENT","spec":null,"method":null},{"seq":"63","testcd":"WBC","test":"Leukocytes","cat":"HEMATOLOGY","orres":"3.57","orresu":"10^9/L","stresc":"3.57","stresn":"3.57","stresu":"10^9/L","stnrlo":"4.0","stnrhi":"11.0","nrind":"LOW","fast":null,"dtc":"2025-04-08","dy":"408","visit":"WEEK 58","visitnum":"9.0","epoch":"TREATMENT","spec":null,"method":null},{"seq":"64","testcd":"ALT","test":"Alanine Aminotransferase","cat":"CHEMISTRY","orres":"17.13","orresu":"U/L","stresc":"17.13","stresn":"17.13","stresu":"U/L","stnrlo":"7","stnrhi":"56","nrind":"NORMAL","fast":null,"dtc":"2025-10-10","dy":"593","visit":"WEEK 84","visitnum":"10.0","epoch":"TREATMENT","spec":null,"method":null},{"seq":"65","testcd":"AST","test":"Aspartate Aminotransferase","cat":"CHEMISTRY","orres":"19.68","orresu":"U/L","stresc":"19.68","stresn":"19.68","stresu":"U/L","stnrlo":"10","stnrhi":"40","nrind":"NORMAL","fast":null,"dtc":"2025-10-10","dy":"593","visit":"WEEK 84","visitnum":"10.0","epoch":"TREATMENT","spec":null,"method":null},{"seq":"66","testcd":"CREAT","test":"Creatinine","cat":"CHEMISTRY","orres":"104.73","orresu":"umol/L","stresc":"104.73","stresn":"104.73","stresu":"umol/L","stnrlo":"62","stnrhi":"106","nrind":"NORMAL","fast":null,"dtc":"2025-10-10","dy":"593","visit":"WEEK 84","visitnum":"10.0","epoch":"TREATMENT","spec":null,"method":null},{"seq":"67","testcd":"GLUC","test":"Glucose","cat":"CHEMISTRY","orres":"4.16","orresu":"mmol/L","stresc":"4.16","stresn":"4.16","stresu":"mmol/L","stnrlo":"3.9","stnrhi":"5.6","nrind":"NORMAL","fast":null,"dtc":"2025-10-10","dy":"593","visit":"WEEK 84","visitnum":"10.0","epoch":"TREATMENT","spec":null,"method":null},{"seq":"68","testcd":"HGB","test":"Hemoglobin","cat":"HEMATOLOGY","orres":"139.38","orresu":"g/L","stresc":"139.38","stresn":"139.38","stresu":"g/L","stnrlo":"130","stnrhi":"175","nrind":"NORMAL","fast":null,"dtc":"2025-10-10","dy":"593","visit":"WEEK 84","visitnum":"10.0","epoch":"TREATMENT","spec":null,"method":null},{"seq":"69","testcd":"PLAT","test":"Platelets","cat":"HEMATOLOGY","orres":"317.19","orresu":"10^9/L","stresc":"317.19","stresn":"317.19","stresu":"10^9/L","stnrlo":"150","stnrhi":"400","nrind":"NORMAL","fast":null,"dtc":"2025-10-10","dy":"593","visit":"WEEK 84","visitnum":"10.0","epoch":"TREATMENT","spec":null,"method":null},{"seq":"70","testcd":"WBC","test":"Leukocytes","cat":"HEMATOLOGY","orres":"4.44","orresu":"10^9/L","stresc":"4.44","stresn":"4.44","stresu":"10^9/L","stnrlo":"4.0","stnrhi":"11.0","nrind":"NORMAL","fast":null,"dtc":"2025-10-10","dy":"593","visit":"WEEK 84","visitnum":"10.0","epoch":"TREATMENT","spec":null,"method":null},{"seq":"71","testcd":"ALT","test":"Alanine Aminotransferase","cat":"CHEMISTRY","orres":"14.28","orresu":"U/L","stresc":"14.28","stresn":"14.28","stresu":"U/L","stnrlo":"7","stnrhi":"56","nrind":"NORMAL","fast":null,"dtc":"2026-03-30","dy":"764","visit":"WEEK 110","visitnum":"11.0","epoch":"TREATMENT","spec":null,"method":null},{"seq":"72","testcd":"AST","test":"Aspartate Aminotransferase","cat":"CHEMISTRY","orres":"19.26","orresu":"U/L","stresc":"19.26","stresn":"19.26","stresu":"U/L","stnrlo":"10","stnrhi":"40","nrind":"NORMAL","fast":null,"dtc":"2026-03-30","dy":"764","visit":"WEEK 110","visitnum":"11.0","epoch":"TREATMENT","spec":null,"method":null},{"seq":"73","testcd":"CREAT","test":"Creatinine","cat":"CHEMISTRY","orres":"102.16","orresu":"umol/L","stresc":"102.16","stresn":"102.16","stresu":"umol/L","stnrlo":"62","stnrhi":"106","nrind":"NORMAL","fast":null,"dtc":"2026-03-30","dy":"764","visit":"WEEK 110","visitnum":"11.0","epoch":"TREATMENT","spec":null,"method":null},{"seq":"74","testcd":"GLUC","test":"Glucose","cat":"CHEMISTRY","orres":"4.21","orresu":"mmol/L","stresc":"4.21","stresn":"4.21","stresu":"mmol/L","stnrlo":"3.9","stnrhi":"5.6","nrind":"NORMAL","fast":null,"dtc":"2026-03-30","dy":"764","visit":"WEEK 110","visitnum":"11.0","epoch":"TREATMENT","spec":null,"method":null},{"seq":"75","testcd":"HGB","test":"Hemoglobin","cat":"HEMATOLOGY","orres":"138.07","orresu":"g/L","stresc":"138.07","stresn":"138.07","stresu":"g/L","stnrlo":"130","stnrhi":"175","nrind":"NORMAL","fast":null,"dtc":"2026-03-30","dy":"764","visit":"WEEK 110","visitnum":"11.0","epoch":"TREATMENT","spec":null,"method":null},{"seq":"76","testcd":"PLAT","test":"Platelets","cat":"HEMATOLOGY","orres":"308.65","orresu":"10^9/L","stresc":"308.65","stresn":"308.65","stresu":"10^9/L","stnrlo":"150","stnrhi":"400","nrind":"NORMAL","fast":null,"dtc":"2026-03-30","dy":"764","visit":"WEEK 110","visitnum":"11.0","epoch":"TREATMENT","spec":null,"method":null},{"seq":"77","testcd":"WBC","test":"Leukocytes","cat":"HEMATOLOGY","orres":"4.72","orresu":"10^9/L","stresc":"4.72","stresn":"4.72","stresu":"10^9/L","stnrlo":"4.0","stnrhi":"11.0","nrind":"NORMAL","fast":null,"dtc":"2026-03-30","dy":"764","visit":"WEEK 110","visitnum":"11.0","epoch":"TREATMENT","spec":null,"method":null},{"seq":"78","testcd":"ALT","test":"Alanine Aminotransferase","cat":"CHEMISTRY","orres":"13.38","orresu":"U/L","stresc":"13.38","stresn":"13.38","stresu":"U/L","stnrlo":"7","stnrhi":"56","nrind":"NORMAL","fast":null,"dtc":"2026-06-01","dy":"827","visit":"SAFETY FU","visitnum":"13.0","epoch":"FOLLOW-UP","spec":null,"method":null},{"seq":"79","testcd":"AST","test":"Aspartate Aminotransferase","cat":"CHEMISTRY","orres":"19.32","orresu":"U/L","stresc":"19.32","stresn":"19.32","stresu":"U/L","stnrlo":"10","stnrhi":"40","nrind":"NORMAL","fast":null,"dtc":"2026-06-01","dy":"827","visit":"SAFETY FU","visitnum":"13.0","epoch":"FOLLOW-UP","spec":null,"method":null},{"seq":"80","testcd":"CREAT","test":"Creatinine","cat":"CHEMISTRY","orres":"102.8","orresu":"umol/L","stresc":"102.8","stresn":"102.8","stresu":"umol/L","stnrlo":"62","stnrhi":"106","nrind":"NORMAL","fast":null,"dtc":"2026-06-01","dy":"827","visit":"SAFETY FU","visitnum":"13.0","epoch":"FOLLOW-UP","spec":null,"method":null},{"seq":"81","testcd":"GLUC","test":"Glucose","cat":"CHEMISTRY","orres":"4.14","orresu":"mmol/L","stresc":"4.14","stresn":"4.14","stresu":"mmol/L","stnrlo":"3.9","stnrhi":"5.6","nrind":"NORMAL","fast":null,"dtc":"2026-06-01","dy":"827","visit":"SAFETY FU","visitnum":"13.0","epoch":"FOLLOW-UP","spec":null,"method":null},{"seq":"82","testcd":"HGB","test":"Hemoglobin","cat":"HEMATOLOGY","orres":"139.12","orresu":"g/L","stresc":"139.12","stresn":"139.12","stresu":"g/L","stnrlo":"130","stnrhi":"175","nrind":"NORMAL","fast":null,"dtc":"2026-06-01","dy":"827","visit":"SAFETY FU","visitnum":"13.0","epoch":"FOLLOW-UP","spec":null,"method":null},{"seq":"83","testcd":"PLAT","test":"Platelets","cat":"HEMATOLOGY","orres":"311.66","orresu":"10^9/L","stresc":"311.66","stresn":"311.66","stresu":"10^9/L","stnrlo":"150","stnrhi":"400","nrind":"NORMAL","fast":null,"dtc":"2026-06-01","dy":"827","visit":"SAFETY FU","visitnum":"13.0","epoch":"FOLLOW-UP","spec":null,"method":null},{"seq":"84","testcd":"WBC","test":"Leukocytes","cat":"HEMATOLOGY","orres":"3.28","orresu":"10^9/L","stresc":"3.28","stresn":"3.28","stresu":"10^9/L","stnrlo":"4.0","stnrhi":"11.0","nrind":"LOW","fast":null,"dtc":"2026-06-01","dy":"827","visit":"SAFETY FU","visitnum":"13.0","epoch":"FOLLOW-UP","spec":null,"method":null}]},"section_9_vital_signs":{"summary":{"total_records":88},"trends":{"BMI":[{"visit":"SCREENING","visitnum":"1.0","dtc":"2024-01-05","value":"28.8","unit":"kg/m2"},{"visit":"BASELINE","visitnum":"2.0","dtc":"2024-02-26","value":"28.6","unit":"kg/m2"},{"visit":"WEEK 8","visitnum":"5.0","dtc":"2024-04-22","value":"28.9","unit":"kg/m2"},{"visit":"WEEK 12","visitnum":"6.0","dtc":"2024-05-20","value":"29.9","unit":"kg/m2"},{"visit":"WEEK 24","visitnum":"7.0","dtc":"2024-08-10","value":"29.5","unit":"kg/m2"},{"visit":"WEEK 36","visitnum":"8.0","dtc":"2024-11-05","value":"30.0","unit":"kg/m2"},{"visit":"WEEK 58","visitnum":"9.0","dtc":"2025-04-08","value":"30.2","unit":"kg/m2"},{"visit":"WEEK 84","visitnum":"10.0","dtc":"2025-10-10","value":"31.1","unit":"kg/m2"},{"visit":"WEEK 110","visitnum":"11.0","dtc":"2026-03-30","value":"30.1","unit":"kg/m2"},{"visit":"WEEK 114 EOT","visitnum":"12.0","dtc":"2026-05-02","value":"31.0","unit":"kg/m2"},{"visit":"SAFETY FU","visitnum":"13.0","dtc":"2026-06-01","value":"31.2","unit":"kg/m2"}],"DIABP":[{"visit":"SCREENING","visitnum":"1.0","dtc":"2024-01-05","value":"66.9","unit":"mmHg"},{"visit":"BASELINE","visitnum":"2.0","dtc":"2024-02-26","value":"66.1","unit":"mmHg"},{"visit":"WEEK 8","visitnum":"5.0","dtc":"2024-04-22","value":"64.5","unit":"mmHg"},{"visit":"WEEK 12","visitnum":"6.0","dtc":"2024-05-20","value":"63.6","unit":"mmHg"},{"visit":"WEEK 24","visitnum":"7.0","dtc":"2024-08-10","value":"63.9","unit":"mmHg"},{"visit":"WEEK 36","visitnum":"8.0","dtc":"2024-11-05","value":"57.5","unit":"mmHg"},{"visit":"WEEK 58","visitnum":"9.0","dtc":"2025-04-08","value":"65.2","unit":"mmHg"},{"visit":"WEEK 84","visitnum":"10.0","dtc":"2025-10-10","value":"66.1","unit":"mmHg"},{"visit":"WEEK 110","visitnum":"11.0","dtc":"2026-03-30","value":"63.8","unit":"mmHg"},{"visit":"WEEK 114 EOT","visitnum":"12.0","dtc":"2026-05-02","value":"65.1","unit":"mmHg"},{"visit":"SAFETY FU","visitnum":"13.0","dtc":"2026-06-01","value":"63.2","unit":"mmHg"}],"HEIGHT":[{"visit":"SCREENING","visitnum":"1.0","dtc":"2024-01-05","value":"165.1","unit":"cm"},{"visit":"BASELINE","visitnum":"2.0","dtc":"2024-02-26","value":"165.8","unit":"cm"},{"visit":"WEEK 8","visitnum":"5.0","dtc":"2024-04-22","value":"164.8","unit":"cm"},{"visit":"WEEK 12","visitnum":"6.0","dtc":"2024-05-20","value":"164.4","unit":"cm"},{"visit":"WEEK 24","visitnum":"7.0","dtc":"2024-08-10","value":"164.0","unit":"cm"},{"visit":"WEEK 36","visitnum":"8.0","dtc":"2024-11-05","value":"163.7","unit":"cm"},{"visit":"WEEK 58","visitnum":"9.0","dtc":"2025-04-08","value":"163.8","unit":"cm"},{"visit":"WEEK 84","visitnum":"10.0","dtc":"2025-10-10","value":"163.3","unit":"cm"},{"visit":"WEEK 110","visitnum":"11.0","dtc":"2026-03-30","value":"163.9","unit":"cm"},{"visit":"WEEK 114 EOT","visitnum":"12.0","dtc":"2026-05-02","value":"163.6","unit":"cm"},{"visit":"SAFETY FU","visitnum":"13.0","dtc":"2026-06-01","value":"163.3","unit":"cm"}],"PULSE":[{"visit":"SCREENING","visitnum":"1.0","dtc":"2024-01-05","value":"94.9","unit":"beats/min"},{"visit":"BASELINE","visitnum":"2.0","dtc":"2024-02-26","value":"89.7","unit":"beats/min"},{"visit":"WEEK 8","visitnum":"5.0","dtc":"2024-04-22","value":"90.1","unit":"beats/min"},{"visit":"WEEK 12","visitnum":"6.0","dtc":"2024-05-20","value":"93.8","unit":"beats/min"},{"visit":"WEEK 24","visitnum":"7.0","dtc":"2024-08-10","value":"99.2","unit":"beats/min"},{"visit":"WEEK 36","visitnum":"8.0","dtc":"2024-11-05","value":"105.8","unit":"beats/min"},{"visit":"WEEK 58","visitnum":"9.0","dtc":"2025-04-08","value":"105.0","unit":"beats/min"},{"visit":"WEEK 84","visitnum":"10.0","dtc":"2025-10-10","value":"101.7","unit":"beats/min"},{"visit":"WEEK 110","visitnum":"11.0","dtc":"2026-03-30","value":"98.7","unit":"beats/min"},{"visit":"WEEK 114 EOT","visitnum":"12.0","dtc":"2026-05-02","value":"95.8","unit":"beats/min"},{"visit":"SAFETY FU","visitnum":"13.0","dtc":"2026-06-01","value":"92.5","unit":"beats/min"}],"RESP":[{"visit":"SCREENING","visitnum":"1.0","dtc":"2024-01-05","value":"15.2","unit":"breaths/min"},{"visit":"BASELINE","visitnum":"2.0","dtc":"2024-02-26","value":"15.9","unit":"breaths/min"},{"visit":"WEEK 8","visitnum":"5.0","dtc":"2024-04-22","value":"15.0","unit":"breaths/min"},{"visit":"WEEK 12","visitnum":"6.0","dtc":"2024-05-20","value":"14.5","unit":"breaths/min"},{"visit":"WEEK 24","visitnum":"7.0","dtc":"2024-08-10","value":"15.7","unit":"breaths/min"},{"visit":"WEEK 36","visitnum":"8.0","dtc":"2024-11-05","value":"19.4","unit":"breaths/min"},{"visit":"WEEK 58","visitnum":"9.0","dtc":"2025-04-08","value":"19.0","unit":"breaths/min"},{"visit":"WEEK 84","visitnum":"10.0","dtc":"2025-10-10","value":"17.1","unit":"breaths/min"},{"visit":"WEEK 110","visitnum":"11.0","dtc":"2026-03-30","value":"15.0","unit":"breaths/min"},{"visit":"WEEK 114 EOT","visitnum":"12.0","dtc":"2026-05-02","value":"15.6","unit":"breaths/min"},{"visit":"SAFETY FU","visitnum":"13.0","dtc":"2026-06-01","value":"15.5","unit":"breaths/min"}],"SYSBP":[{"visit":"SCREENING","visitnum":"1.0","dtc":"2024-01-05","value":"152.3","unit":"mmHg"},{"visit":"BASELINE","visitnum":"2.0","dtc":"2024-02-26","value":"151.9","unit":"mmHg"},{"visit":"WEEK 8","visitnum":"5.0","dtc":"2024-04-22","value":"150.1","unit":"mmHg"},{"visit":"WEEK 12","visitnum":"6.0","dtc":"2024-05-20","value":"149.9","unit":"mmHg"},{"visit":"WEEK 24","visitnum":"7.0","dtc":"2024-08-10","value":"149.6","unit":"mmHg"},{"visit":"WEEK 36","visitnum":"8.0","dtc":"2024-11-05","value":"141.8","unit":"mmHg"},{"visit":"WEEK 58","visitnum":"9.0","dtc":"2025-04-08","value":"153.1","unit":"mmHg"},{"visit":"WEEK 84","visitnum":"10.0","dtc":"2025-10-10","value":"156.5","unit":"mmHg"},{"visit":"WEEK 110","visitnum":"11.0","dtc":"2026-03-30","value":"155.4","unit":"mmHg"},{"visit":"WEEK 114 EOT","visitnum":"12.0","dtc":"2026-05-02","value":"155.5","unit":"mmHg"},{"visit":"SAFETY FU","visitnum":"13.0","dtc":"2026-06-01","value":"151.2","unit":"mmHg"}],"TEMP":[{"visit":"SCREENING","visitnum":"1.0","dtc":"2024-01-05","value":"36.7","unit":"C"},{"visit":"BASELINE","visitnum":"2.0","dtc":"2024-02-26","value":"36.6","unit":"C"},{"visit":"WEEK 8","visitnum":"5.0","dtc":"2024-04-22","value":"36.6","unit":"C"},{"visit":"WEEK 12","visitnum":"6.0","dtc":"2024-05-20","value":"36.4","unit":"C"},{"visit":"WEEK 24","visitnum":"7.0","dtc":"2024-08-10","value":"36.6","unit":"C"},{"visit":"WEEK 36","visitnum":"8.0","dtc":"2024-11-05","value":"36.4","unit":"C"},{"visit":"WEEK 58","visitnum":"9.0","dtc":"2025-04-08","value":"36.5","unit":"C"},{"visit":"WEEK 84","visitnum":"10.0","dtc":"2025-10-10","value":"36.5","unit":"C"},{"visit":"WEEK 110","visitnum":"11.0","dtc":"2026-03-30","value":"36.6","unit":"C"},{"visit":"WEEK 114 EOT","visitnum":"12.0","dtc":"2026-05-02","value":"36.6","unit":"C"},{"visit":"SAFETY FU","visitnum":"13.0","dtc":"2026-06-01","value":"36.6","unit":"C"}],"WEIGHT":[{"visit":"SCREENING","visitnum":"1.0","dtc":"2024-01-05","value":"78.4","unit":"kg"},{"visit":"BASELINE","visitnum":"2.0","dtc":"2024-02-26","value":"78.7","unit":"kg"},{"visit":"WEEK 8","visitnum":"5.0","dtc":"2024-04-22","value":"78.4","unit":"kg"},{"visit":"WEEK 12","visitnum":"6.0","dtc":"2024-05-20","value":"80.8","unit":"kg"},{"visit":"WEEK 24","visitnum":"7.0","dtc":"2024-08-10","value":"79.4","unit":"kg"},{"visit":"WEEK 36","visitnum":"8.0","dtc":"2024-11-05","value":"80.4","unit":"kg"},{"visit":"WEEK 58","visitnum":"9.0","dtc":"2025-04-08","value":"81.1","unit":"kg"},{"visit":"WEEK 84","visitnum":"10.0","dtc":"2025-10-10","value":"82.9","unit":"kg"},{"visit":"WEEK 110","visitnum":"11.0","dtc":"2026-03-30","value":"80.8","unit":"kg"},{"visit":"WEEK 114 EOT","visitnum":"12.0","dtc":"2026-05-02","value":"82.9","unit":"kg"},{"visit":"SAFETY FU","visitnum":"13.0","dtc":"2026-06-01","value":"83.3","unit":"kg"}]},"results":[{"seq":"1","testcd":"BMI","test":"BMI","cat":null,"orres":null,"orresu":null,"stresc":"28.8","stresn":"28.8","stresu":"kg/m2","stnrlo":null,"stnrhi":null,"nrind":null,"pos":null,"loc":null,"dtc":"2024-01-05","dy":"-52","visit":"SCREENING","visitnum":"1.0","epoch":"SCREENING"},{"seq":"2","testcd":"DIABP","test":"Diastolic Blood Pressure","cat":null,"orres":"66.9","orresu":"mmHg","stresc":"66.9","stresn":"66.9","stresu":"mmHg","stnrlo":null,"stnrhi":null,"nrind":null,"pos":null,"loc":null,"dtc":"2024-01-05","dy":"-52","visit":"SCREENING","visitnum":"1.0","epoch":"SCREENING"},{"seq":"3","testcd":"HEIGHT","test":"Height","cat":null,"orres":"165.1","orresu":"cm","stresc":"165.1","stresn":"165.1","stresu":"cm","stnrlo":null,"stnrhi":null,"nrind":null,"pos":null,"loc":null,"dtc":"2024-01-05","dy":"-52","visit":"SCREENING","visitnum":"1.0","epoch":"SCREENING"},{"seq":"4","testcd":"PULSE","test":"Pulse Rate","cat":null,"orres":"94.9","orresu":"beats/min","stresc":"94.9","stresn":"94.9","stresu":"beats/min","stnrlo":null,"stnrhi":null,"nrind":null,"pos":null,"loc":null,"dtc":"2024-01-05","dy":"-52","visit":"SCREENING","visitnum":"1.0","epoch":"SCREENING"},{"seq":"5","testcd":"RESP","test":"Respiratory Rate","cat":null,"orres":"15.2","orresu":"breaths/min","stresc":"15.2","stresn":"15.2","stresu":"breaths/min","stnrlo":null,"stnrhi":null,"nrind":null,"pos":null,"loc":null,"dtc":"2024-01-05","dy":"-52","visit":"SCREENING","visitnum":"1.0","epoch":"SCREENING"},{"seq":"6","testcd":"SYSBP","test":"Systolic Blood Pressure","cat":null,"orres":"152.3","orresu":"mmHg","stresc":"152.3","stresn":"152.3","stresu":"mmHg","stnrlo":null,"stnrhi":null,"nrind":null,"pos":null,"loc":null,"dtc":"2024-01-05","dy":"-52","visit":"SCREENING","visitnum":"1.0","epoch":"SCREENING"},{"seq":"7","testcd":"TEMP","test":"Temperature","cat":null,"orres":"36.7","orresu":"C","stresc":"36.7","stresn":"36.7","stresu":"C","stnrlo":null,"stnrhi":null,"nrind":null,"pos":null,"loc":null,"dtc":"2024-01-05","dy":"-52","visit":"SCREENING","visitnum":"1.0","epoch":"SCREENING"},{"seq":"8","testcd":"WEIGHT","test":"Weight","cat":null,"orres":"78.4","orresu":"kg","stresc":"78.4","stresn":"78.4","stresu":"kg","stnrlo":null,"stnrhi":null,"nrind":null,"pos":null,"loc":null,"dtc":"2024-01-05","dy":"-52","visit":"SCREENING","visitnum":"1.0","epoch":"SCREENING"},{"seq":"9","testcd":"BMI","test":"BMI","cat":null,"orres":null,"orresu":null,"stresc":"28.6","stresn":"28.6","stresu":"kg/m2","stnrlo":null,"stnrhi":null,"nrind":null,"pos":null,"loc":null,"dtc":"2024-02-26","dy":"1","visit":"BASELINE","visitnum":"2.0","epoch":"TREATMENT"},{"seq":"10","testcd":"DIABP","test":"Diastolic Blood Pressure","cat":null,"orres":"66.1","orresu":"mmHg","stresc":"66.1","stresn":"66.1","stresu":"mmHg","stnrlo":null,"stnrhi":null,"nrind":null,"pos":null,"loc":null,"dtc":"2024-02-26","dy":"1","visit":"BASELINE","visitnum":"2.0","epoch":"TREATMENT"},{"seq":"11","testcd":"HEIGHT","test":"Height","cat":null,"orres":"165.8","orresu":"cm","stresc":"165.8","stresn":"165.8","stresu":"cm","stnrlo":null,"stnrhi":null,"nrind":null,"pos":null,"loc":null,"dtc":"2024-02-26","dy":"1","visit":"BASELINE","visitnum":"2.0","epoch":"TREATMENT"},{"seq":"12","testcd":"PULSE","test":"Pulse Rate","cat":null,"orres":"89.7","orresu":"beats/min","stresc":"89.7","stresn":"89.7","stresu":"beats/min","stnrlo":null,"stnrhi":null,"nrind":null,"pos":null,"loc":null,"dtc":"2024-02-26","dy":"1","visit":"BASELINE","visitnum":"2.0","epoch":"TREATMENT"},{"seq":"13","testcd":"RESP","test":"Respiratory Rate","cat":null,"orres":"15.9","orresu":"breaths/min","stresc":"15.9","stresn":"15.9","stresu":"breaths/min","stnrlo":null,"stnrhi":null,"nrind":null,"pos":null,"loc":null,"dtc":"2024-02-26","dy":"1","visit":"BASELINE","visitnum":"2.0","epoch":"TREATMENT"},{"seq":"14","testcd":"SYSBP","test":"Systolic Blood Pressure","cat":null,"orres":"151.9","orresu":"mmHg","stresc":"151.9","stresn":"151.9","stresu":"mmHg","stnrlo":null,"stnrhi":null,"nrind":null,"pos":null,"loc":null,"dtc":"2024-02-26","dy":"1","visit":"BASELINE","visitnum":"2.0","epoch":"TREATMENT"},{"seq":"15","testcd":"TEMP","test":"Temperature","cat":null,"orres":"36.6","orresu":"C","stresc":"36.6","stresn":"36.6","stresu":"C","stnrlo":null,"stnrhi":null,"nrind":null,"pos":null,"loc":null,"dtc":"2024-02-26","dy":"1","visit":"BASELINE","visitnum":"2.0","epoch":"TREATMENT"},{"seq":"16","testcd":"WEIGHT","test":"Weight","cat":null,"orres":"78.7","orresu":"kg","stresc":"78.7","stresn":"78.7","stresu":"kg","stnrlo":null,"stnrhi":null,"nrind":null,"pos":null,"loc":null,"dtc":"2024-02-26","dy":"1","visit":"BASELINE","visitnum":"2.0","epoch":"TREATMENT"},{"seq":"17","testcd":"BMI","test":"BMI","cat":null,"orres":null,"orresu":null,"stresc":"28.9","stresn":"28.9","stresu":"kg/m2","stnrlo":null,"stnrhi":null,"nrind":null,"pos":null,"loc":null,"dtc":"2024-04-22","dy":"57","visit":"WEEK 8","visitnum":"5.0","epoch":"TREATMENT"},{"seq":"18","testcd":"DIABP","test":"Diastolic Blood Pressure","cat":null,"orres":"64.5","orresu":"mmHg","stresc":"64.5","stresn":"64.5","stresu":"mmHg","stnrlo":null,"stnrhi":null,"nrind":null,"pos":null,"loc":null,"dtc":"2024-04-22","dy":"57","visit":"WEEK 8","visitnum":"5.0","epoch":"TREATMENT"},{"seq":"19","testcd":"HEIGHT","test":"Height","cat":null,"orres":"164.8","orresu":"cm","stresc":"164.8","stresn":"164.8","stresu":"cm","stnrlo":null,"stnrhi":null,"nrind":null,"pos":null,"loc":null,"dtc":"2024-04-22","dy":"57","visit":"WEEK 8","visitnum":"5.0","epoch":"TREATMENT"},{"seq":"20","testcd":"PULSE","test":"Pulse Rate","cat":null,"orres":"90.1","orresu":"beats/min","stresc":"90.1","stresn":"90.1","stresu":"beats/min","stnrlo":null,"stnrhi":null,"nrind":null,"pos":null,"loc":null,"dtc":"2024-04-22","dy":"57","visit":"WEEK 8","visitnum":"5.0","epoch":"TREATMENT"},{"seq":"21","testcd":"RESP","test":"Respiratory Rate","cat":null,"orres":"15.0","orresu":"breaths/min","stresc":"15.0","stresn":"15.0","stresu":"breaths/min","stnrlo":null,"stnrhi":null,"nrind":null,"pos":null,"loc":null,"dtc":"2024-04-22","dy":"57","visit":"WEEK 8","visitnum":"5.0","epoch":"TREATMENT"},{"seq":"22","testcd":"SYSBP","test":"Systolic Blood Pressure","cat":null,"orres":"150.1","orresu":"mmHg","stresc":"150.1","stresn":"150.1","stresu":"mmHg","stnrlo":null,"stnrhi":null,"nrind":null,"pos":null,"loc":null,"dtc":"2024-04-22","dy":"57","visit":"WEEK 8","visitnum":"5.0","epoch":"TREATMENT"},{"seq":"23","testcd":"TEMP","test":"Temperature","cat":null,"orres":"36.6","orresu":"C","stresc":"36.6","stresn":"36.6","stresu":"C","stnrlo":null,"stnrhi":null,"nrind":null,"pos":null,"loc":null,"dtc":"2024-04-22","dy":"57","visit":"WEEK 8","visitnum":"5.0","epoch":"TREATMENT"},{"seq":"24","testcd":"WEIGHT","test":"Weight","cat":null,"orres":"78.4","orresu":"kg","stresc":"78.4","stresn":"78.4","stresu":"kg","stnrlo":null,"stnrhi":null,"nrind":null,"pos":null,"loc":null,"dtc":"2024-04-22","dy":"57","visit":"WEEK 8","visitnum":"5.0","epoch":"TREATMENT"},{"seq":"25","testcd":"BMI","test":"BMI","cat":null,"orres":null,"orresu":null,"stresc":"29.9","stresn":"29.9","stresu":"kg/m2","stnrlo":null,"stnrhi":null,"nrind":null,"pos":null,"loc":null,"dtc":"2024-05-20","dy":"85","visit":"WEEK 12","visitnum":"6.0","epoch":"TREATMENT"},{"seq":"26","testcd":"DIABP","test":"Diastolic Blood Pressure","cat":null,"orres":"63.6","orresu":"mmHg","stresc":"63.6","stresn":"63.6","stresu":"mmHg","stnrlo":null,"stnrhi":null,"nrind":null,"pos":null,"loc":null,"dtc":"2024-05-20","dy":"85","visit":"WEEK 12","visitnum":"6.0","epoch":"TREATMENT"},{"seq":"27","testcd":"HEIGHT","test":"Height","cat":null,"orres":"164.4","orresu":"cm","stresc":"164.4","stresn":"164.4","stresu":"cm","stnrlo":null,"stnrhi":null,"nrind":null,"pos":null,"loc":null,"dtc":"2024-05-20","dy":"85","visit":"WEEK 12","visitnum":"6.0","epoch":"TREATMENT"},{"seq":"28","testcd":"PULSE","test":"Pulse Rate","cat":null,"orres":"93.8","orresu":"beats/min","stresc":"93.8","stresn":"93.8","stresu":"beats/min","stnrlo":null,"stnrhi":null,"nrind":null,"pos":null,"loc":null,"dtc":"2024-05-20","dy":"85","visit":"WEEK 12","visitnum":"6.0","epoch":"TREATMENT"},{"seq":"29","testcd":"RESP","test":"Respiratory Rate","cat":null,"orres":"14.5","orresu":"breaths/min","stresc":"14.5","stresn":"14.5","stresu":"breaths/min","stnrlo":null,"stnrhi":null,"nrind":null,"pos":null,"loc":null,"dtc":"2024-05-20","dy":"85","visit":"WEEK 12","visitnum":"6.0","epoch":"TREATMENT"},{"seq":"30","testcd":"SYSBP","test":"Systolic Blood Pressure","cat":null,"orres":"149.9","orresu":"mmHg","stresc":"149.9","stresn":"149.9","stresu":"mmHg","stnrlo":null,"stnrhi":null,"nrind":null,"pos":null,"loc":null,"dtc":"2024-05-20","dy":"85","visit":"WEEK 12","visitnum":"6.0","epoch":"TREATMENT"},{"seq":"31","testcd":"TEMP","test":"Temperature","cat":null,"orres":"36.4","orresu":"C","stresc":"36.4","stresn":"36.4","stresu":"C","stnrlo":null,"stnrhi":null,"nrind":null,"pos":null,"loc":null,"dtc":"2024-05-20","dy":"85","visit":"WEEK 12","visitnum":"6.0","epoch":"TREATMENT"},{"seq":"32","testcd":"WEIGHT","test":"Weight","cat":null,"orres":"80.8","orresu":"kg","stresc":"80.8","stresn":"80.8","stresu":"kg","stnrlo":null,"stnrhi":null,"nrind":null,"pos":null,"loc":null,"dtc":"2024-05-20","dy":"85","visit":"WEEK 12","visitnum":"6.0","epoch":"TREATMENT"},{"seq":"33","testcd":"BMI","test":"BMI","cat":null,"orres":null,"orresu":null,"stresc":"29.5","stresn":"29.5","stresu":"kg/m2","stnrlo":null,"stnrhi":null,"nrind":null,"pos":null,"loc":null,"dtc":"2024-08-10","dy":"167","visit":"WEEK 24","visitnum":"7.0","epoch":"TREATMENT"},{"seq":"34","testcd":"DIABP","test":"Diastolic Blood Pressure","cat":null,"orres":"63.9","orresu":"mmHg","stresc":"63.9","stresn":"63.9","stresu":"mmHg","stnrlo":null,"stnrhi":null,"nrind":null,"pos":null,"loc":null,"dtc":"2024-08-10","dy":"167","visit":"WEEK 24","visitnum":"7.0","epoch":"TREATMENT"},{"seq":"35","testcd":"HEIGHT","test":"Height","cat":null,"orres":"164.0","orresu":"cm","stresc":"164.0","stresn":"164.0","stresu":"cm","stnrlo":null,"stnrhi":null,"nrind":null,"pos":null,"loc":null,"dtc":"2024-08-10","dy":"167","visit":"WEEK 24","visitnum":"7.0","epoch":"TREATMENT"},{"seq":"36","testcd":"PULSE","test":"Pulse Rate","cat":null,"orres":"99.2","orresu":"beats/min","stresc":"99.2","stresn":"99.2","stresu":"beats/min","stnrlo":null,"stnrhi":null,"nrind":null,"pos":null,"loc":null,"dtc":"2024-08-10","dy":"167","visit":"WEEK 24","visitnum":"7.0","epoch":"TREATMENT"},{"seq":"37","testcd":"RESP","test":"Respiratory Rate","cat":null,"orres":"15.7","orresu":"breaths/min","stresc":"15.7","stresn":"15.7","stresu":"breaths/min","stnrlo":null,"stnrhi":null,"nrind":null,"pos":null,"loc":null,"dtc":"2024-08-10","dy":"167","visit":"WEEK 24","visitnum":"7.0","epoch":"TREATMENT"},{"seq":"38","testcd":"SYSBP","test":"Systolic Blood Pressure","cat":null,"orres":"149.6","orresu":"mmHg","stresc":"149.6","stresn":"149.6","stresu":"mmHg","stnrlo":null,"stnrhi":null,"nrind":null,"pos":null,"loc":null,"dtc":"2024-08-10","dy":"167","visit":"WEEK 24","visitnum":"7.0","epoch":"TREATMENT"},{"seq":"39","testcd":"TEMP","test":"Temperature","cat":null,"orres":"36.6","orresu":"C","stresc":"36.6","stresn":"36.6","stresu":"C","stnrlo":null,"stnrhi":null,"nrind":null,"pos":null,"loc":null,"dtc":"2024-08-10","dy":"167","visit":"WEEK 24","visitnum":"7.0","epoch":"TREATMENT"},{"seq":"40","testcd":"WEIGHT","test":"Weight","cat":null,"orres":"79.4","orresu":"kg","stresc":"79.4","stresn":"79.4","stresu":"kg","stnrlo":null,"stnrhi":null,"nrind":null,"pos":null,"loc":null,"dtc":"2024-08-10","dy":"167","visit":"WEEK 24","visitnum":"7.0","epoch":"TREATMENT"},{"seq":"41","testcd":"BMI","test":"BMI","cat":null,"orres":null,"orresu":null,"stresc":"30.0","stresn":"30.0","stresu":"kg/m2","stnrlo":null,"stnrhi":null,"nrind":null,"pos":null,"loc":null,"dtc":"2024-11-05","dy":"254","visit":"WEEK 36","visitnum":"8.0","epoch":"TREATMENT"},{"seq":"42","testcd":"DIABP","test":"Diastolic Blood Pressure","cat":null,"orres":"57.5","orresu":"mmHg","stresc":"57.5","stresn":"57.5","stresu":"mmHg","stnrlo":null,"stnrhi":null,"nrind":null,"pos":null,"loc":null,"dtc":"2024-11-05","dy":"254","visit":"WEEK 36","visitnum":"8.0","epoch":"TREATMENT"},{"seq":"43","testcd":"HEIGHT","test":"Height","cat":null,"orres":"163.7","orresu":"cm","stresc":"163.7","stresn":"163.7","stresu":"cm","stnrlo":null,"stnrhi":null,"nrind":null,"pos":null,"loc":null,"dtc":"2024-11-05","dy":"254","visit":"WEEK 36","visitnum":"8.0","epoch":"TREATMENT"},{"seq":"44","testcd":"PULSE","test":"Pulse Rate","cat":null,"orres":"105.8","orresu":"beats/min","stresc":"105.8","stresn":"105.8","stresu":"beats/min","stnrlo":null,"stnrhi":null,"nrind":null,"pos":null,"loc":null,"dtc":"2024-11-05","dy":"254","visit":"WEEK 36","visitnum":"8.0","epoch":"TREATMENT"},{"seq":"45","testcd":"RESP","test":"Respiratory Rate","cat":null,"orres":"19.4","orresu":"breaths/min","stresc":"19.4","stresn":"19.4","stresu":"breaths/min","stnrlo":null,"stnrhi":null,"nrind":null,"pos":null,"loc":null,"dtc":"2024-11-05","dy":"254","visit":"WEEK 36","visitnum":"8.0","epoch":"TREATMENT"},{"seq":"46","testcd":"SYSBP","test":"Systolic Blood Pressure","cat":null,"orres":"141.8","orresu":"mmHg","stresc":"141.8","stresn":"141.8","stresu":"mmHg","stnrlo":null,"stnrhi":null,"nrind":null,"pos":null,"loc":null,"dtc":"2024-11-05","dy":"254","visit":"WEEK 36","visitnum":"8.0","epoch":"TREATMENT"},{"seq":"47","testcd":"TEMP","test":"Temperature","cat":null,"orres":"36.4","orresu":"C","stresc":"36.4","stresn":"36.4","stresu":"C","stnrlo":null,"stnrhi":null,"nrind":null,"pos":null,"loc":null,"dtc":"2024-11-05","dy":"254","visit":"WEEK 36","visitnum":"8.0","epoch":"TREATMENT"},{"seq":"48","testcd":"WEIGHT","test":"Weight","cat":null,"orres":"80.4","orresu":"kg","stresc":"80.4","stresn":"80.4","stresu":"kg","stnrlo":null,"stnrhi":null,"nrind":null,"pos":null,"loc":null,"dtc":"2024-11-05","dy":"254","visit":"WEEK 36","visitnum":"8.0","epoch":"TREATMENT"},{"seq":"49","testcd":"BMI","test":"BMI","cat":null,"orres":null,"orresu":null,"stresc":"30.2","stresn":"30.2","stresu":"kg/m2","stnrlo":null,"stnrhi":null,"nrind":null,"pos":null,"loc":null,"dtc":"2025-04-08","dy":"408","visit":"WEEK 58","visitnum":"9.0","epoch":"TREATMENT"},{"seq":"50","testcd":"DIABP","test":"Diastolic Blood Pressure","cat":null,"orres":"65.2","orresu":"mmHg","stresc":"65.2","stresn":"65.2","stresu":"mmHg","stnrlo":null,"stnrhi":null,"nrind":null,"pos":null,"loc":null,"dtc":"2025-04-08","dy":"408","visit":"WEEK 58","visitnum":"9.0","epoch":"TREATMENT"},{"seq":"51","testcd":"HEIGHT","test":"Height","cat":null,"orres":"163.8","orresu":"cm","stresc":"163.8","stresn":"163.8","stresu":"cm","stnrlo":null,"stnrhi":null,"nrind":null,"pos":null,"loc":null,"dtc":"2025-04-08","dy":"408","visit":"WEEK 58","visitnum":"9.0","epoch":"TREATMENT"},{"seq":"52","testcd":"PULSE","test":"Pulse Rate","cat":null,"orres":"105.0","orresu":"beats/min","stresc":"105.0","stresn":"105.0","stresu":"beats/min","stnrlo":null,"stnrhi":null,"nrind":null,"pos":null,"loc":null,"dtc":"2025-04-08","dy":"408","visit":"WEEK 58","visitnum":"9.0","epoch":"TREATMENT"},{"seq":"53","testcd":"RESP","test":"Respiratory Rate","cat":null,"orres":"19.0","orresu":"breaths/min","stresc":"19.0","stresn":"19.0","stresu":"breaths/min","stnrlo":null,"stnrhi":null,"nrind":null,"pos":null,"loc":null,"dtc":"2025-04-08","dy":"408","visit":"WEEK 58","visitnum":"9.0","epoch":"TREATMENT"},{"seq":"54","testcd":"SYSBP","test":"Systolic Blood Pressure","cat":null,"orres":"153.1","orresu":"mmHg","stresc":"153.1","stresn":"153.1","stresu":"mmHg","stnrlo":null,"stnrhi":null,"nrind":null,"pos":null,"loc":null,"dtc":"2025-04-08","dy":"408","visit":"WEEK 58","visitnum":"9.0","epoch":"TREATMENT"},{"seq":"55","testcd":"TEMP","test":"Temperature","cat":null,"orres":"36.5","orresu":"C","stresc":"36.5","stresn":"36.5","stresu":"C","stnrlo":null,"stnrhi":null,"nrind":null,"pos":null,"loc":null,"dtc":"2025-04-08","dy":"408","visit":"WEEK 58","visitnum":"9.0","epoch":"TREATMENT"},{"seq":"56","testcd":"WEIGHT","test":"Weight","cat":null,"orres":"81.1","orresu":"kg","stresc":"81.1","stresn":"81.1","stresu":"kg","stnrlo":null,"stnrhi":null,"nrind":null,"pos":null,"loc":null,"dtc":"2025-04-08","dy":"408","visit":"WEEK 58","visitnum":"9.0","epoch":"TREATMENT"},{"seq":"57","testcd":"BMI","test":"BMI","cat":null,"orres":null,"orresu":null,"stresc":"31.1","stresn":"31.1","stresu":"kg/m2","stnrlo":null,"stnrhi":null,"nrind":null,"pos":null,"loc":null,"dtc":"2025-10-10","dy":"593","visit":"WEEK 84","visitnum":"10.0","epoch":"TREATMENT"},{"seq":"58","testcd":"DIABP","test":"Diastolic Blood Pressure","cat":null,"orres":"66.1","orresu":"mmHg","stresc":"66.1","stresn":"66.1","stresu":"mmHg","stnrlo":null,"stnrhi":null,"nrind":null,"pos":null,"loc":null,"dtc":"2025-10-10","dy":"593","visit":"WEEK 84","visitnum":"10.0","epoch":"TREATMENT"},{"seq":"59","testcd":"HEIGHT","test":"Height","cat":null,"orres":"163.3","orresu":"cm","stresc":"163.3","stresn":"163.3","stresu":"cm","stnrlo":null,"stnrhi":null,"nrind":null,"pos":null,"loc":null,"dtc":"2025-10-10","dy":"593","visit":"WEEK 84","visitnum":"10.0","epoch":"TREATMENT"},{"seq":"60","testcd":"PULSE","test":"Pulse Rate","cat":null,"orres":"101.7","orresu":"beats/min","stresc":"101.7","stresn":"101.7","stresu":"beats/min","stnrlo":null,"stnrhi":null,"nrind":null,"pos":null,"loc":null,"dtc":"2025-10-10","dy":"593","visit":"WEEK 84","visitnum":"10.0","epoch":"TREATMENT"},{"seq":"61","testcd":"RESP","test":"Respiratory Rate","cat":null,"orres":"17.1","orresu":"breaths/min","stresc":"17.1","stresn":"17.1","stresu":"breaths/min","stnrlo":null,"stnrhi":null,"nrind":null,"pos":null,"loc":null,"dtc":"2025-10-10","dy":"593","visit":"WEEK 84","visitnum":"10.0","epoch":"TREATMENT"},{"seq":"62","testcd":"SYSBP","test":"Systolic Blood Pressure","cat":null,"orres":"156.5","orresu":"mmHg","stresc":"156.5","stresn":"156.5","stresu":"mmHg","stnrlo":null,"stnrhi":null,"nrind":null,"pos":null,"loc":null,"dtc":"2025-10-10","dy":"593","visit":"WEEK 84","visitnum":"10.0","epoch":"TREATMENT"},{"seq":"63","testcd":"TEMP","test":"Temperature","cat":null,"orres":"36.5","orresu":"C","stresc":"36.5","stresn":"36.5","stresu":"C","stnrlo":null,"stnrhi":null,"nrind":null,"pos":null,"loc":null,"dtc":"2025-10-10","dy":"593","visit":"WEEK 84","visitnum":"10.0","epoch":"TREATMENT"},{"seq":"64","testcd":"WEIGHT","test":"Weight","cat":null,"orres":"82.9","orresu":"kg","stresc":"82.9","stresn":"82.9","stresu":"kg","stnrlo":null,"stnrhi":null,"nrind":null,"pos":null,"loc":null,"dtc":"2025-10-10","dy":"593","visit":"WEEK 84","visitnum":"10.0","epoch":"TREATMENT"},{"seq":"65","testcd":"BMI","test":"BMI","cat":null,"orres":null,"orresu":null,"stresc":"30.1","stresn":"30.1","stresu":"kg/m2","stnrlo":null,"stnrhi":null,"nrind":null,"pos":null,"loc":null,"dtc":"2026-03-30","dy":"764","visit":"WEEK 110","visitnum":"11.0","epoch":"TREATMENT"},{"seq":"66","testcd":"DIABP","test":"Diastolic Blood Pressure","cat":null,"orres":"63.8","orresu":"mmHg","stresc":"63.8","stresn":"63.8","stresu":"mmHg","stnrlo":null,"stnrhi":null,"nrind":null,"pos":null,"loc":null,"dtc":"2026-03-30","dy":"764","visit":"WEEK 110","visitnum":"11.0","epoch":"TREATMENT"},{"seq":"67","testcd":"HEIGHT","test":"Height","cat":null,"orres":"163.9","orresu":"cm","stresc":"163.9","stresn":"163.9","stresu":"cm","stnrlo":null,"stnrhi":null,"nrind":null,"pos":null,"loc":null,"dtc":"2026-03-30","dy":"764","visit":"WEEK 110","visitnum":"11.0","epoch":"TREATMENT"},{"seq":"68","testcd":"PULSE","test":"Pulse Rate","cat":null,"orres":"98.7","orresu":"beats/min","stresc":"98.7","stresn":"98.7","stresu":"beats/min","stnrlo":null,"stnrhi":null,"nrind":null,"pos":null,"loc":null,"dtc":"2026-03-30","dy":"764","visit":"WEEK 110","visitnum":"11.0","epoch":"TREATMENT"},{"seq":"69","testcd":"RESP","test":"Respiratory Rate","cat":null,"orres":"15.0","orresu":"breaths/min","stresc":"15.0","stresn":"15.0","stresu":"breaths/min","stnrlo":null,"stnrhi":null,"nrind":null,"pos":null,"loc":null,"dtc":"2026-03-30","dy":"764","visit":"WEEK 110","visitnum":"11.0","epoch":"TREATMENT"},{"seq":"70","testcd":"SYSBP","test":"Systolic Blood Pressure","cat":null,"orres":"155.4","orresu":"mmHg","stresc":"155.4","stresn":"155.4","stresu":"mmHg","stnrlo":null,"stnrhi":null,"nrind":null,"pos":null,"loc":null,"dtc":"2026-03-30","dy":"764","visit":"WEEK 110","visitnum":"11.0","epoch":"TREATMENT"},{"seq":"71","testcd":"TEMP","test":"Temperature","cat":null,"orres":"36.6","orresu":"C","stresc":"36.6","stresn":"36.6","stresu":"C","stnrlo":null,"stnrhi":null,"nrind":null,"pos":null,"loc":null,"dtc":"2026-03-30","dy":"764","visit":"WEEK 110","visitnum":"11.0","epoch":"TREATMENT"},{"seq":"72","testcd":"WEIGHT","test":"Weight","cat":null,"orres":"80.8","orresu":"kg","stresc":"80.8","stresn":"80.8","stresu":"kg","stnrlo":null,"stnrhi":null,"nrind":null,"pos":null,"loc":null,"dtc":"2026-03-30","dy":"764","visit":"WEEK 110","visitnum":"11.0","epoch":"TREATMENT"},{"seq":"73","testcd":"BMI","test":"BMI","cat":null,"orres":null,"orresu":null,"stresc":"31.0","stresn":"31.0","stresu":"kg/m2","stnrlo":null,"stnrhi":null,"nrind":null,"pos":null,"loc":null,"dtc":"2026-05-02","dy":"797","visit":"WEEK 114 EOT","visitnum":"12.0","epoch":"TREATMENT"},{"seq":"74","testcd":"DIABP","test":"Diastolic Blood Pressure","cat":null,"orres":"65.1","orresu":"mmHg","stresc":"65.1","stresn":"65.1","stresu":"mmHg","stnrlo":null,"stnrhi":null,"nrind":null,"pos":null,"loc":null,"dtc":"2026-05-02","dy":"797","visit":"WEEK 114 EOT","visitnum":"12.0","epoch":"TREATMENT"},{"seq":"75","testcd":"HEIGHT","test":"Height","cat":null,"orres":"163.6","orresu":"cm","stresc":"163.6","stresn":"163.6","stresu":"cm","stnrlo":null,"stnrhi":null,"nrind":null,"pos":null,"loc":null,"dtc":"2026-05-02","dy":"797","visit":"WEEK 114 EOT","visitnum":"12.0","epoch":"TREATMENT"},{"seq":"76","testcd":"PULSE","test":"Pulse Rate","cat":null,"orres":"95.8","orresu":"beats/min","stresc":"95.8","stresn":"95.8","stresu":"beats/min","stnrlo":null,"stnrhi":null,"nrind":null,"pos":null,"loc":null,"dtc":"2026-05-02","dy":"797","visit":"WEEK 114 EOT","visitnum":"12.0","epoch":"TREATMENT"},{"seq":"77","testcd":"RESP","test":"Respiratory Rate","cat":null,"orres":"15.6","orresu":"breaths/min","stresc":"15.6","stresn":"15.6","stresu":"breaths/min","stnrlo":null,"stnrhi":null,"nrind":null,"pos":null,"loc":null,"dtc":"2026-05-02","dy":"797","visit":"WEEK 114 EOT","visitnum":"12.0","epoch":"TREATMENT"},{"seq":"78","testcd":"SYSBP","test":"Systolic Blood Pressure","cat":null,"orres":"155.5","orresu":"mmHg","stresc":"155.5","stresn":"155.5","stresu":"mmHg","stnrlo":null,"stnrhi":null,"nrind":null,"pos":null,"loc":null,"dtc":"2026-05-02","dy":"797","visit":"WEEK 114 EOT","visitnum":"12.0","epoch":"TREATMENT"},{"seq":"79","testcd":"TEMP","test":"Temperature","cat":null,"orres":"36.6","orresu":"C","stresc":"36.6","stresn":"36.6","stresu":"C","stnrlo":null,"stnrhi":null,"nrind":null,"pos":null,"loc":null,"dtc":"2026-05-02","dy":"797","visit":"WEEK 114 EOT","visitnum":"12.0","epoch":"TREATMENT"},{"seq":"80","testcd":"WEIGHT","test":"Weight","cat":null,"orres":"82.9","orresu":"kg","stresc":"82.9","stresn":"82.9","stresu":"kg","stnrlo":null,"stnrhi":null,"nrind":null,"pos":null,"loc":null,"dtc":"2026-05-02","dy":"797","visit":"WEEK 114 EOT","visitnum":"12.0","epoch":"TREATMENT"},{"seq":"81","testcd":"BMI","test":"BMI","cat":null,"orres":null,"orresu":null,"stresc":"31.2","stresn":"31.2","stresu":"kg/m2","stnrlo":null,"stnrhi":null,"nrind":null,"pos":null,"loc":null,"dtc":"2026-06-01","dy":"827","visit":"SAFETY FU","visitnum":"13.0","epoch":"FOLLOW-UP"},{"seq":"82","testcd":"DIABP","test":"Diastolic Blood Pressure","cat":null,"orres":"63.2","orresu":"mmHg","stresc":"63.2","stresn":"63.2","stresu":"mmHg","stnrlo":null,"stnrhi":null,"nrind":null,"pos":null,"loc":null,"dtc":"2026-06-01","dy":"827","visit":"SAFETY FU","visitnum":"13.0","epoch":"FOLLOW-UP"},{"seq":"83","testcd":"HEIGHT","test":"Height","cat":null,"orres":"163.3","orresu":"cm","stresc":"163.3","stresn":"163.3","stresu":"cm","stnrlo":null,"stnrhi":null,"nrind":null,"pos":null,"loc":null,"dtc":"2026-06-01","dy":"827","visit":"SAFETY FU","visitnum":"13.0","epoch":"FOLLOW-UP"},{"seq":"84","testcd":"PULSE","test":"Pulse Rate","cat":null,"orres":"92.5","orresu":"beats/min","stresc":"92.5","stresn":"92.5","stresu":"beats/min","stnrlo":null,"stnrhi":null,"nrind":null,"pos":null,"loc":null,"dtc":"2026-06-01","dy":"827","visit":"SAFETY FU","visitnum":"13.0","epoch":"FOLLOW-UP"},{"seq":"85","testcd":"RESP","test":"Respiratory Rate","cat":null,"orres":"15.5","orresu":"breaths/min","stresc":"15.5","stresn":"15.5","stresu":"breaths/min","stnrlo":null,"stnrhi":null,"nrind":null,"pos":null,"loc":null,"dtc":"2026-06-01","dy":"827","visit":"SAFETY FU","visitnum":"13.0","epoch":"FOLLOW-UP"},{"seq":"86","testcd":"SYSBP","test":"Systolic Blood Pressure","cat":null,"orres":"151.2","orresu":"mmHg","stresc":"151.2","stresn":"151.2","stresu":"mmHg","stnrlo":null,"stnrhi":null,"nrind":null,"pos":null,"loc":null,"dtc":"2026-06-01","dy":"827","visit":"SAFETY FU","visitnum":"13.0","epoch":"FOLLOW-UP"},{"seq":"87","testcd":"TEMP","test":"Temperature","cat":null,"orres":"36.6","orresu":"C","stresc":"36.6","stresn":"36.6","stresu":"C","stnrlo":null,"stnrhi":null,"nrind":null,"pos":null,"loc":null,"dtc":"2026-06-01","dy":"827","visit":"SAFETY FU","visitnum":"13.0","epoch":"FOLLOW-UP"},{"seq":"88","testcd":"WEIGHT","test":"Weight","cat":null,"orres":"83.3","orresu":"kg","stresc":"83.3","stresn":"83.3","stresu":"kg","stnrlo":null,"stnrhi":null,"nrind":null,"pos":null,"loc":null,"dtc":"2026-06-01","dy":"827","visit":"SAFETY FU","visitnum":"13.0","epoch":"FOLLOW-UP"}]},"section_10_questionnaires_and_scores":{"questionnaires":[],"findings_about":[]},"section_11_protocol_deviations":{"deviations":[{"seq":"1","term":"Missed IRBESARTAN dose on 2024-04-01","decod":"MISSED DOSE","cat":"MINOR","scat":"DOSING","start_dtc":"2024-04-01","end_dtc":null,"visit":null},{"seq":"2","term":"Missed IRBESARTAN dose on 2024-04-08","decod":"MISSED DOSE","cat":"MINOR","scat":"DOSING","start_dtc":"2024-04-08","end_dtc":null,"visit":null},{"seq":"3","term":"Missed IRBESARTAN dose on 2024-04-12","decod":"MISSED DOSE","cat":"MINOR","scat":"DOSING","start_dtc":"2024-04-12","end_dtc":null,"visit":null},{"seq":"4","term":"Visit WEEK 8 occurred 0 days late (Day 57 vs planned Day 57)","decod":"VISIT OCCURRED OUTSIDE VISIT WINDOW","cat":"MINOR","scat":"VISIT WINDOW","start_dtc":"2024-04-22","end_dtc":null,"visit":null},{"seq":"5","term":"Missed IRBESARTAN dose on 2024-05-18","decod":"MISSED DOSE","cat":"MINOR","scat":"DOSING","start_dtc":"2024-05-18","end_dtc":null,"visit":null},{"seq":"6","term":"Missed IRBESARTAN dose on 2024-05-27","decod":"MISSED DOSE","cat":"MINOR","scat":"DOSING","start_dtc":"2024-05-27","end_dtc":null,"visit":null},{"seq":"7","term":"Missed IRBESARTAN dose on 2024-06-04","decod":"MISSED DOSE","cat":"MINOR","scat":"DOSING","start_dtc":"2024-06-04","end_dtc":null,"visit":null},{"seq":"8","term":"Missed IRBESARTAN dose on 2024-06-17","decod":"MISSED DOSE","cat":"MINOR","scat":"DOSING","start_dtc":"2024-06-17","end_dtc":null,"visit":null},{"seq":"9","term":"Missed IRBESARTAN dose on 2024-07-01","decod":"MISSED DOSE","cat":"MINOR","scat":"DOSING","start_dtc":"2024-07-01","end_dtc":null,"visit":null},{"seq":"10","term":"Missed IRBESARTAN dose on 2024-07-10","decod":"MISSED DOSE","cat":"MINOR","scat":"DOSING","start_dtc":"2024-07-10","end_dtc":null,"visit":null},{"seq":"11","term":"Missed IRBESARTAN dose on 2024-07-23","decod":"MISSED DOSE","cat":"MINOR","scat":"DOSING","start_dtc":"2024-07-23","end_dtc":null,"visit":null},{"seq":"12","term":"Missed IRBESARTAN dose on 2024-07-29","decod":"MISSED DOSE","cat":"MINOR","scat":"DOSING","start_dtc":"2024-07-29","end_dtc":null,"visit":null},{"seq":"13","term":"Visit WEEK 24 occurred 2 days early (Day 167 vs planned Day 169)","decod":"VISIT OCCURRED OUTSIDE VISIT WINDOW","cat":"MINOR","scat":"VISIT WINDOW","start_dtc":"2024-08-10","end_dtc":null,"visit":null},{"seq":"14","term":"Missed IRBESARTAN dose on 2024-08-14","decod":"MISSED DOSE","cat":"MINOR","scat":"DOSING","start_dtc":"2024-08-14","end_dtc":null,"visit":null},{"seq":"15","term":"Missed IRBESARTAN dose on 2024-08-27","decod":"MISSED DOSE","cat":"MINOR","scat":"DOSING","start_dtc":"2024-08-27","end_dtc":null,"visit":null},{"seq":"16","term":"Missed IRBESARTAN dose on 2024-09-04","decod":"MISSED DOSE","cat":"MINOR","scat":"DOSING","start_dtc":"2024-09-04","end_dtc":null,"visit":null},{"seq":"17","term":"Missed IRBESARTAN dose on 2024-09-05","decod":"MISSED DOSE","cat":"MINOR","scat":"DOSING","start_dtc":"2024-09-05","end_dtc":null,"visit":null},{"seq":"18","term":"Missed IRBESARTAN dose on 2024-09-12","decod":"MISSED DOSE","cat":"MINOR","scat":"DOSING","start_dtc":"2024-09-12","end_dtc":null,"visit":null},{"seq":"19","term":"Missed IRBESARTAN dose on 2024-09-23","decod":"MISSED DOSE","cat":"MINOR","scat":"DOSING","start_dtc":"2024-09-23","end_dtc":null,"visit":null},{"seq":"20","term":"Dose modified from 300.0 to 150.0 mg","decod":"DOSE MODIFICATION","cat":"MINOR","scat":"DOSING","start_dtc":"2024-09-25","end_dtc":null,"visit":null},{"seq":"21","term":"Missed IRBESARTAN dose on 2024-09-26","decod":"MISSED DOSE","cat":"MINOR","scat":"DOSING","start_dtc":"2024-09-26","end_dtc":null,"visit":null},{"seq":"22","term":"Missed IRBESARTAN dose on 2024-10-07","decod":"MISSED DOSE","cat":"MINOR","scat":"DOSING","start_dtc":"2024-10-07","end_dtc":null,"visit":null},{"seq":"23","term":"Missed IRBESARTAN dose on 2024-10-10","decod":"MISSED DOSE","cat":"MINOR","scat":"DOSING","start_dtc":"2024-10-10","end_dtc":null,"visit":null},{"seq":"24","term":"Missed IRBESARTAN dose on 2024-10-18","decod":"MISSED DOSE","cat":"MINOR","scat":"DOSING","start_dtc":"2024-10-18","end_dtc":null,"visit":null},{"seq":"25","term":"Missed IRBESARTAN dose on 2024-10-24","decod":"MISSED DOSE","cat":"MINOR","scat":"DOSING","start_dtc":"2024-10-24","end_dtc":null,"visit":null},{"seq":"26","term":"Visit WEEK 36 occurred 1 days late (Day 254 vs planned Day 253)","decod":"VISIT OCCURRED OUTSIDE VISIT WINDOW","cat":"MINOR","scat":"VISIT WINDOW","start_dtc":"2024-11-05","end_dtc":null,"visit":null},{"seq":"27","term":"Missed IRBESARTAN dose on 2024-11-09","decod":"MISSED DOSE","cat":"MINOR","scat":"DOSING","start_dtc":"2024-11-09","end_dtc":null,"visit":null},{"seq":"28","term":"Missed IRBESARTAN dose on 2024-11-11","decod":"MISSED DOSE","cat":"MINOR","scat":"DOSING","start_dtc":"2024-11-11","end_dtc":null,"visit":null},{"seq":"29","term":"Missed IRBESARTAN dose on 2024-11-23","decod":"MISSED DOSE","cat":"MINOR","scat":"DOSING","start_dtc":"2024-11-23","end_dtc":null,"visit":null},{"seq":"30","term":"Missed IRBESARTAN dose on 2024-12-14","decod":"MISSED DOSE","cat":"MINOR","scat":"DOSING","start_dtc":"2024-12-14","end_dtc":null,"visit":null},{"seq":"31","term":"Missed IRBESARTAN dose on 2024-12-18","decod":"MISSED DOSE","cat":"MINOR","scat":"DOSING","start_dtc":"2024-12-18","end_dtc":null,"visit":null},{"seq":"32","term":"Missed IRBESARTAN dose on 2024-12-24","decod":"MISSED DOSE","cat":"MINOR","scat":"DOSING","start_dtc":"2024-12-24","end_dtc":null,"visit":null},{"seq":"33","term":"Missed IRBESARTAN dose on 2024-12-25","decod":"MISSED DOSE","cat":"MINOR","scat":"DOSING","start_dtc":"2024-12-25","end_dtc":null,"visit":null},{"seq":"34","term":"Missed IRBESARTAN dose on 2024-12-27","decod":"MISSED DOSE","cat":"MINOR","scat":"DOSING","start_dtc":"2024-12-27","end_dtc":null,"visit":null},{"seq":"35","term":"Missed IRBESARTAN dose on 2025-01-21","decod":"MISSED DOSE","cat":"MINOR","scat":"DOSING","start_dtc":"2025-01-21","end_dtc":null,"visit":null},{"seq":"36","term":"Missed IRBESARTAN dose on 2025-01-24","decod":"MISSED DOSE","cat":"MINOR","scat":"DOSING","start_dtc":"2025-01-24","end_dtc":null,"visit":null},{"seq":"37","term":"Missed IRBESARTAN dose on 2025-01-31","decod":"MISSED DOSE","cat":"MINOR","scat":"DOSING","start_dtc":"2025-01-31","end_dtc":null,"visit":null},{"seq":"38","term":"Missed IRBESARTAN dose on 2025-02-23","decod":"MISSED DOSE","cat":"MINOR","scat":"DOSING","start_dtc":"2025-02-23","end_dtc":null,"visit":null},{"seq":"39","term":"Missed IRBESARTAN dose on 2025-03-11","decod":"MISSED DOSE","cat":"MINOR","scat":"DOSING","start_dtc":"2025-03-11","end_dtc":null,"visit":null},{"seq":"40","term":"Missed IRBESARTAN dose on 2025-03-16","decod":"MISSED DOSE","cat":"MINOR","scat":"DOSING","start_dtc":"2025-03-16","end_dtc":null,"visit":null},{"seq":"41","term":"Missed IRBESARTAN dose on 2025-03-28","decod":"MISSED DOSE","cat":"MINOR","scat":"DOSING","start_dtc":"2025-03-28","end_dtc":null,"visit":null},{"seq":"42","term":"Missed IRBESARTAN dose on 2025-04-17","decod":"MISSED DOSE","cat":"MINOR","scat":"DOSING","start_dtc":"2025-04-17","end_dtc":null,"visit":null},{"seq":"43","term":"Missed IRBESARTAN dose on 2025-04-21","decod":"MISSED DOSE","cat":"MINOR","scat":"DOSING","start_dtc":"2025-04-21","end_dtc":null,"visit":null},{"seq":"44","term":"Missed IRBESARTAN dose on 2025-04-30","decod":"MISSED DOSE","cat":"MINOR","scat":"DOSING","start_dtc":"2025-04-30","end_dtc":null,"visit":null},{"seq":"45","term":"Missed IRBESARTAN dose on 2025-05-13","decod":"MISSED DOSE","cat":"MINOR","scat":"DOSING","start_dtc":"2025-05-13","end_dtc":null,"visit":null},{"seq":"46","term":"Missed IRBESARTAN dose on 2025-05-16","decod":"MISSED DOSE","cat":"MINOR","scat":"DOSING","start_dtc":"2025-05-16","end_dtc":null,"visit":null},{"seq":"47","term":"Missed IRBESARTAN dose on 2025-06-09","decod":"MISSED DOSE","cat":"MINOR","scat":"DOSING","start_dtc":"2025-06-09","end_dtc":null,"visit":null},{"seq":"48","term":"Dose modified from 300.0 to 150.0 mg","decod":"DOSE MODIFICATION","cat":"MINOR","scat":"DOSING","start_dtc":"2025-06-18","end_dtc":null,"visit":null},{"seq":"49","term":"Missed IRBESARTAN dose on 2025-06-23","decod":"MISSED DOSE","cat":"MINOR","scat":"DOSING","start_dtc":"2025-06-23","end_dtc":null,"visit":null},{"seq":"50","term":"Missed IRBESARTAN dose on 2025-07-01","decod":"MISSED DOSE","cat":"MINOR","scat":"DOSING","start_dtc":"2025-07-01","end_dtc":null,"visit":null},{"seq":"51","term":"Missed IRBESARTAN dose on 2025-07-05","decod":"MISSED DOSE","cat":"MINOR","scat":"DOSING","start_dtc":"2025-07-05","end_dtc":null,"visit":null},{"seq":"52","term":"Missed IRBESARTAN dose on 2025-07-15","decod":"MISSED DOSE","cat":"MINOR","scat":"DOSING","start_dtc":"2025-07-15","end_dtc":null,"visit":null},{"seq":"53","term":"Missed IRBESARTAN dose on 2025-07-31","decod":"MISSED DOSE","cat":"MINOR","scat":"DOSING","start_dtc":"2025-07-31","end_dtc":null,"visit":null},{"seq":"54","term":"Dose modified from 300.0 to 150.0 mg","decod":"DOSE MODIFICATION","cat":"MINOR","scat":"DOSING","start_dtc":"2025-08-03","end_dtc":null,"visit":null},{"seq":"55","term":"Missed IRBESARTAN dose on 2025-08-16","decod":"MISSED DOSE","cat":"MINOR","scat":"DOSING","start_dtc":"2025-08-16","end_dtc":null,"visit":null},{"seq":"56","term":"Missed IRBESARTAN dose on 2025-08-21","decod":"MISSED DOSE","cat":"MINOR","scat":"DOSING","start_dtc":"2025-08-21","end_dtc":null,"visit":null},{"seq":"57","term":"Missed IRBESARTAN dose on 2025-08-27","decod":"MISSED DOSE","cat":"MINOR","scat":"DOSING","start_dtc":"2025-08-27","end_dtc":null,"visit":null},{"seq":"58","term":"Visit WEEK 84 occurred 4 days late (Day 593 vs planned Day 589)","decod":"VISIT OCCURRED OUTSIDE VISIT WINDOW","cat":"MINOR","scat":"VISIT WINDOW","start_dtc":"2025-10-10","end_dtc":null,"visit":null}],"total":58},"section_12_disposition":{"completion_status":"COMPLETED","disposition_records":[{"seq":"1","term":"INFORMED CONSENT OBTAINED","decod":"INFORMED CONSENT OBTAINED","cat":"PROTOCOL MILESTONE","scat":null,"dtc":"2024-02-08","dy":null,"visit":null,"epoch":"SCREENING"},{"seq":"2","term":"RANDOMIZED","decod":"RANDOMIZED","cat":"PROTOCOL MILESTONE","scat":null,"dtc":"2024-02-26","dy":null,"visit":null,"epoch":"TREATMENT"},{"seq":"3","term":"COMPLETED","decod":"COMPLETED","cat":"DISPOSITION EVENT","scat":null,"dtc":"2026-07-12","dy":null,"visit":null,"epoch":"FOLLOW-UP"}],"death":null},"section_13_hospitalizations":{"items":[{"seq":"1","term":"Headache","decod":"Headache","cat":"HOSPITALIZATION","start_dtc":"2024-03-16","end_dtc":"2024-03-19","epoch":"TREATMENT"},{"seq":"2","term":"Alanine aminotransferase increased","decod":"Alanine aminotransferase increased","cat":"HOSPITALIZATION","start_dtc":"2024-11-18","end_dtc":"2024-12-02","epoch":"TREATMENT"}],"total":2},"section_14_substance_use":{"items":[{"seq":"1","substance":"BEER/WINE/SPIRITS","decod":"ETHANOL","cat":"ALCOHOL","scat":null,"usage":"Y","dose":null,"dosu":null,"freq":null,"start_dtc":"2009-02-11","end_dtc":"2010-02-11"},{"seq":"2","substance":"COFFEE","decod":"COFFEE","cat":"CAFFEINE","scat":null,"usage":"N","dose":null,"dosu":null,"freq":null,"start_dtc":null,"end_dtc":null},{"seq":"3","substance":"CIGARETTES","decod":"CIGARETTES","cat":"TOBACCO","scat":null,"usage":"N","dose":null,"dosu":null,"freq":null,"start_dtc":null,"end_dtc":null}],"total":3},"section_15_subject_status":{"items":[{"seq":"1","testcd":"SURVSTAT","test":"Survival Status","orres":"ALIVE","stresc":"ALIVE","dtc":"2026-07-12","visit":null,"epoch":"FOLLOW-UP"}],"total":1}}