STUDYID,DOMAIN,USUBJID,ECSEQ,ECTRT,ECMOOD,ECPRESP,ECOCCUR,ECSTAT,ECREASND,ECDOSE,ECDOSTXT,ECDOSU,ECDOSFRM,ECDOSFRQ,ECROUTE,VISITNUM,VISIT,EPOCH,ECSTDTC,ECENDTC,ECSTDY,ECENDY
BI-1245.110,EC,BI-1245.110-ARG_SITE01-0017,1,PLACEBO,PERFORMED,Y,Y,,,,PLACEBO,mg,TABLET,QD,ORAL,2.0,BASELINE,TREATMENT,2024-03-22,2024-03-22,1,1
BI-1245.110,EC,BI-1245.110-ARG_SITE01-0017,2,PLACEBO,PERFORMED,Y,Y,,,,PLACEBO,mg,TABLET,QD,ORAL,2.0,BASELINE,TREATMENT,2024-03-23,2024-03-23,2,2
BI-1245.110,EC,BI-1245.110-ARG_SITE01-0017,3,PLACEBO,PERFORMED,Y,Y,,,,PLACEBO,mg,TABLET,QD,ORAL,2.0,BASELINE,TREATMENT,2024-03-24,2024-03-24,3,3
BI-1245.110,EC,BI-1245.110-ARG_SITE01-0017,4,PLACEBO,PERFORMED,Y,Y,,,,PLACEBO,mg,TABLET,QD,ORAL,2.0,BASELINE,TREATMENT,2024-03-25,2024-03-25,4,4
BI-1245.110,EC,BI-1245.110-ARG_SITE01-0017,5,PLACEBO,PERFORMED,Y,Y,,,,PLACEBO,mg,TABLET,QD,ORAL,5.0,,TREATMENT,2024-03-26,2024-03-26,5,5
BI-1245.110,EC,BI-1245.110-ARG_SITE01-0017,6,PLACEBO,PERFORMED,Y,Y,,,,PLACEBO,mg,TABLET,QD,ORAL,6.0,,TREATMENT,2024-03-27,2024-03-27,6,6
BI-1245.110,EC,BI-1245.110-ARG_SITE01-0017,7,PLACEBO,PERFORMED,Y,Y,,,,PLACEBO,mg,TABLET,QD,ORAL,7.0,,TREATMENT,2024-03-28,2024-03-28,7,7
BI-1245.110,EC,BI-1245.110-ARG_SITE01-0017,8,PLACEBO,PERFORMED,Y,Y,,,,PLACEBO,mg,TABLET,QD,ORAL,8.0,,TREATMENT,2024-03-29,2024-03-29,8,8
BI-1245.110,EC,BI-1245.110-ARG_SITE01-0017,9,PLACEBO,SCHEDULED,Y,,NOT DONE,SUBJECT NON-COMPLIANCE,,,mg,TABLET,QD,ORAL,9.0,,TREATMENT,2024-03-30,2024-03-30,9,9
BI-1245.110,EC,BI-1245.110-ARG_SITE01-0017,10,PLACEBO,PERFORMED,Y,Y,,,,PLACEBO,mg,TABLET,QD,ORAL,10.0,,TREATMENT,2024-03-31,2024-03-31,10,10
BI-1245.110,EC,BI-1245.110-ARG_SITE01-0017,11,PLACEBO,PERFORMED,Y,Y,,,,PLACEBO,mg,TABLET,QD,ORAL,11.0,,TREATMENT,2024-04-01,2024-04-01,11,11
BI-1245.110,EC,BI-1245.110-ARG_SITE01-0017,12,PLACEBO,PERFORMED,Y,Y,,,,PLACEBO,mg,TABLET,QD,ORAL,12.0,,TREATMENT,2024-04-02,2024-04-02,12,12
BI-1245.110,EC,BI-1245.110-ARG_SITE01-0017,13,PLACEBO,PERFORMED,Y,Y,,,,PLACEBO,mg,TABLET,QD,ORAL,13.0,,TREATMENT,2024-04-03,2024-04-03,13,13
BI-1245.110,EC,BI-1245.110-ARG_SITE01-0017,14,PLACEBO,PERFORMED,Y,Y,,,,PLACEBO,mg,TABLET,QD,ORAL,14.0,,TREATMENT,2024-04-04,2024-04-04,14,14
BI-1245.110,EC,BI-1245.110-ARG_SITE01-0017,15,PLACEBO,PERFORMED,Y,Y,,,,PLACEBO,mg,TABLET,QD,ORAL,15.0,,TREATMENT,2024-04-05,2024-04-05,15,15
BI-1245.110,EC,BI-1245.110-ARG_SITE01-0017,16,PLACEBO,PERFORMED,Y,Y,,,,PLACEBO,mg,TABLET,QD,ORAL,16.0,,TREATMENT,2024-04-06,2024-04-06,16,16
BI-1245.110,EC,BI-1245.110-ARG_SITE01-0017,17,PLACEBO,PERFORMED,Y,Y,,,,PLACEBO,mg,TABLET,QD,ORAL,17.0,,TREATMENT,2024-04-07,2024-04-07,17,17
BI-1245.110,EC,BI-1245.110-ARG_SITE01-0017,18,PLACEBO,PERFORMED,Y,Y,,,,PLACEBO,mg,TABLET,QD,ORAL,18.0,,TREATMENT,2024-04-08,2024-04-08,18,18
BI-1245.110,EC,BI-1245.110-ARG_SITE01-0017,19,PLACEBO,PERFORMED,Y,Y,,,,PLACEBO,mg,TABLET,QD,ORAL,19.0,,TREATMENT,2024-04-09,2024-04-09,19,19
BI-1245.110,EC,BI-1245.110-ARG_SITE01-0017,20,PLACEBO,PERFORMED,Y,Y,,,,PLACEBO,mg,TABLET,QD,ORAL,20.0,,TREATMENT,2024-04-10,2024-04-10,20,20
BI-1245.110,EC,BI-1245.110-ARG_SITE01-0017,21,PLACEBO,PERFORMED,Y,Y,,,,PLACEBO,mg,TABLET,QD,ORAL,21.0,,TREATMENT,2024-04-11,2024-04-11,21,21
BI-1245.110,EC,BI-1245.110-ARG_SITE01-0017,22,PLACEBO,PERFORMED,Y,Y,,,,PLACEBO,mg,TABLET,QD,ORAL,22.0,,TREATMENT,2024-04-12,2024-04-12,22,22
BI-1245.110,EC,BI-1245.110-ARG_SITE01-0017,23,PLACEBO,PERFORMED,Y,Y,,,,PLACEBO,mg,TABLET,QD,ORAL,23.0,,TREATMENT,2024-04-13,2024-04-13,23,23
BI-1245.110,EC,BI-1245.110-ARG_SITE01-0017,24,PLACEBO,PERFORMED,Y,Y,,,,PLACEBO,mg,TABLET,QD,ORAL,24.0,,TREATMENT,2024-04-14,2024-04-14,24,24
BI-1245.110,EC,BI-1245.110-ARG_SITE01-0017,25,PLACEBO,PERFORMED,Y,Y,,,,PLACEBO,mg,TABLET,QD,ORAL,25.0,,TREATMENT,2024-04-15,2024-04-15,25,25
BI-1245.110,EC,BI-1245.110-ARG_SITE01-0017,26,PLACEBO,PERFORMED,Y,Y,,,,PLACEBO,mg,TABLET,QD,ORAL,3.0,WEEK 4,TREATMENT,2024-04-16,2024-04-16,26,26
BI-1245.110,EC,BI-1245.110-ARG_SITE01-0017,27,PLACEBO,PERFORMED,Y,Y,,,,PLACEBO,mg,TABLET,QD,ORAL,3.0,WEEK 4,TREATMENT,2024-04-17,2024-04-17,27,27
BI-1245.110,EC,BI-1245.110-ARG_SITE01-0017,28,PLACEBO,PERFORMED,Y,Y,,,,PLACEBO,mg,TABLET,QD,ORAL,3.0,WEEK 4,TREATMENT,2024-04-18,2024-04-18,28,28
BI-1245.110,EC,BI-1245.110-ARG_SITE01-0017,29,PLACEBO,PERFORMED,Y,Y,,,,PLACEBO,mg,TABLET,QD,ORAL,3.0,WEEK 4,TREATMENT,2024-04-19,2024-04-19,29,29
BI-1245.110,EC,BI-1245.110-ARG_SITE01-0017,30,PLACEBO,PERFORMED,Y,Y,,,,PLACEBO,mg,TABLET,QD,ORAL,3.0,WEEK 4,TREATMENT,2024-04-20,2024-04-20,30,30
BI-1245.110,EC,BI-1245.110-ARG_SITE01-0017,31,PLACEBO,PERFORMED,Y,Y,,,,PLACEBO,mg,TABLET,QD,ORAL,3.0,WEEK 4,TREATMENT,2024-04-21,2024-04-21,31,31
BI-1245.110,EC,BI-1245.110-ARG_SITE01-0017,32,PLACEBO,PERFORMED,Y,Y,,,,PLACEBO,mg,TABLET,QD,ORAL,3.0,WEEK 4,TREATMENT,2024-04-22,2024-04-22,32,32
BI-1245.110,EC,BI-1245.110-ARG_SITE01-0017,33,PLACEBO,PERFORMED,Y,Y,,,,PLACEBO,mg,TABLET,QD,ORAL,33.0,,TREATMENT,2024-04-23,2024-04-23,33,33
BI-1245.110,EC,BI-1245.110-ARG_SITE01-0017,34,PLACEBO,PERFORMED,Y,Y,,,,PLACEBO,mg,TABLET,QD,ORAL,34.0,,TREATMENT,2024-04-24,2024-04-24,34,34
BI-1245.110,EC,BI-1245.110-ARG_SITE01-0017,35,PLACEBO,PERFORMED,Y,Y,,,,PLACEBO,mg,TABLET,QD,ORAL,35.0,,TREATMENT,2024-04-25,2024-04-25,35,35
BI-1245.110,EC,BI-1245.110-ARG_SITE01-0017,36,PLACEBO,PERFORMED,Y,Y,,,,PLACEBO,mg,TABLET,QD,ORAL,36.0,,TREATMENT,2024-04-26,2024-04-26,36,36
BI-1245.110,EC,BI-1245.110-ARG_SITE01-0017,37,PLACEBO,PERFORMED,Y,Y,,,,PLACEBO,mg,TABLET,QD,ORAL,37.0,,TREATMENT,2024-04-27,2024-04-27,37,37
BI-1245.110,EC,BI-1245.110-ARG_SITE01-0017,38,PLACEBO,PERFORMED,Y,Y,,,,PLACEBO,mg,TABLET,QD,ORAL,38.0,,TREATMENT,2024-04-28,2024-04-28,38,38
BI-1245.110,EC,BI-1245.110-ARG_SITE01-0017,39,PLACEBO,PERFORMED,Y,Y,,,,PLACEBO,mg,TABLET,QD,ORAL,39.0,,TREATMENT,2024-04-29,2024-04-29,39,39
BI-1245.110,EC,BI-1245.110-ARG_SITE01-0017,40,PLACEBO,PERFORMED,Y,Y,,,,PLACEBO,mg,TABLET,QD,ORAL,40.0,,TREATMENT,2024-04-30,2024-04-30,40,40
BI-1245.110,EC,BI-1245.110-ARG_SITE01-0017,41,PLACEBO,PERFORMED,Y,Y,,,,PLACEBO,mg,TABLET,QD,ORAL,41.0,,TREATMENT,2024-05-01,2024-05-01,41,41
BI-1245.110,EC,BI-1245.110-ARG_SITE01-0017,42,PLACEBO,PERFORMED,Y,Y,,,,PLACEBO,mg,TABLET,QD,ORAL,42.0,,TREATMENT,2024-05-02,2024-05-02,42,42
BI-1245.110,EC,BI-1245.110-ARG_SITE01-0017,43,PLACEBO,PERFORMED,Y,Y,,,,PLACEBO,mg,TABLET,QD,ORAL,43.0,,TREATMENT,2024-05-03,2024-05-03,43,43
BI-1245.110,EC,BI-1245.110-ARG_SITE01-0017,44,PLACEBO,PERFORMED,Y,Y,,,,PLACEBO,mg,TABLET,QD,ORAL,44.0,,TREATMENT,2024-05-04,2024-05-04,44,44
BI-1245.110,EC,BI-1245.110-ARG_SITE01-0017,45,PLACEBO,PERFORMED,Y,Y,,,,PLACEBO,mg,TABLET,QD,ORAL,45.0,,TREATMENT,2024-05-05,2024-05-05,45,45
BI-1245.110,EC,BI-1245.110-ARG_SITE01-0017,46,PLACEBO,PERFORMED,Y,Y,,,,PLACEBO,mg,TABLET,QD,ORAL,46.0,,TREATMENT,2024-05-06,2024-05-06,46,46
BI-1245.110,EC,BI-1245.110-ARG_SITE01-0017,47,PLACEBO,PERFORMED,Y,Y,,,,PLACEBO,mg,TABLET,QD,ORAL,47.0,,TREATMENT,2024-05-07,2024-05-07,47,47
BI-1245.110,EC,BI-1245.110-ARG_SITE01-0017,48,PLACEBO,PERFORMED,Y,Y,,,,PLACEBO,mg,TABLET,QD,ORAL,48.0,,TREATMENT,2024-05-08,2024-05-08,48,48
BI-1245.110,EC,BI-1245.110-ARG_SITE01-0017,49,PLACEBO,PERFORMED,Y,Y,,,,PLACEBO,mg,TABLET,QD,ORAL,49.0,,TREATMENT,2024-05-09,2024-05-09,49,49
BI-1245.110,EC,BI-1245.110-ARG_SITE01-0017,50,PLACEBO,PERFORMED,Y,Y,,,,PLACEBO,mg,TABLET,QD,ORAL,50.0,,TREATMENT,2024-05-10,2024-05-10,50,50
BI-1245.110,EC,BI-1245.110-ARG_SITE01-0017,51,PLACEBO,PERFORMED,Y,Y,,,,PLACEBO,mg,TABLET,QD,ORAL,51.0,,TREATMENT,2024-05-11,2024-05-11,51,51
BI-1245.110,EC,BI-1245.110-ARG_SITE01-0017,52,PLACEBO,PERFORMED,Y,Y,,,,PLACEBO,mg,TABLET,QD,ORAL,52.0,,TREATMENT,2024-05-12,2024-05-12,52,52
BI-1245.110,EC,BI-1245.110-ARG_SITE01-0017,53,PLACEBO,PERFORMED,Y,Y,,,,PLACEBO,mg,TABLET,QD,ORAL,53.0,,TREATMENT,2024-05-13,2024-05-13,53,53
BI-1245.110,EC,BI-1245.110-ARG_SITE01-0017,54,PLACEBO,PERFORMED,Y,Y,,,,PLACEBO,mg,TABLET,QD,ORAL,54.0,,TREATMENT,2024-05-14,2024-05-14,54,54
BI-1245.110,EC,BI-1245.110-ARG_SITE01-0017,55,PLACEBO,PERFORMED,Y,Y,,,,PLACEBO,mg,TABLET,QD,ORAL,55.0,,TREATMENT,2024-05-15,2024-05-15,55,55
BI-1245.110,EC,BI-1245.110-ARG_SITE01-0017,56,PLACEBO,PERFORMED,Y,Y,,,,PLACEBO,mg,TABLET,QD,ORAL,56.0,,TREATMENT,2024-05-16,2024-05-16,56,56
BI-1245.110,EC,BI-1245.110-ARG_SITE01-0017,57,PLACEBO,PERFORMED,Y,Y,,,,PLACEBO,mg,TABLET,QD,ORAL,57.0,,TREATMENT,2024-05-17,2024-05-17,57,57
BI-1245.110,EC,BI-1245.110-ARG_SITE01-0017,58,PLACEBO,PERFORMED,Y,Y,,,,PLACEBO,mg,TABLET,QD,ORAL,58.0,,TREATMENT,2024-05-18,2024-05-18,58,58
BI-1245.110,EC,BI-1245.110-ARG_SITE01-0017,59,PLACEBO,PERFORMED,Y,Y,,,,PLACEBO,mg,TABLET,QD,ORAL,59.0,,TREATMENT,2024-05-19,2024-05-19,59,59
BI-1245.110,EC,BI-1245.110-ARG_SITE01-0017,60,PLACEBO,PERFORMED,Y,Y,,,,PLACEBO,mg,TABLET,QD,ORAL,60.0,,TREATMENT,2024-05-20,2024-05-20,60,60
BI-1245.110,EC,BI-1245.110-ARG_SITE01-0017,61,PLACEBO,PERFORMED,Y,Y,,,,PLACEBO,mg,TABLET,QD,ORAL,61.0,,TREATMENT,2024-05-21,2024-05-21,61,61
BI-1245.110,EC,BI-1245.110-ARG_SITE01-0017,62,PLACEBO,PERFORMED,Y,Y,,,,PLACEBO,mg,TABLET,QD,ORAL,62.0,,TREATMENT,2024-05-22,2024-05-22,62,62
BI-1245.110,EC,BI-1245.110-ARG_SITE01-0017,63,PLACEBO,PERFORMED,Y,Y,,,,PLACEBO,mg,TABLET,QD,ORAL,63.0,,TREATMENT,2024-05-23,2024-05-23,63,63
BI-1245.110,EC,BI-1245.110-ARG_SITE01-0017,64,PLACEBO,SCHEDULED,Y,,NOT DONE,SUBJECT NON-COMPLIANCE,,,mg,TABLET,QD,ORAL,64.0,,TREATMENT,2024-05-24,2024-05-24,64,64
BI-1245.110,EC,BI-1245.110-ARG_SITE01-0017,65,PLACEBO,PERFORMED,Y,Y,,,,PLACEBO,mg,TABLET,QD,ORAL,65.0,,TREATMENT,2024-05-25,2024-05-25,65,65
BI-1245.110,EC,BI-1245.110-ARG_SITE01-0017,66,PLACEBO,PERFORMED,Y,Y,,,,PLACEBO,mg,TABLET,QD,ORAL,66.0,,TREATMENT,2024-05-26,2024-05-26,66,66
BI-1245.110,EC,BI-1245.110-ARG_SITE01-0017,67,PLACEBO,PERFORMED,Y,Y,,,,PLACEBO,mg,TABLET,QD,ORAL,67.0,,TREATMENT,2024-05-27,2024-05-27,67,67
BI-1245.110,EC,BI-1245.110-ARG_SITE01-0017,68,PLACEBO,PERFORMED,Y,Y,,,,PLACEBO,mg,TABLET,QD,ORAL,68.0,,TREATMENT,2024-05-28,2024-05-28,68,68
BI-1245.110,EC,BI-1245.110-ARG_SITE01-0017,69,PLACEBO,PERFORMED,Y,Y,,,,PLACEBO,mg,TABLET,QD,ORAL,69.0,,TREATMENT,2024-05-29,2024-05-29,69,69
BI-1245.110,EC,BI-1245.110-ARG_SITE01-0017,70,PLACEBO,PERFORMED,Y,Y,,,,PLACEBO,mg,TABLET,QD,ORAL,70.0,,TREATMENT,2024-05-30,2024-05-30,70,70
BI-1245.110,EC,BI-1245.110-ARG_SITE01-0017,71,PLACEBO,PERFORMED,Y,Y,,,,PLACEBO,mg,TABLET,QD,ORAL,71.0,,TREATMENT,2024-05-31,2024-05-31,71,71
BI-1245.110,EC,BI-1245.110-ARG_SITE01-0017,72,PLACEBO,PERFORMED,Y,Y,,,,PLACEBO,mg,TABLET,QD,ORAL,72.0,,TREATMENT,2024-06-01,2024-06-01,72,72
BI-1245.110,EC,BI-1245.110-ARG_SITE01-0017,73,PLACEBO,PERFORMED,Y,Y,,,,PLACEBO,mg,TABLET,QD,ORAL,73.0,,TREATMENT,2024-06-02,2024-06-02,73,73
BI-1245.110,EC,BI-1245.110-ARG_SITE01-0017,74,PLACEBO,PERFORMED,Y,Y,,,,PLACEBO,mg,TABLET,QD,ORAL,74.0,,TREATMENT,2024-06-03,2024-06-03,74,74
BI-1245.110,EC,BI-1245.110-ARG_SITE01-0017,75,PLACEBO,PERFORMED,Y,Y,,,,PLACEBO,mg,TABLET,QD,ORAL,75.0,,TREATMENT,2024-06-04,2024-06-04,75,75
BI-1245.110,EC,BI-1245.110-ARG_SITE01-0017,76,PLACEBO,PERFORMED,Y,Y,,,,PLACEBO,mg,TABLET,QD,ORAL,76.0,,TREATMENT,2024-06-05,2024-06-05,76,76
BI-1245.110,EC,BI-1245.110-ARG_SITE01-0017,77,PLACEBO,PERFORMED,Y,Y,,,,PLACEBO,mg,TABLET,QD,ORAL,77.0,,TREATMENT,2024-06-06,2024-06-06,77,77
BI-1245.110,EC,BI-1245.110-ARG_SITE01-0017,78,PLACEBO,PERFORMED,Y,Y,,,,PLACEBO,mg,TABLET,QD,ORAL,78.0,,TREATMENT,2024-06-07,2024-06-07,78,78
BI-1245.110,EC,BI-1245.110-ARG_SITE01-0017,79,PLACEBO,PERFORMED,Y,Y,,,,PLACEBO,mg,TABLET,QD,ORAL,79.0,,TREATMENT,2024-06-08,2024-06-08,79,79
BI-1245.110,EC,BI-1245.110-ARG_SITE01-0017,80,PLACEBO,PERFORMED,Y,Y,,,,PLACEBO,mg,TABLET,QD,ORAL,80.0,,TREATMENT,2024-06-09,2024-06-09,80,80
BI-1245.110,EC,BI-1245.110-ARG_SITE01-0017,81,PLACEBO,PERFORMED,Y,Y,,,,PLACEBO,mg,TABLET,QD,ORAL,81.0,,TREATMENT,2024-06-10,2024-06-10,81,81
BI-1245.110,EC,BI-1245.110-ARG_SITE01-0017,82,PLACEBO,PERFORMED,Y,Y,,,,PLACEBO,mg,TABLET,QD,ORAL,4.0,WEEK 12,TREATMENT,2024-06-11,2024-06-11,82,82
BI-1245.110,EC,BI-1245.110-ARG_SITE01-0017,83,PLACEBO,PERFORMED,Y,Y,,,,PLACEBO,mg,TABLET,QD,ORAL,4.0,WEEK 12,TREATMENT,2024-06-12,2024-06-12,83,83
BI-1245.110,EC,BI-1245.110-ARG_SITE01-0017,84,PLACEBO,PERFORMED,Y,Y,,,,PLACEBO,mg,TABLET,QD,ORAL,4.0,WEEK 12,TREATMENT,2024-06-13,2024-06-13,84,84
BI-1245.110,EC,BI-1245.110-ARG_SITE01-0017,85,PLACEBO,PERFORMED,Y,Y,,,,PLACEBO,mg,TABLET,QD,ORAL,4.0,WEEK 12,TREATMENT,2024-06-14,2024-06-14,85,85
BI-1245.110,EC,BI-1245.110-ARG_SITE01-0017,86,PLACEBO,PERFORMED,Y,Y,,,,PLACEBO,mg,TABLET,QD,ORAL,4.0,WEEK 12,TREATMENT,2024-06-15,2024-06-15,86,86
BI-1245.110,EC,BI-1245.110-ARG_SITE01-0017,87,PLACEBO,SCHEDULED,Y,,NOT DONE,SUBJECT NON-COMPLIANCE,,,mg,TABLET,QD,ORAL,4.0,WEEK 12,TREATMENT,2024-06-16,2024-06-16,87,87
BI-1245.110,EC,BI-1245.110-ARG_SITE01-0017,88,PLACEBO,PERFORMED,Y,Y,,,,PLACEBO,mg,TABLET,QD,ORAL,4.0,WEEK 12,TREATMENT,2024-06-17,2024-06-17,88,88
BI-1245.110,EC,BI-1245.110-ARG_SITE01-0017,89,PLACEBO,PERFORMED,Y,Y,,,,PLACEBO,mg,TABLET,QD,ORAL,89.0,,TREATMENT,2024-06-18,2024-06-18,89,89
BI-1245.110,EC,BI-1245.110-ARG_SITE01-0017,90,PLACEBO,PERFORMED,Y,Y,,,,PLACEBO,mg,TABLET,QD,ORAL,90.0,,TREATMENT,2024-06-19,2024-06-19,90,90
BI-1245.110,EC,BI-1245.110-ARG_SITE01-0017,91,PLACEBO,PERFORMED,Y,Y,,,,PLACEBO,mg,TABLET,QD,ORAL,91.0,,TREATMENT,2024-06-20,2024-06-20,91,91
BI-1245.110,EC,BI-1245.110-ARG_SITE01-0017,92,PLACEBO,PERFORMED,Y,Y,,,,PLACEBO,mg,TABLET,QD,ORAL,92.0,,TREATMENT,2024-06-21,2024-06-21,92,92
BI-1245.110,EC,BI-1245.110-ARG_SITE01-0017,93,PLACEBO,PERFORMED,Y,Y,,,,PLACEBO,mg,TABLET,QD,ORAL,93.0,,TREATMENT,2024-06-22,2024-06-22,93,93
BI-1245.110,EC,BI-1245.110-ARG_SITE01-0017,94,PLACEBO,PERFORMED,Y,Y,,,,PLACEBO,mg,TABLET,QD,ORAL,94.0,,TREATMENT,2024-06-23,2024-06-23,94,94
BI-1245.110,EC,BI-1245.110-ARG_SITE01-0017,95,PLACEBO,PERFORMED,Y,Y,,,,PLACEBO,mg,TABLET,QD,ORAL,95.0,,TREATMENT,2024-06-24,2024-06-24,95,95
BI-1245.110,EC,BI-1245.110-ARG_SITE01-0017,96,PLACEBO,PERFORMED,Y,Y,,,,PLACEBO,mg,TABLET,QD,ORAL,96.0,,TREATMENT,2024-06-25,2024-06-25,96,96
BI-1245.110,EC,BI-1245.110-ARG_SITE01-0017,97,PLACEBO,PERFORMED,Y,Y,,,,PLACEBO,mg,TABLET,QD,ORAL,97.0,,TREATMENT,2024-06-26,2024-06-26,97,97
BI-1245.110,EC,BI-1245.110-ARG_SITE01-0017,98,PLACEBO,PERFORMED,Y,Y,,,,PLACEBO,mg,TABLET,QD,ORAL,98.0,,TREATMENT,2024-06-27,2024-06-27,98,98
BI-1245.110,EC,BI-1245.110-ARG_SITE01-0017,99,PLACEBO,PERFORMED,Y,Y,,,,PLACEBO,mg,TABLET,QD,ORAL,99.0,,TREATMENT,2024-06-28,2024-06-28,99,99
BI-1245.110,EC,BI-1245.110-ARG_SITE01-0017,100,PLACEBO,PERFORMED,Y,Y,,,,PLACEBO,mg,TABLET,QD,ORAL,100.0,,TREATMENT,2024-06-29,2024-06-29,100,100
BI-1245.110,EC,BI-1245.110-ARG_SITE01-0017,101,PLACEBO,PERFORMED,Y,Y,,,,PLACEBO,mg,TABLET,QD,ORAL,101.0,,TREATMENT,2024-06-30,2024-06-30,101,101
BI-1245.110,EC,BI-1245.110-ARG_SITE01-0017,102,PLACEBO,PERFORMED,Y,Y,,,,PLACEBO,mg,TABLET,QD,ORAL,102.0,,TREATMENT,2024-07-01,2024-07-01,102,102
BI-1245.110,EC,BI-1245.110-ARG_SITE01-0017,103,PLACEBO,PERFORMED,Y,Y,,,,PLACEBO,mg,TABLET,QD,ORAL,103.0,,TREATMENT,2024-07-02,2024-07-02,103,103
BI-1245.110,EC,BI-1245.110-ARG_SITE01-0017,104,PLACEBO,PERFORMED,Y,Y,,,,PLACEBO,mg,TABLET,QD,ORAL,104.0,,TREATMENT,2024-07-03,2024-07-03,104,104
BI-1245.110,EC,BI-1245.110-ARG_SITE01-0017,105,PLACEBO,PERFORMED,Y,Y,,,,PLACEBO,mg,TABLET,QD,ORAL,105.0,,TREATMENT,2024-07-04,2024-07-04,105,105
BI-1245.110,EC,BI-1245.110-ARG_SITE01-0017,106,PLACEBO,PERFORMED,Y,Y,,,,PLACEBO,mg,TABLET,QD,ORAL,106.0,,TREATMENT,2024-07-05,2024-07-05,106,106
BI-1245.110,EC,BI-1245.110-ARG_SITE01-0017,107,PLACEBO,PERFORMED,Y,Y,,,,PLACEBO,mg,TABLET,QD,ORAL,107.0,,TREATMENT,2024-07-06,2024-07-06,107,107
BI-1245.110,EC,BI-1245.110-ARG_SITE01-0017,108,PLACEBO,PERFORMED,Y,Y,,,,PLACEBO,mg,TABLET,QD,ORAL,108.0,,TREATMENT,2024-07-07,2024-07-07,108,108
BI-1245.110,EC,BI-1245.110-ARG_SITE01-0017,109,PLACEBO,PERFORMED,Y,Y,,,,PLACEBO,mg,TABLET,QD,ORAL,109.0,,TREATMENT,2024-07-08,2024-07-08,109,109
BI-1245.110,EC,BI-1245.110-ARG_SITE01-0017,110,PLACEBO,PERFORMED,Y,Y,,,,PLACEBO,mg,TABLET,QD,ORAL,110.0,,TREATMENT,2024-07-09,2024-07-09,110,110
BI-1245.110,EC,BI-1245.110-ARG_SITE01-0017,111,PLACEBO,PERFORMED,Y,Y,,,,PLACEBO,mg,TABLET,QD,ORAL,111.0,,TREATMENT,2024-07-10,2024-07-10,111,111
BI-1245.110,EC,BI-1245.110-ARG_SITE01-0017,112,PLACEBO,PERFORMED,Y,Y,,,,PLACEBO,mg,TABLET,QD,ORAL,112.0,,TREATMENT,2024-07-11,2024-07-11,112,112
BI-1245.110,EC,BI-1245.110-ARG_SITE01-0017,113,PLACEBO,PERFORMED,Y,Y,,,,PLACEBO,mg,TABLET,QD,ORAL,113.0,,TREATMENT,2024-07-12,2024-07-12,113,113
BI-1245.110,EC,BI-1245.110-ARG_SITE01-0017,114,PLACEBO,PERFORMED,Y,Y,,,,PLACEBO,mg,TABLET,QD,ORAL,114.0,,TREATMENT,2024-07-13,2024-07-13,114,114
BI-1245.110,EC,BI-1245.110-ARG_SITE01-0017,115,PLACEBO,PERFORMED,Y,Y,,,,PLACEBO,mg,TABLET,QD,ORAL,115.0,,TREATMENT,2024-07-14,2024-07-14,115,115
BI-1245.110,EC,BI-1245.110-ARG_SITE01-0017,116,PLACEBO,PERFORMED,Y,Y,,,,PLACEBO,mg,TABLET,QD,ORAL,116.0,,TREATMENT,2024-07-15,2024-07-15,116,116
BI-1245.110,EC,BI-1245.110-ARG_SITE01-0017,117,PLACEBO,PERFORMED,Y,Y,,,,PLACEBO,mg,TABLET,QD,ORAL,117.0,,TREATMENT,2024-07-16,2024-07-16,117,117
BI-1245.110,EC,BI-1245.110-ARG_SITE01-0017,118,PLACEBO,PERFORMED,Y,Y,,,,PLACEBO,mg,TABLET,QD,ORAL,118.0,,TREATMENT,2024-07-17,2024-07-17,118,118
BI-1245.110,EC,BI-1245.110-ARG_SITE01-0017,119,PLACEBO,PERFORMED,Y,Y,,,,PLACEBO,mg,TABLET,QD,ORAL,119.0,,TREATMENT,2024-07-18,2024-07-18,119,119
BI-1245.110,EC,BI-1245.110-ARG_SITE01-0017,120,PLACEBO,PERFORMED,Y,Y,,,,PLACEBO,mg,TABLET,QD,ORAL,120.0,,TREATMENT,2024-07-19,2024-07-19,120,120
BI-1245.110,EC,BI-1245.110-ARG_SITE01-0017,121,PLACEBO,PERFORMED,Y,Y,,,,PLACEBO,mg,TABLET,QD,ORAL,121.0,,TREATMENT,2024-07-20,2024-07-20,121,121
BI-1245.110,EC,BI-1245.110-ARG_SITE01-0017,122,PLACEBO,PERFORMED,Y,Y,,,,PLACEBO,mg,TABLET,QD,ORAL,122.0,,TREATMENT,2024-07-21,2024-07-21,122,122
BI-1245.110,EC,BI-1245.110-ARG_SITE01-0017,123,PLACEBO,PERFORMED,Y,Y,,,,PLACEBO,mg,TABLET,QD,ORAL,123.0,,TREATMENT,2024-07-22,2024-07-22,123,123
BI-1245.110,EC,BI-1245.110-ARG_SITE01-0017,124,PLACEBO,PERFORMED,Y,Y,,,,PLACEBO,mg,TABLET,QD,ORAL,124.0,,TREATMENT,2024-07-23,2024-07-23,124,124
BI-1245.110,EC,BI-1245.110-ARG_SITE01-0017,125,PLACEBO,PERFORMED,Y,Y,,,,PLACEBO,mg,TABLET,QD,ORAL,125.0,,TREATMENT,2024-07-24,2024-07-24,125,125
BI-1245.110,EC,BI-1245.110-ARG_SITE01-0017,126,PLACEBO,PERFORMED,Y,Y,,,,PLACEBO,mg,TABLET,QD,ORAL,126.0,,TREATMENT,2024-07-25,2024-07-25,126,126
BI-1245.110,EC,BI-1245.110-ARG_SITE01-0017,127,PLACEBO,PERFORMED,Y,Y,,,,PLACEBO,mg,TABLET,QD,ORAL,127.0,,TREATMENT,2024-07-26,2024-07-26,127,127
BI-1245.110,EC,BI-1245.110-ARG_SITE01-0017,128,PLACEBO,PERFORMED,Y,Y,,,,PLACEBO,mg,TABLET,QD,ORAL,128.0,,TREATMENT,2024-07-27,2024-07-27,128,128
BI-1245.110,EC,BI-1245.110-ARG_SITE01-0017,129,PLACEBO,PERFORMED,Y,Y,,,,PLACEBO,mg,TABLET,QD,ORAL,129.0,,TREATMENT,2024-07-28,2024-07-28,129,129
BI-1245.110,EC,BI-1245.110-ARG_SITE01-0017,130,PLACEBO,PERFORMED,Y,Y,,,,PLACEBO,mg,TABLET,QD,ORAL,130.0,,TREATMENT,2024-07-29,2024-07-29,130,130
BI-1245.110,EC,BI-1245.110-ARG_SITE01-0017,131,PLACEBO,PERFORMED,Y,Y,,,,PLACEBO,mg,TABLET,QD,ORAL,131.0,,TREATMENT,2024-07-30,2024-07-30,131,131
BI-1245.110,EC,BI-1245.110-ARG_SITE01-0017,132,PLACEBO,PERFORMED,Y,Y,,,,PLACEBO,mg,TABLET,QD,ORAL,132.0,,TREATMENT,2024-07-31,2024-07-31,132,132
BI-1245.110,EC,BI-1245.110-ARG_SITE01-0017,133,PLACEBO,PERFORMED,Y,Y,,,,PLACEBO,mg,TABLET,QD,ORAL,133.0,,TREATMENT,2024-08-01,2024-08-01,133,133
BI-1245.110,EC,BI-1245.110-ARG_SITE01-0017,134,PLACEBO,PERFORMED,Y,Y,,,,PLACEBO,mg,TABLET,QD,ORAL,134.0,,TREATMENT,2024-08-02,2024-08-02,134,134
BI-1245.110,EC,BI-1245.110-ARG_SITE01-0017,135,PLACEBO,PERFORMED,Y,Y,,,,PLACEBO,mg,TABLET,QD,ORAL,135.0,,TREATMENT,2024-08-03,2024-08-03,135,135
BI-1245.110,EC,BI-1245.110-ARG_SITE01-0017,136,PLACEBO,PERFORMED,Y,Y,,,,PLACEBO,mg,TABLET,QD,ORAL,136.0,,TREATMENT,2024-08-04,2024-08-04,136,136
BI-1245.110,EC,BI-1245.110-ARG_SITE01-0017,137,PLACEBO,PERFORMED,Y,Y,,,,PLACEBO,mg,TABLET,QD,ORAL,137.0,,TREATMENT,2024-08-05,2024-08-05,137,137
BI-1245.110,EC,BI-1245.110-ARG_SITE01-0017,138,PLACEBO,PERFORMED,Y,Y,,,,PLACEBO,mg,TABLET,QD,ORAL,138.0,,TREATMENT,2024-08-06,2024-08-06,138,138
BI-1245.110,EC,BI-1245.110-ARG_SITE01-0017,139,PLACEBO,PERFORMED,Y,Y,,,,PLACEBO,mg,TABLET,QD,ORAL,139.0,,TREATMENT,2024-08-07,2024-08-07,139,139
BI-1245.110,EC,BI-1245.110-ARG_SITE01-0017,140,PLACEBO,PERFORMED,Y,Y,,,,PLACEBO,mg,TABLET,QD,ORAL,140.0,,TREATMENT,2024-08-08,2024-08-08,140,140
BI-1245.110,EC,BI-1245.110-ARG_SITE01-0017,141,PLACEBO,PERFORMED,Y,Y,,,,PLACEBO,mg,TABLET,QD,ORAL,141.0,,TREATMENT,2024-08-09,2024-08-09,141,141
BI-1245.110,EC,BI-1245.110-ARG_SITE01-0017,142,PLACEBO,PERFORMED,Y,Y,,,,PLACEBO,mg,TABLET,QD,ORAL,142.0,,TREATMENT,2024-08-10,2024-08-10,142,142
BI-1245.110,EC,BI-1245.110-ARG_SITE01-0017,143,PLACEBO,PERFORMED,Y,Y,,,,PLACEBO,mg,TABLET,QD,ORAL,143.0,,TREATMENT,2024-08-11,2024-08-11,143,143
BI-1245.110,EC,BI-1245.110-ARG_SITE01-0017,144,PLACEBO,PERFORMED,Y,Y,,,,PLACEBO,mg,TABLET,QD,ORAL,144.0,,TREATMENT,2024-08-12,2024-08-12,144,144
BI-1245.110,EC,BI-1245.110-ARG_SITE01-0017,145,PLACEBO,PERFORMED,Y,Y,,,,PLACEBO,mg,TABLET,QD,ORAL,145.0,,TREATMENT,2024-08-13,2024-08-13,145,145
BI-1245.110,EC,BI-1245.110-ARG_SITE01-0017,146,PLACEBO,PERFORMED,Y,Y,,,,PLACEBO,mg,TABLET,QD,ORAL,146.0,,TREATMENT,2024-08-14,2024-08-14,146,146
BI-1245.110,EC,BI-1245.110-ARG_SITE01-0017,147,PLACEBO,PERFORMED,Y,Y,,,,PLACEBO,mg,TABLET,QD,ORAL,147.0,,TREATMENT,2024-08-15,2024-08-15,147,147
BI-1245.110,EC,BI-1245.110-ARG_SITE01-0017,148,PLACEBO,PERFORMED,Y,Y,,,,PLACEBO,mg,TABLET,QD,ORAL,148.0,,TREATMENT,2024-08-16,2024-08-16,148,148
BI-1245.110,EC,BI-1245.110-ARG_SITE01-0017,149,PLACEBO,PERFORMED,Y,Y,,,,PLACEBO,mg,TABLET,QD,ORAL,149.0,,TREATMENT,2024-08-17,2024-08-17,149,149
BI-1245.110,EC,BI-1245.110-ARG_SITE01-0017,150,PLACEBO,PERFORMED,Y,Y,,,,PLACEBO,mg,TABLET,QD,ORAL,150.0,,TREATMENT,2024-08-18,2024-08-18,150,150
BI-1245.110,EC,BI-1245.110-ARG_SITE01-0017,151,PLACEBO,PERFORMED,Y,Y,,,,PLACEBO,mg,TABLET,QD,ORAL,151.0,,TREATMENT,2024-08-19,2024-08-19,151,151
BI-1245.110,EC,BI-1245.110-ARG_SITE01-0017,152,PLACEBO,PERFORMED,Y,Y,,,,PLACEBO,mg,TABLET,QD,ORAL,152.0,,TREATMENT,2024-08-20,2024-08-20,152,152
BI-1245.110,EC,BI-1245.110-ARG_SITE01-0017,153,PLACEBO,PERFORMED,Y,Y,,,,PLACEBO,mg,TABLET,QD,ORAL,153.0,,TREATMENT,2024-08-21,2024-08-21,153,153
BI-1245.110,EC,BI-1245.110-ARG_SITE01-0017,154,PLACEBO,PERFORMED,Y,Y,,,,PLACEBO,mg,TABLET,QD,ORAL,154.0,,TREATMENT,2024-08-22,2024-08-22,154,154
BI-1245.110,EC,BI-1245.110-ARG_SITE01-0017,155,PLACEBO,PERFORMED,Y,Y,,,,PLACEBO,mg,TABLET,QD,ORAL,155.0,,TREATMENT,2024-08-23,2024-08-23,155,155
BI-1245.110,EC,BI-1245.110-ARG_SITE01-0017,156,PLACEBO,PERFORMED,Y,Y,,,,PLACEBO,mg,TABLET,QD,ORAL,156.0,,TREATMENT,2024-08-24,2024-08-24,156,156
BI-1245.110,EC,BI-1245.110-ARG_SITE01-0017,157,PLACEBO,PERFORMED,Y,Y,,,,PLACEBO,mg,TABLET,QD,ORAL,157.0,,TREATMENT,2024-08-25,2024-08-25,157,157
BI-1245.110,EC,BI-1245.110-ARG_SITE01-0017,158,PLACEBO,PERFORMED,Y,Y,,,,PLACEBO,mg,TABLET,QD,ORAL,158.0,,TREATMENT,2024-08-26,2024-08-26,158,158
BI-1245.110,EC,BI-1245.110-ARG_SITE01-0017,159,PLACEBO,PERFORMED,Y,Y,,,,PLACEBO,mg,TABLET,QD,ORAL,159.0,,TREATMENT,2024-08-27,2024-08-27,159,159
BI-1245.110,EC,BI-1245.110-ARG_SITE01-0017,160,PLACEBO,PERFORMED,Y,Y,,,,PLACEBO,mg,TABLET,QD,ORAL,160.0,,TREATMENT,2024-08-28,2024-08-28,160,160
BI-1245.110,EC,BI-1245.110-ARG_SITE01-0017,161,PLACEBO,PERFORMED,Y,Y,,,,PLACEBO,mg,TABLET,QD,ORAL,161.0,,TREATMENT,2024-08-29,2024-08-29,161,161
BI-1245.110,EC,BI-1245.110-ARG_SITE01-0017,162,PLACEBO,PERFORMED,Y,Y,,,,PLACEBO,mg,TABLET,QD,ORAL,162.0,,TREATMENT,2024-08-30,2024-08-30,162,162
BI-1245.110,EC,BI-1245.110-ARG_SITE01-0017,163,PLACEBO,PERFORMED,Y,Y,,,,PLACEBO,mg,TABLET,QD,ORAL,163.0,,TREATMENT,2024-08-31,2024-08-31,163,163
BI-1245.110,EC,BI-1245.110-ARG_SITE01-0017,164,PLACEBO,PERFORMED,Y,Y,,,,PLACEBO,mg,TABLET,QD,ORAL,164.0,,TREATMENT,2024-09-01,2024-09-01,164,164
BI-1245.110,EC,BI-1245.110-ARG_SITE01-0017,165,PLACEBO,PERFORMED,Y,Y,,,,PLACEBO,mg,TABLET,QD,ORAL,165.0,,TREATMENT,2024-09-02,2024-09-02,165,165
BI-1245.110,EC,BI-1245.110-ARG_SITE01-0017,166,PLACEBO,PERFORMED,Y,Y,,,,PLACEBO,mg,TABLET,QD,ORAL,166.0,,TREATMENT,2024-09-03,2024-09-03,166,166
BI-1245.110,EC,BI-1245.110-ARG_SITE01-0017,167,PLACEBO,PERFORMED,Y,Y,,,,PLACEBO,mg,TABLET,QD,ORAL,167.0,,TREATMENT,2024-09-04,2024-09-04,167,167
BI-1245.110,EC,BI-1245.110-ARG_SITE01-0017,168,PLACEBO,PERFORMED,Y,Y,,,,PLACEBO,mg,TABLET,QD,ORAL,168.0,,TREATMENT,2024-09-05,2024-09-05,168,168
BI-1245.110,EC,BI-1245.110-ARG_SITE01-0017,169,PLACEBO,PERFORMED,Y,Y,,,,PLACEBO,mg,TABLET,QD,ORAL,169.0,,TREATMENT,2024-09-06,2024-09-06,169,169
BI-1245.110,EC,BI-1245.110-ARG_SITE01-0017,170,PLACEBO,PERFORMED,Y,Y,,,,PLACEBO,mg,TABLET,QD,ORAL,170.0,,TREATMENT,2024-09-07,2024-09-07,170,170
BI-1245.110,EC,BI-1245.110-ARG_SITE01-0017,171,PLACEBO,PERFORMED,Y,Y,,,,PLACEBO,mg,TABLET,QD,ORAL,171.0,,TREATMENT,2024-09-08,2024-09-08,171,171
BI-1245.110,EC,BI-1245.110-ARG_SITE01-0017,172,PLACEBO,PERFORMED,Y,Y,,,,PLACEBO,mg,TABLET,QD,ORAL,172.0,,TREATMENT,2024-09-09,2024-09-09,172,172
BI-1245.110,EC,BI-1245.110-ARG_SITE01-0017,173,PLACEBO,PERFORMED,Y,Y,,,,PLACEBO,mg,TABLET,QD,ORAL,173.0,,TREATMENT,2024-09-10,2024-09-10,173,173
BI-1245.110,EC,BI-1245.110-ARG_SITE01-0017,174,PLACEBO,PERFORMED,Y,Y,,,,PLACEBO,mg,TABLET,QD,ORAL,174.0,,TREATMENT,2024-09-11,2024-09-11,174,174
BI-1245.110,EC,BI-1245.110-ARG_SITE01-0017,175,PLACEBO,PERFORMED,Y,Y,,,,PLACEBO,mg,TABLET,QD,ORAL,175.0,,TREATMENT,2024-09-12,2024-09-12,175,175
BI-1245.110,EC,BI-1245.110-ARG_SITE01-0017,176,PLACEBO,PERFORMED,Y,Y,,,,PLACEBO,mg,TABLET,QD,ORAL,176.0,,TREATMENT,2024-09-13,2024-09-13,176,176
BI-1245.110,EC,BI-1245.110-ARG_SITE01-0017,177,PLACEBO,PERFORMED,Y,Y,,,,PLACEBO,mg,TABLET,QD,ORAL,177.0,,TREATMENT,2024-09-14,2024-09-14,177,177
BI-1245.110,EC,BI-1245.110-ARG_SITE01-0017,178,PLACEBO,PERFORMED,Y,Y,,,,PLACEBO,mg,TABLET,QD,ORAL,178.0,,TREATMENT,2024-09-15,2024-09-15,178,178
BI-1245.110,EC,BI-1245.110-ARG_SITE01-0017,179,PLACEBO,PERFORMED,Y,Y,,,,PLACEBO,mg,TABLET,QD,ORAL,179.0,,TREATMENT,2024-09-16,2024-09-16,179,179
BI-1245.110,EC,BI-1245.110-ARG_SITE01-0017,180,PLACEBO,PERFORMED,Y,Y,,,,PLACEBO,mg,TABLET,QD,ORAL,5.0,MONTH 6,TREATMENT,2024-09-17,2024-09-17,180,180
BI-1245.110,EC,BI-1245.110-ARG_SITE01-0017,181,PLACEBO,PERFORMED,Y,Y,,,,PLACEBO,mg,TABLET,QD,ORAL,5.0,MONTH 6,TREATMENT,2024-09-18,2024-09-18,181,181
BI-1245.110,EC,BI-1245.110-ARG_SITE01-0017,182,PLACEBO,PERFORMED,Y,Y,,,,PLACEBO,mg,TABLET,QD,ORAL,5.0,MONTH 6,TREATMENT,2024-09-19,2024-09-19,182,182
BI-1245.110,EC,BI-1245.110-ARG_SITE01-0017,183,PLACEBO,PERFORMED,Y,Y,,,,PLACEBO,mg,TABLET,QD,ORAL,5.0,MONTH 6,TREATMENT,2024-09-20,2024-09-20,183,183
BI-1245.110,EC,BI-1245.110-ARG_SITE01-0017,184,PLACEBO,PERFORMED,Y,Y,,,,PLACEBO,mg,TABLET,QD,ORAL,5.0,MONTH 6,TREATMENT,2024-09-21,2024-09-21,184,184
BI-1245.110,EC,BI-1245.110-ARG_SITE01-0017,185,PLACEBO,PERFORMED,Y,Y,,,,PLACEBO,mg,TABLET,QD,ORAL,5.0,MONTH 6,TREATMENT,2024-09-22,2024-09-22,185,185
BI-1245.110,EC,BI-1245.110-ARG_SITE01-0017,186,PLACEBO,PERFORMED,Y,Y,,,,PLACEBO,mg,TABLET,QD,ORAL,5.0,MONTH 6,TREATMENT,2024-09-23,2024-09-23,186,186
BI-1245.110,EC,BI-1245.110-ARG_SITE01-0017,187,PLACEBO,PERFORMED,Y,Y,,,,PLACEBO,mg,TABLET,QD,ORAL,187.0,,TREATMENT,2024-09-24,2024-09-24,187,187
BI-1245.110,EC,BI-1245.110-ARG_SITE01-0017,188,PLACEBO,PERFORMED,Y,Y,,,,PLACEBO,mg,TABLET,QD,ORAL,188.0,,TREATMENT,2024-09-25,2024-09-25,188,188
BI-1245.110,EC,BI-1245.110-ARG_SITE01-0017,189,PLACEBO,PERFORMED,Y,Y,,,,PLACEBO,mg,TABLET,QD,ORAL,189.0,,TREATMENT,2024-09-26,2024-09-26,189,189
BI-1245.110,EC,BI-1245.110-ARG_SITE01-0017,190,PLACEBO,PERFORMED,Y,Y,,,,PLACEBO,mg,TABLET,QD,ORAL,190.0,,TREATMENT,2024-09-27,2024-09-27,190,190
BI-1245.110,EC,BI-1245.110-ARG_SITE01-0017,191,PLACEBO,PERFORMED,Y,Y,,,,PLACEBO,mg,TABLET,QD,ORAL,191.0,,TREATMENT,2024-09-28,2024-09-28,191,191
BI-1245.110,EC,BI-1245.110-ARG_SITE01-0017,192,PLACEBO,PERFORMED,Y,Y,,,,PLACEBO,mg,TABLET,QD,ORAL,192.0,,TREATMENT,2024-09-29,2024-09-29,192,192
BI-1245.110,EC,BI-1245.110-ARG_SITE01-0017,193,PLACEBO,PERFORMED,Y,Y,,,,PLACEBO,mg,TABLET,QD,ORAL,193.0,,TREATMENT,2024-09-30,2024-09-30,193,193
BI-1245.110,EC,BI-1245.110-ARG_SITE01-0017,194,PLACEBO,PERFORMED,Y,Y,,,,PLACEBO,mg,TABLET,QD,ORAL,194.0,,TREATMENT,2024-10-01,2024-10-01,194,194
BI-1245.110,EC,BI-1245.110-ARG_SITE01-0017,195,PLACEBO,PERFORMED,Y,Y,,,,PLACEBO,mg,TABLET,QD,ORAL,195.0,,TREATMENT,2024-10-02,2024-10-02,195,195
BI-1245.110,EC,BI-1245.110-ARG_SITE01-0017,196,PLACEBO,PERFORMED,Y,Y,,,,PLACEBO,mg,TABLET,QD,ORAL,196.0,,TREATMENT,2024-10-03,2024-10-03,196,196
BI-1245.110,EC,BI-1245.110-ARG_SITE01-0017,197,PLACEBO,PERFORMED,Y,Y,,,,PLACEBO,mg,TABLET,QD,ORAL,197.0,,TREATMENT,2024-10-04,2024-10-04,197,197
BI-1245.110,EC,BI-1245.110-ARG_SITE01-0017,198,PLACEBO,PERFORMED,Y,Y,,,,PLACEBO,mg,TABLET,QD,ORAL,198.0,,TREATMENT,2024-10-05,2024-10-05,198,198
BI-1245.110,EC,BI-1245.110-ARG_SITE01-0017,199,PLACEBO,PERFORMED,Y,Y,,,,PLACEBO,mg,TABLET,QD,ORAL,199.0,,TREATMENT,2024-10-06,2024-10-06,199,199
BI-1245.110,EC,BI-1245.110-ARG_SITE01-0017,200,PLACEBO,PERFORMED,Y,Y,,,,PLACEBO,mg,TABLET,QD,ORAL,200.0,,TREATMENT,2024-10-07,2024-10-07,200,200
BI-1245.110,EC,BI-1245.110-ARG_SITE01-0017,201,PLACEBO,PERFORMED,Y,Y,,,,PLACEBO,mg,TABLET,QD,ORAL,201.0,,TREATMENT,2024-10-08,2024-10-08,201,201
BI-1245.110,EC,BI-1245.110-ARG_SITE01-0017,202,PLACEBO,PERFORMED,Y,Y,,,,PLACEBO,mg,TABLET,QD,ORAL,202.0,,TREATMENT,2024-10-09,2024-10-09,202,202
BI-1245.110,EC,BI-1245.110-ARG_SITE01-0017,203,PLACEBO,PERFORMED,Y,Y,,,,PLACEBO,mg,TABLET,QD,ORAL,203.0,,TREATMENT,2024-10-10,2024-10-10,203,203
BI-1245.110,EC,BI-1245.110-ARG_SITE01-0017,204,PLACEBO,PERFORMED,Y,Y,,,,PLACEBO,mg,TABLET,QD,ORAL,204.0,,TREATMENT,2024-10-11,2024-10-11,204,204
BI-1245.110,EC,BI-1245.110-ARG_SITE01-0017,205,PLACEBO,PERFORMED,Y,Y,,,,PLACEBO,mg,TABLET,QD,ORAL,205.0,,TREATMENT,2024-10-12,2024-10-12,205,205
BI-1245.110,EC,BI-1245.110-ARG_SITE01-0017,206,PLACEBO,PERFORMED,Y,Y,,,,PLACEBO,mg,TABLET,QD,ORAL,206.0,,TREATMENT,2024-10-13,2024-10-13,206,206
BI-1245.110,EC,BI-1245.110-ARG_SITE01-0017,207,PLACEBO,PERFORMED,Y,Y,,,,PLACEBO,mg,TABLET,QD,ORAL,207.0,,TREATMENT,2024-10-14,2024-10-14,207,207
BI-1245.110,EC,BI-1245.110-ARG_SITE01-0017,208,PLACEBO,PERFORMED,Y,Y,,,,PLACEBO,mg,TABLET,QD,ORAL,208.0,,TREATMENT,2024-10-15,2024-10-15,208,208
BI-1245.110,EC,BI-1245.110-ARG_SITE01-0017,209,PLACEBO,PERFORMED,Y,Y,,,,PLACEBO,mg,TABLET,QD,ORAL,209.0,,TREATMENT,2024-10-16,2024-10-16,209,209
BI-1245.110,EC,BI-1245.110-ARG_SITE01-0017,210,PLACEBO,PERFORMED,Y,Y,,,,PLACEBO,mg,TABLET,QD,ORAL,210.0,,TREATMENT,2024-10-17,2024-10-17,210,210
BI-1245.110,EC,BI-1245.110-ARG_SITE01-0017,211,PLACEBO,PERFORMED,Y,Y,,,,PLACEBO,mg,TABLET,QD,ORAL,211.0,,TREATMENT,2024-10-18,2024-10-18,211,211
BI-1245.110,EC,BI-1245.110-ARG_SITE01-0017,212,PLACEBO,PERFORMED,Y,Y,,,,PLACEBO,mg,TABLET,QD,ORAL,212.0,,TREATMENT,2024-10-19,2024-10-19,212,212
BI-1245.110,EC,BI-1245.110-ARG_SITE01-0017,213,PLACEBO,PERFORMED,Y,Y,,,,PLACEBO,mg,TABLET,QD,ORAL,213.0,,TREATMENT,2024-10-20,2024-10-20,213,213
BI-1245.110,EC,BI-1245.110-ARG_SITE01-0017,214,PLACEBO,PERFORMED,Y,Y,,,,PLACEBO,mg,TABLET,QD,ORAL,214.0,,TREATMENT,2024-10-21,2024-10-21,214,214
BI-1245.110,EC,BI-1245.110-ARG_SITE01-0017,215,PLACEBO,PERFORMED,Y,Y,,,,PLACEBO,mg,TABLET,QD,ORAL,215.0,,TREATMENT,2024-10-22,2024-10-22,215,215
BI-1245.110,EC,BI-1245.110-ARG_SITE01-0017,216,PLACEBO,PERFORMED,Y,Y,,,,PLACEBO,mg,TABLET,QD,ORAL,216.0,,TREATMENT,2024-10-23,2024-10-23,216,216
BI-1245.110,EC,BI-1245.110-ARG_SITE01-0017,217,PLACEBO,PERFORMED,Y,Y,,,,PLACEBO,mg,TABLET,QD,ORAL,217.0,,TREATMENT,2024-10-24,2024-10-24,217,217
BI-1245.110,EC,BI-1245.110-ARG_SITE01-0017,218,PLACEBO,PERFORMED,Y,Y,,,,PLACEBO,mg,TABLET,QD,ORAL,218.0,,TREATMENT,2024-10-25,2024-10-25,218,218
BI-1245.110,EC,BI-1245.110-ARG_SITE01-0017,219,PLACEBO,PERFORMED,Y,Y,,,,PLACEBO,mg,TABLET,QD,ORAL,219.0,,TREATMENT,2024-10-26,2024-10-26,219,219
BI-1245.110,EC,BI-1245.110-ARG_SITE01-0017,220,PLACEBO,PERFORMED,Y,Y,,,,PLACEBO,mg,TABLET,QD,ORAL,220.0,,TREATMENT,2024-10-27,2024-10-27,220,220
BI-1245.110,EC,BI-1245.110-ARG_SITE01-0017,221,PLACEBO,PERFORMED,Y,Y,,,,PLACEBO,mg,TABLET,QD,ORAL,221.0,,TREATMENT,2024-10-28,2024-10-28,221,221
BI-1245.110,EC,BI-1245.110-ARG_SITE01-0017,222,PLACEBO,PERFORMED,Y,Y,,,,PLACEBO,mg,TABLET,QD,ORAL,222.0,,TREATMENT,2024-10-29,2024-10-29,222,222
BI-1245.110,EC,BI-1245.110-ARG_SITE01-0017,223,PLACEBO,PERFORMED,Y,Y,,,,PLACEBO,mg,TABLET,QD,ORAL,223.0,,TREATMENT,2024-10-30,2024-10-30,223,223
BI-1245.110,EC,BI-1245.110-ARG_SITE01-0017,224,PLACEBO,PERFORMED,Y,Y,,,,PLACEBO,mg,TABLET,QD,ORAL,224.0,,TREATMENT,2024-10-31,2024-10-31,224,224
BI-1245.110,EC,BI-1245.110-ARG_SITE01-0017,225,PLACEBO,PERFORMED,Y,Y,,,,PLACEBO,mg,TABLET,QD,ORAL,225.0,,TREATMENT,2024-11-01,2024-11-01,225,225
BI-1245.110,EC,BI-1245.110-ARG_SITE01-0017,226,PLACEBO,PERFORMED,Y,Y,,,,PLACEBO,mg,TABLET,QD,ORAL,226.0,,TREATMENT,2024-11-02,2024-11-02,226,226
BI-1245.110,EC,BI-1245.110-ARG_SITE01-0017,227,PLACEBO,PERFORMED,Y,Y,,,,PLACEBO,mg,TABLET,QD,ORAL,227.0,,TREATMENT,2024-11-03,2024-11-03,227,227
BI-1245.110,EC,BI-1245.110-ARG_SITE01-0017,228,PLACEBO,PERFORMED,Y,Y,,,,PLACEBO,mg,TABLET,QD,ORAL,228.0,,TREATMENT,2024-11-04,2024-11-04,228,228
BI-1245.110,EC,BI-1245.110-ARG_SITE01-0017,229,PLACEBO,PERFORMED,Y,Y,,,,PLACEBO,mg,TABLET,QD,ORAL,229.0,,TREATMENT,2024-11-05,2024-11-05,229,229
BI-1245.110,EC,BI-1245.110-ARG_SITE01-0017,230,PLACEBO,PERFORMED,Y,Y,,,,PLACEBO,mg,TABLET,QD,ORAL,230.0,,TREATMENT,2024-11-06,2024-11-06,230,230
BI-1245.110,EC,BI-1245.110-ARG_SITE01-0017,231,PLACEBO,PERFORMED,Y,Y,,,,PLACEBO,mg,TABLET,QD,ORAL,231.0,,TREATMENT,2024-11-07,2024-11-07,231,231
BI-1245.110,EC,BI-1245.110-ARG_SITE01-0017,232,PLACEBO,PERFORMED,Y,Y,,,,PLACEBO,mg,TABLET,QD,ORAL,232.0,,TREATMENT,2024-11-08,2024-11-08,232,232
BI-1245.110,EC,BI-1245.110-ARG_SITE01-0017,233,PLACEBO,PERFORMED,Y,Y,,,,PLACEBO,mg,TABLET,QD,ORAL,233.0,,TREATMENT,2024-11-09,2024-11-09,233,233
BI-1245.110,EC,BI-1245.110-ARG_SITE01-0017,234,PLACEBO,PERFORMED,Y,Y,,,,PLACEBO,mg,TABLET,QD,ORAL,234.0,,TREATMENT,2024-11-10,2024-11-10,234,234
BI-1245.110,EC,BI-1245.110-ARG_SITE01-0017,235,PLACEBO,PERFORMED,Y,Y,,,,PLACEBO,mg,TABLET,QD,ORAL,235.0,,TREATMENT,2024-11-11,2024-11-11,235,235
BI-1245.110,EC,BI-1245.110-ARG_SITE01-0017,236,PLACEBO,PERFORMED,Y,Y,,,,PLACEBO,mg,TABLET,QD,ORAL,236.0,,TREATMENT,2024-11-12,2024-11-12,236,236
BI-1245.110,EC,BI-1245.110-ARG_SITE01-0017,237,PLACEBO,PERFORMED,Y,Y,,,,PLACEBO,mg,TABLET,QD,ORAL,237.0,,TREATMENT,2024-11-13,2024-11-13,237,237
BI-1245.110,EC,BI-1245.110-ARG_SITE01-0017,238,PLACEBO,PERFORMED,Y,Y,,,,PLACEBO,mg,TABLET,QD,ORAL,238.0,,TREATMENT,2024-11-14,2024-11-14,238,238
BI-1245.110,EC,BI-1245.110-ARG_SITE01-0017,239,PLACEBO,PERFORMED,Y,Y,,,,PLACEBO,mg,TABLET,QD,ORAL,239.0,,TREATMENT,2024-11-15,2024-11-15,239,239
BI-1245.110,EC,BI-1245.110-ARG_SITE01-0017,240,PLACEBO,PERFORMED,Y,Y,,,,PLACEBO,mg,TABLET,QD,ORAL,240.0,,TREATMENT,2024-11-16,2024-11-16,240,240
BI-1245.110,EC,BI-1245.110-ARG_SITE01-0017,241,PLACEBO,PERFORMED,Y,Y,,,,PLACEBO,mg,TABLET,QD,ORAL,241.0,,TREATMENT,2024-11-17,2024-11-17,241,241
BI-1245.110,EC,BI-1245.110-ARG_SITE01-0017,242,PLACEBO,PERFORMED,Y,Y,,,,PLACEBO,mg,TABLET,QD,ORAL,242.0,,TREATMENT,2024-11-18,2024-11-18,242,242
BI-1245.110,EC,BI-1245.110-ARG_SITE01-0017,243,PLACEBO,PERFORMED,Y,Y,,,,PLACEBO,mg,TABLET,QD,ORAL,243.0,,TREATMENT,2024-11-19,2024-11-19,243,243
BI-1245.110,EC,BI-1245.110-ARG_SITE01-0017,244,PLACEBO,PERFORMED,Y,Y,,,,PLACEBO,mg,TABLET,QD,ORAL,244.0,,TREATMENT,2024-11-20,2024-11-20,244,244
BI-1245.110,EC,BI-1245.110-ARG_SITE01-0017,245,PLACEBO,PERFORMED,Y,Y,,,,PLACEBO,mg,TABLET,QD,ORAL,245.0,,TREATMENT,2024-11-21,2024-11-21,245,245
BI-1245.110,EC,BI-1245.110-ARG_SITE01-0017,246,PLACEBO,PERFORMED,Y,Y,,,,PLACEBO,mg,TABLET,QD,ORAL,246.0,,TREATMENT,2024-11-22,2024-11-22,246,246
BI-1245.110,EC,BI-1245.110-ARG_SITE01-0017,247,PLACEBO,PERFORMED,Y,Y,,,,PLACEBO,mg,TABLET,QD,ORAL,247.0,,TREATMENT,2024-11-23,2024-11-23,247,247
BI-1245.110,EC,BI-1245.110-ARG_SITE01-0017,248,PLACEBO,PERFORMED,Y,Y,,,,PLACEBO,mg,TABLET,QD,ORAL,248.0,,TREATMENT,2024-11-24,2024-11-24,248,248
BI-1245.110,EC,BI-1245.110-ARG_SITE01-0017,249,PLACEBO,PERFORMED,Y,Y,,,,PLACEBO,mg,TABLET,QD,ORAL,249.0,,TREATMENT,2024-11-25,2024-11-25,249,249
BI-1245.110,EC,BI-1245.110-ARG_SITE01-0017,250,PLACEBO,PERFORMED,Y,Y,,,,PLACEBO,mg,TABLET,QD,ORAL,250.0,,TREATMENT,2024-11-26,2024-11-26,250,250
BI-1245.110,EC,BI-1245.110-ARG_SITE01-0017,251,PLACEBO,PERFORMED,Y,Y,,,,PLACEBO,mg,TABLET,QD,ORAL,251.0,,TREATMENT,2024-11-27,2024-11-27,251,251
BI-1245.110,EC,BI-1245.110-ARG_SITE01-0017,252,PLACEBO,PERFORMED,Y,Y,,,,PLACEBO,mg,TABLET,QD,ORAL,252.0,,TREATMENT,2024-11-28,2024-11-28,252,252
BI-1245.110,EC,BI-1245.110-ARG_SITE01-0017,253,PLACEBO,PERFORMED,Y,Y,,,,PLACEBO,mg,TABLET,QD,ORAL,253.0,,TREATMENT,2024-11-29,2024-11-29,253,253
BI-1245.110,EC,BI-1245.110-ARG_SITE01-0017,254,PLACEBO,PERFORMED,Y,Y,,,,PLACEBO,mg,TABLET,QD,ORAL,254.0,,TREATMENT,2024-11-30,2024-11-30,254,254
BI-1245.110,EC,BI-1245.110-ARG_SITE01-0017,255,PLACEBO,PERFORMED,Y,Y,,,,PLACEBO,mg,TABLET,QD,ORAL,255.0,,TREATMENT,2024-12-01,2024-12-01,255,255
BI-1245.110,EC,BI-1245.110-ARG_SITE01-0017,256,PLACEBO,PERFORMED,Y,Y,,,,PLACEBO,mg,TABLET,QD,ORAL,256.0,,TREATMENT,2024-12-02,2024-12-02,256,256
BI-1245.110,EC,BI-1245.110-ARG_SITE01-0017,257,PLACEBO,PERFORMED,Y,Y,,,,PLACEBO,mg,TABLET,QD,ORAL,257.0,,TREATMENT,2024-12-03,2024-12-03,257,257
BI-1245.110,EC,BI-1245.110-ARG_SITE01-0017,258,PLACEBO,PERFORMED,Y,Y,,,,PLACEBO,mg,TABLET,QD,ORAL,258.0,,TREATMENT,2024-12-04,2024-12-04,258,258
BI-1245.110,EC,BI-1245.110-ARG_SITE01-0017,259,PLACEBO,PERFORMED,Y,Y,,,,PLACEBO,mg,TABLET,QD,ORAL,259.0,,TREATMENT,2024-12-05,2024-12-05,259,259
BI-1245.110,EC,BI-1245.110-ARG_SITE01-0017,260,PLACEBO,PERFORMED,Y,Y,,,,PLACEBO,mg,TABLET,QD,ORAL,260.0,,TREATMENT,2024-12-06,2024-12-06,260,260
BI-1245.110,EC,BI-1245.110-ARG_SITE01-0017,261,PLACEBO,PERFORMED,Y,Y,,,,PLACEBO,mg,TABLET,QD,ORAL,261.0,,TREATMENT,2024-12-07,2024-12-07,261,261
BI-1245.110,EC,BI-1245.110-ARG_SITE01-0017,262,PLACEBO,PERFORMED,Y,Y,,,,PLACEBO,mg,TABLET,QD,ORAL,262.0,,TREATMENT,2024-12-08,2024-12-08,262,262
BI-1245.110,EC,BI-1245.110-ARG_SITE01-0017,263,PLACEBO,PERFORMED,Y,Y,,,,PLACEBO,mg,TABLET,QD,ORAL,263.0,,TREATMENT,2024-12-09,2024-12-09,263,263
BI-1245.110,EC,BI-1245.110-ARG_SITE01-0017,264,PLACEBO,PERFORMED,Y,Y,,,,PLACEBO,mg,TABLET,QD,ORAL,264.0,,TREATMENT,2024-12-10,2024-12-10,264,264
BI-1245.110,EC,BI-1245.110-ARG_SITE01-0017,265,PLACEBO,PERFORMED,Y,Y,,,,PLACEBO,mg,TABLET,QD,ORAL,265.0,,TREATMENT,2024-12-11,2024-12-11,265,265
BI-1245.110,EC,BI-1245.110-ARG_SITE01-0017,266,PLACEBO,PERFORMED,Y,Y,,,,PLACEBO,mg,TABLET,QD,ORAL,266.0,,TREATMENT,2024-12-12,2024-12-12,266,266
BI-1245.110,EC,BI-1245.110-ARG_SITE01-0017,267,PLACEBO,PERFORMED,Y,Y,,,,PLACEBO,mg,TABLET,QD,ORAL,267.0,,TREATMENT,2024-12-13,2024-12-13,267,267
BI-1245.110,EC,BI-1245.110-ARG_SITE01-0017,268,PLACEBO,PERFORMED,Y,Y,,,,PLACEBO,mg,TABLET,QD,ORAL,268.0,,TREATMENT,2024-12-14,2024-12-14,268,268
BI-1245.110,EC,BI-1245.110-ARG_SITE01-0017,269,PLACEBO,PERFORMED,Y,Y,,,,PLACEBO,mg,TABLET,QD,ORAL,269.0,,TREATMENT,2024-12-15,2024-12-15,269,269
BI-1245.110,EC,BI-1245.110-ARG_SITE01-0017,270,PLACEBO,PERFORMED,Y,Y,,,,PLACEBO,mg,TABLET,QD,ORAL,270.0,,TREATMENT,2024-12-16,2024-12-16,270,270
BI-1245.110,EC,BI-1245.110-ARG_SITE01-0017,271,PLACEBO,PERFORMED,Y,Y,,,,PLACEBO,mg,TABLET,QD,ORAL,271.0,,TREATMENT,2024-12-17,2024-12-17,271,271
BI-1245.110,EC,BI-1245.110-ARG_SITE01-0017,272,PLACEBO,PERFORMED,Y,Y,,,,PLACEBO,mg,TABLET,QD,ORAL,272.0,,TREATMENT,2024-12-18,2024-12-18,272,272
BI-1245.110,EC,BI-1245.110-ARG_SITE01-0017,273,PLACEBO,PERFORMED,Y,Y,,,,PLACEBO,mg,TABLET,QD,ORAL,273.0,,TREATMENT,2024-12-19,2024-12-19,273,273
BI-1245.110,EC,BI-1245.110-ARG_SITE01-0017,274,PLACEBO,PERFORMED,Y,Y,,,,PLACEBO,mg,TABLET,QD,ORAL,274.0,,TREATMENT,2024-12-20,2024-12-20,274,274
BI-1245.110,EC,BI-1245.110-ARG_SITE01-0017,275,PLACEBO,PERFORMED,Y,Y,,,,PLACEBO,mg,TABLET,QD,ORAL,275.0,,TREATMENT,2024-12-21,2024-12-21,275,275
BI-1245.110,EC,BI-1245.110-ARG_SITE01-0017,276,PLACEBO,SCHEDULED,Y,,NOT DONE,SUBJECT NON-COMPLIANCE,,,mg,TABLET,QD,ORAL,276.0,,TREATMENT,2024-12-22,2024-12-22,276,276
BI-1245.110,EC,BI-1245.110-ARG_SITE01-0017,277,PLACEBO,SCHEDULED,Y,,NOT DONE,SUBJECT NON-COMPLIANCE,,,mg,TABLET,QD,ORAL,277.0,,TREATMENT,2024-12-23,2024-12-23,277,277
BI-1245.110,EC,BI-1245.110-ARG_SITE01-0017,278,PLACEBO,PERFORMED,Y,Y,,,,PLACEBO,mg,TABLET,QD,ORAL,278.0,,TREATMENT,2024-12-24,2024-12-24,278,278
BI-1245.110,EC,BI-1245.110-ARG_SITE01-0017,279,PLACEBO,PERFORMED,Y,Y,,,,PLACEBO,mg,TABLET,QD,ORAL,279.0,,TREATMENT,2024-12-25,2024-12-25,279,279
BI-1245.110,EC,BI-1245.110-ARG_SITE01-0017,280,PLACEBO,PERFORMED,Y,Y,,,,PLACEBO,mg,TABLET,QD,ORAL,280.0,,TREATMENT,2024-12-26,2024-12-26,280,280
BI-1245.110,EC,BI-1245.110-ARG_SITE01-0017,281,PLACEBO,PERFORMED,Y,Y,,,,PLACEBO,mg,TABLET,QD,ORAL,281.0,,TREATMENT,2024-12-27,2024-12-27,281,281
BI-1245.110,EC,BI-1245.110-ARG_SITE01-0017,282,PLACEBO,PERFORMED,Y,Y,,,,PLACEBO,mg,TABLET,QD,ORAL,282.0,,TREATMENT,2024-12-28,2024-12-28,282,282
BI-1245.110,EC,BI-1245.110-ARG_SITE01-0017,283,PLACEBO,PERFORMED,Y,Y,,,,PLACEBO,mg,TABLET,QD,ORAL,283.0,,TREATMENT,2024-12-29,2024-12-29,283,283
BI-1245.110,EC,BI-1245.110-ARG_SITE01-0017,284,PLACEBO,SCHEDULED,Y,,NOT DONE,SUBJECT NON-COMPLIANCE,,,mg,TABLET,QD,ORAL,284.0,,TREATMENT,2024-12-30,2024-12-30,284,284
BI-1245.110,EC,BI-1245.110-ARG_SITE01-0017,285,PLACEBO,SCHEDULED,Y,,NOT DONE,SUBJECT NON-COMPLIANCE,,,mg,TABLET,QD,ORAL,285.0,,TREATMENT,2024-12-31,2024-12-31,285,285
BI-1245.110,EC,BI-1245.110-ARG_SITE01-0017,286,PLACEBO,PERFORMED,Y,Y,,,,PLACEBO,mg,TABLET,QD,ORAL,286.0,,TREATMENT,2025-01-01,2025-01-01,286,286
BI-1245.110,EC,BI-1245.110-ARG_SITE01-0017,287,PLACEBO,PERFORMED,Y,Y,,,,PLACEBO,mg,TABLET,QD,ORAL,287.0,,TREATMENT,2025-01-02,2025-01-02,287,287
BI-1245.110,EC,BI-1245.110-ARG_SITE01-0017,288,PLACEBO,PERFORMED,Y,Y,,,,PLACEBO,mg,TABLET,QD,ORAL,288.0,,TREATMENT,2025-01-03,2025-01-03,288,288
BI-1245.110,EC,BI-1245.110-ARG_SITE01-0017,289,PLACEBO,PERFORMED,Y,Y,,,,PLACEBO,mg,TABLET,QD,ORAL,289.0,,TREATMENT,2025-01-04,2025-01-04,289,289
BI-1245.110,EC,BI-1245.110-ARG_SITE01-0017,290,PLACEBO,PERFORMED,Y,Y,,,,PLACEBO,mg,TABLET,QD,ORAL,290.0,,TREATMENT,2025-01-05,2025-01-05,290,290
BI-1245.110,EC,BI-1245.110-ARG_SITE01-0017,291,PLACEBO,PERFORMED,Y,Y,,,,PLACEBO,mg,TABLET,QD,ORAL,291.0,,TREATMENT,2025-01-06,2025-01-06,291,291
BI-1245.110,EC,BI-1245.110-ARG_SITE01-0017,292,PLACEBO,PERFORMED,Y,Y,,,,PLACEBO,mg,TABLET,QD,ORAL,292.0,,TREATMENT,2025-01-07,2025-01-07,292,292
BI-1245.110,EC,BI-1245.110-ARG_SITE01-0017,293,PLACEBO,PERFORMED,Y,Y,,,,PLACEBO,mg,TABLET,QD,ORAL,293.0,,TREATMENT,2025-01-08,2025-01-08,293,293
BI-1245.110,EC,BI-1245.110-ARG_SITE01-0017,294,PLACEBO,PERFORMED,Y,Y,,,,PLACEBO,mg,TABLET,QD,ORAL,294.0,,TREATMENT,2025-01-09,2025-01-09,294,294
BI-1245.110,EC,BI-1245.110-ARG_SITE01-0017,295,PLACEBO,PERFORMED,Y,Y,,,,PLACEBO,mg,TABLET,QD,ORAL,295.0,,TREATMENT,2025-01-10,2025-01-10,295,295
BI-1245.110,EC,BI-1245.110-ARG_SITE01-0017,296,PLACEBO,PERFORMED,Y,Y,,,,PLACEBO,mg,TABLET,QD,ORAL,296.0,,TREATMENT,2025-01-11,2025-01-11,296,296
BI-1245.110,EC,BI-1245.110-ARG_SITE01-0017,297,PLACEBO,PERFORMED,Y,Y,,,,PLACEBO,mg,TABLET,QD,ORAL,297.0,,TREATMENT,2025-01-12,2025-01-12,297,297
BI-1245.110,EC,BI-1245.110-ARG_SITE01-0017,298,PLACEBO,PERFORMED,Y,Y,,,,PLACEBO,mg,TABLET,QD,ORAL,298.0,,TREATMENT,2025-01-13,2025-01-13,298,298
BI-1245.110,EC,BI-1245.110-ARG_SITE01-0017,299,PLACEBO,PERFORMED,Y,Y,,,,PLACEBO,mg,TABLET,QD,ORAL,299.0,,TREATMENT,2025-01-14,2025-01-14,299,299
BI-1245.110,EC,BI-1245.110-ARG_SITE01-0017,300,PLACEBO,PERFORMED,Y,Y,,,,PLACEBO,mg,TABLET,QD,ORAL,300.0,,TREATMENT,2025-01-15,2025-01-15,300,300
BI-1245.110,EC,BI-1245.110-ARG_SITE01-0017,301,PLACEBO,PERFORMED,Y,Y,,,,PLACEBO,mg,TABLET,QD,ORAL,301.0,,TREATMENT,2025-01-16,2025-01-16,301,301
BI-1245.110,EC,BI-1245.110-ARG_SITE01-0017,302,PLACEBO,PERFORMED,Y,Y,,,,PLACEBO,mg,TABLET,QD,ORAL,302.0,,TREATMENT,2025-01-17,2025-01-17,302,302
BI-1245.110,EC,BI-1245.110-ARG_SITE01-0017,303,PLACEBO,PERFORMED,Y,Y,,,,PLACEBO,mg,TABLET,QD,ORAL,303.0,,TREATMENT,2025-01-18,2025-01-18,303,303
BI-1245.110,EC,BI-1245.110-ARG_SITE01-0017,304,PLACEBO,PERFORMED,Y,Y,,,,PLACEBO,mg,TABLET,QD,ORAL,304.0,,TREATMENT,2025-01-19,2025-01-19,304,304
BI-1245.110,EC,BI-1245.110-ARG_SITE01-0017,305,PLACEBO,PERFORMED,Y,Y,,,,PLACEBO,mg,TABLET,QD,ORAL,305.0,,TREATMENT,2025-01-20,2025-01-20,305,305
BI-1245.110,EC,BI-1245.110-ARG_SITE01-0017,306,PLACEBO,PERFORMED,Y,Y,,,,PLACEBO,mg,TABLET,QD,ORAL,306.0,,TREATMENT,2025-01-21,2025-01-21,306,306
BI-1245.110,EC,BI-1245.110-ARG_SITE01-0017,307,PLACEBO,PERFORMED,Y,Y,,,,PLACEBO,mg,TABLET,QD,ORAL,307.0,,TREATMENT,2025-01-22,2025-01-22,307,307
BI-1245.110,EC,BI-1245.110-ARG_SITE01-0017,308,PLACEBO,SCHEDULED,Y,,NOT DONE,SUBJECT NON-COMPLIANCE,,,mg,TABLET,QD,ORAL,308.0,,TREATMENT,2025-01-23,2025-01-23,308,308
BI-1245.110,EC,BI-1245.110-ARG_SITE01-0017,309,PLACEBO,PERFORMED,Y,Y,,,,PLACEBO,mg,TABLET,QD,ORAL,309.0,,TREATMENT,2025-01-24,2025-01-24,309,309
BI-1245.110,EC,BI-1245.110-ARG_SITE01-0017,310,PLACEBO,PERFORMED,Y,Y,,,,PLACEBO,mg,TABLET,QD,ORAL,310.0,,TREATMENT,2025-01-25,2025-01-25,310,310
BI-1245.110,EC,BI-1245.110-ARG_SITE01-0017,311,PLACEBO,PERFORMED,Y,Y,,,,PLACEBO,mg,TABLET,QD,ORAL,311.0,,TREATMENT,2025-01-26,2025-01-26,311,311
BI-1245.110,EC,BI-1245.110-ARG_SITE01-0017,312,PLACEBO,PERFORMED,Y,Y,,,,PLACEBO,mg,TABLET,QD,ORAL,312.0,,TREATMENT,2025-01-27,2025-01-27,312,312
BI-1245.110,EC,BI-1245.110-ARG_SITE01-0017,313,PLACEBO,PERFORMED,Y,Y,,,,PLACEBO,mg,TABLET,QD,ORAL,313.0,,TREATMENT,2025-01-28,2025-01-28,313,313
BI-1245.110,EC,BI-1245.110-ARG_SITE01-0017,314,PLACEBO,PERFORMED,Y,Y,,,,PLACEBO,mg,TABLET,QD,ORAL,314.0,,TREATMENT,2025-01-29,2025-01-29,314,314
BI-1245.110,EC,BI-1245.110-ARG_SITE01-0017,315,PLACEBO,PERFORMED,Y,Y,,,,PLACEBO,mg,TABLET,QD,ORAL,315.0,,TREATMENT,2025-01-30,2025-01-30,315,315
BI-1245.110,EC,BI-1245.110-ARG_SITE01-0017,316,PLACEBO,PERFORMED,Y,Y,,,,PLACEBO,mg,TABLET,QD,ORAL,316.0,,TREATMENT,2025-01-31,2025-01-31,316,316
BI-1245.110,EC,BI-1245.110-ARG_SITE01-0017,317,PLACEBO,PERFORMED,Y,Y,,,,PLACEBO,mg,TABLET,QD,ORAL,317.0,,TREATMENT,2025-02-01,2025-02-01,317,317
BI-1245.110,EC,BI-1245.110-ARG_SITE01-0017,318,PLACEBO,PERFORMED,Y,Y,,,,PLACEBO,mg,TABLET,QD,ORAL,318.0,,TREATMENT,2025-02-02,2025-02-02,318,318
BI-1245.110,EC,BI-1245.110-ARG_SITE01-0017,319,PLACEBO,PERFORMED,Y,Y,,,,PLACEBO,mg,TABLET,QD,ORAL,319.0,,TREATMENT,2025-02-03,2025-02-03,319,319
BI-1245.110,EC,BI-1245.110-ARG_SITE01-0017,320,PLACEBO,PERFORMED,Y,Y,,,,PLACEBO,mg,TABLET,QD,ORAL,320.0,,TREATMENT,2025-02-04,2025-02-04,320,320
BI-1245.110,EC,BI-1245.110-ARG_SITE01-0017,321,PLACEBO,PERFORMED,Y,Y,,,,PLACEBO,mg,TABLET,QD,ORAL,321.0,,TREATMENT,2025-02-05,2025-02-05,321,321
BI-1245.110,EC,BI-1245.110-ARG_SITE01-0017,322,PLACEBO,PERFORMED,Y,Y,,,,PLACEBO,mg,TABLET,QD,ORAL,322.0,,TREATMENT,2025-02-06,2025-02-06,322,322
BI-1245.110,EC,BI-1245.110-ARG_SITE01-0017,323,PLACEBO,PERFORMED,Y,Y,,,,PLACEBO,mg,TABLET,QD,ORAL,323.0,,TREATMENT,2025-02-07,2025-02-07,323,323
BI-1245.110,EC,BI-1245.110-ARG_SITE01-0017,324,PLACEBO,PERFORMED,Y,Y,,,,PLACEBO,mg,TABLET,QD,ORAL,324.0,,TREATMENT,2025-02-08,2025-02-08,324,324
BI-1245.110,EC,BI-1245.110-ARG_SITE01-0017,325,PLACEBO,PERFORMED,Y,Y,,,,PLACEBO,mg,TABLET,QD,ORAL,325.0,,TREATMENT,2025-02-09,2025-02-09,325,325
BI-1245.110,EC,BI-1245.110-ARG_SITE01-0017,326,PLACEBO,PERFORMED,Y,Y,,,,PLACEBO,mg,TABLET,QD,ORAL,326.0,,TREATMENT,2025-02-10,2025-02-10,326,326
BI-1245.110,EC,BI-1245.110-ARG_SITE01-0017,327,PLACEBO,PERFORMED,Y,Y,,,,PLACEBO,mg,TABLET,QD,ORAL,327.0,,TREATMENT,2025-02-11,2025-02-11,327,327
BI-1245.110,EC,BI-1245.110-ARG_SITE01-0017,328,PLACEBO,PERFORMED,Y,Y,,,,PLACEBO,mg,TABLET,QD,ORAL,328.0,,TREATMENT,2025-02-12,2025-02-12,328,328
BI-1245.110,EC,BI-1245.110-ARG_SITE01-0017,329,PLACEBO,PERFORMED,Y,Y,,,,PLACEBO,mg,TABLET,QD,ORAL,329.0,,TREATMENT,2025-02-13,2025-02-13,329,329
BI-1245.110,EC,BI-1245.110-ARG_SITE01-0017,330,PLACEBO,PERFORMED,Y,Y,,,,PLACEBO,mg,TABLET,QD,ORAL,330.0,,TREATMENT,2025-02-14,2025-02-14,330,330
BI-1245.110,EC,BI-1245.110-ARG_SITE01-0017,331,PLACEBO,SCHEDULED,Y,,NOT DONE,SUBJECT NON-COMPLIANCE,,,mg,TABLET,QD,ORAL,331.0,,TREATMENT,2025-02-15,2025-02-15,331,331
BI-1245.110,EC,BI-1245.110-ARG_SITE01-0017,332,PLACEBO,PERFORMED,Y,Y,,,,PLACEBO,mg,TABLET,QD,ORAL,332.0,,TREATMENT,2025-02-16,2025-02-16,332,332
BI-1245.110,EC,BI-1245.110-ARG_SITE01-0017,333,PLACEBO,PERFORMED,Y,Y,,,,PLACEBO,mg,TABLET,QD,ORAL,333.0,,TREATMENT,2025-02-17,2025-02-17,333,333
BI-1245.110,EC,BI-1245.110-ARG_SITE01-0017,334,PLACEBO,PERFORMED,Y,Y,,,,PLACEBO,mg,TABLET,QD,ORAL,334.0,,TREATMENT,2025-02-18,2025-02-18,334,334
BI-1245.110,EC,BI-1245.110-ARG_SITE01-0017,335,PLACEBO,PERFORMED,Y,Y,,,,PLACEBO,mg,TABLET,QD,ORAL,335.0,,TREATMENT,2025-02-19,2025-02-19,335,335
BI-1245.110,EC,BI-1245.110-ARG_SITE01-0017,336,PLACEBO,PERFORMED,Y,Y,,,,PLACEBO,mg,TABLET,QD,ORAL,336.0,,TREATMENT,2025-02-20,2025-02-20,336,336
BI-1245.110,EC,BI-1245.110-ARG_SITE01-0017,337,PLACEBO,PERFORMED,Y,Y,,,,PLACEBO,mg,TABLET,QD,ORAL,337.0,,TREATMENT,2025-02-21,2025-02-21,337,337
BI-1245.110,EC,BI-1245.110-ARG_SITE01-0017,338,PLACEBO,PERFORMED,Y,Y,,,,PLACEBO,mg,TABLET,QD,ORAL,338.0,,TREATMENT,2025-02-22,2025-02-22,338,338
BI-1245.110,EC,BI-1245.110-ARG_SITE01-0017,339,PLACEBO,PERFORMED,Y,Y,,,,PLACEBO,mg,TABLET,QD,ORAL,339.0,,TREATMENT,2025-02-23,2025-02-23,339,339
BI-1245.110,EC,BI-1245.110-ARG_SITE01-0017,340,PLACEBO,PERFORMED,Y,Y,,,,PLACEBO,mg,TABLET,QD,ORAL,340.0,,TREATMENT,2025-02-24,2025-02-24,340,340
BI-1245.110,EC,BI-1245.110-ARG_SITE01-0017,341,PLACEBO,PERFORMED,Y,Y,,,,PLACEBO,mg,TABLET,QD,ORAL,341.0,,TREATMENT,2025-02-25,2025-02-25,341,341
BI-1245.110,EC,BI-1245.110-ARG_SITE01-0017,342,PLACEBO,PERFORMED,Y,Y,,,,PLACEBO,mg,TABLET,QD,ORAL,342.0,,TREATMENT,2025-02-26,2025-02-26,342,342
BI-1245.110,EC,BI-1245.110-ARG_SITE01-0017,343,PLACEBO,PERFORMED,Y,Y,,,,PLACEBO,mg,TABLET,QD,ORAL,343.0,,TREATMENT,2025-02-27,2025-02-27,343,343
BI-1245.110,EC,BI-1245.110-ARG_SITE01-0017,344,PLACEBO,PERFORMED,Y,Y,,,,PLACEBO,mg,TABLET,QD,ORAL,344.0,,TREATMENT,2025-02-28,2025-02-28,344,344
BI-1245.110,EC,BI-1245.110-ARG_SITE01-0017,345,PLACEBO,PERFORMED,Y,Y,,,,PLACEBO,mg,TABLET,QD,ORAL,345.0,,TREATMENT,2025-03-01,2025-03-01,345,345
BI-1245.110,EC,BI-1245.110-ARG_SITE01-0017,346,PLACEBO,PERFORMED,Y,Y,,,,PLACEBO,mg,TABLET,QD,ORAL,346.0,,TREATMENT,2025-03-02,2025-03-02,346,346
BI-1245.110,EC,BI-1245.110-ARG_SITE01-0017,347,PLACEBO,PERFORMED,Y,Y,,,,PLACEBO,mg,TABLET,QD,ORAL,347.0,,TREATMENT,2025-03-03,2025-03-03,347,347
BI-1245.110,EC,BI-1245.110-ARG_SITE01-0017,348,PLACEBO,PERFORMED,Y,Y,,,,PLACEBO,mg,TABLET,QD,ORAL,348.0,,TREATMENT,2025-03-04,2025-03-04,348,348
BI-1245.110,EC,BI-1245.110-ARG_SITE01-0017,349,PLACEBO,PERFORMED,Y,Y,,,,PLACEBO,mg,TABLET,QD,ORAL,349.0,,TREATMENT,2025-03-05,2025-03-05,349,349
BI-1245.110,EC,BI-1245.110-ARG_SITE01-0017,350,PLACEBO,PERFORMED,Y,Y,,,,PLACEBO,mg,TABLET,QD,ORAL,350.0,,TREATMENT,2025-03-06,2025-03-06,350,350
BI-1245.110,EC,BI-1245.110-ARG_SITE01-0017,351,PLACEBO,PERFORMED,Y,Y,,,,PLACEBO,mg,TABLET,QD,ORAL,351.0,,TREATMENT,2025-03-07,2025-03-07,351,351
BI-1245.110,EC,BI-1245.110-ARG_SITE01-0017,352,PLACEBO,PERFORMED,Y,Y,,,,PLACEBO,mg,TABLET,QD,ORAL,352.0,,TREATMENT,2025-03-08,2025-03-08,352,352
BI-1245.110,EC,BI-1245.110-ARG_SITE01-0017,353,PLACEBO,PERFORMED,Y,Y,,,,PLACEBO,mg,TABLET,QD,ORAL,353.0,,TREATMENT,2025-03-09,2025-03-09,353,353
BI-1245.110,EC,BI-1245.110-ARG_SITE01-0017,354,PLACEBO,PERFORMED,Y,Y,,,,PLACEBO,mg,TABLET,QD,ORAL,354.0,,TREATMENT,2025-03-10,2025-03-10,354,354
BI-1245.110,EC,BI-1245.110-ARG_SITE01-0017,355,PLACEBO,PERFORMED,Y,Y,,,,PLACEBO,mg,TABLET,QD,ORAL,355.0,,TREATMENT,2025-03-11,2025-03-11,355,355
BI-1245.110,EC,BI-1245.110-ARG_SITE01-0017,356,PLACEBO,PERFORMED,Y,Y,,,,PLACEBO,mg,TABLET,QD,ORAL,356.0,,TREATMENT,2025-03-12,2025-03-12,356,356
BI-1245.110,EC,BI-1245.110-ARG_SITE01-0017,357,PLACEBO,PERFORMED,Y,Y,,,,PLACEBO,mg,TABLET,QD,ORAL,357.0,,TREATMENT,2025-03-13,2025-03-13,357,357
BI-1245.110,EC,BI-1245.110-ARG_SITE01-0017,358,PLACEBO,PERFORMED,Y,Y,,,,PLACEBO,mg,TABLET,QD,ORAL,358.0,,TREATMENT,2025-03-14,2025-03-14,358,358
BI-1245.110,EC,BI-1245.110-ARG_SITE01-0017,359,PLACEBO,PERFORMED,Y,Y,,,,PLACEBO,mg,TABLET,QD,ORAL,359.0,,TREATMENT,2025-03-15,2025-03-15,359,359
BI-1245.110,EC,BI-1245.110-ARG_SITE01-0017,360,PLACEBO,PERFORMED,Y,Y,,,,PLACEBO,mg,TABLET,QD,ORAL,360.0,,TREATMENT,2025-03-16,2025-03-16,360,360
BI-1245.110,EC,BI-1245.110-ARG_SITE01-0017,361,PLACEBO,PERFORMED,Y,Y,,,,PLACEBO,mg,TABLET,QD,ORAL,361.0,,TREATMENT,2025-03-17,2025-03-17,361,361
BI-1245.110,EC,BI-1245.110-ARG_SITE01-0017,362,PLACEBO,PERFORMED,Y,Y,,,,PLACEBO,mg,TABLET,QD,ORAL,6.0,MONTH 12,TREATMENT,2025-03-18,2025-03-18,362,362
BI-1245.110,EC,BI-1245.110-ARG_SITE01-0017,363,PLACEBO,PERFORMED,Y,Y,,,,PLACEBO,mg,TABLET,QD,ORAL,6.0,MONTH 12,TREATMENT,2025-03-19,2025-03-19,363,363
BI-1245.110,EC,BI-1245.110-ARG_SITE01-0017,364,PLACEBO,PERFORMED,Y,Y,,,,PLACEBO,mg,TABLET,QD,ORAL,6.0,MONTH 12,TREATMENT,2025-03-20,2025-03-20,364,364
BI-1245.110,EC,BI-1245.110-ARG_SITE01-0017,365,PLACEBO,PERFORMED,Y,Y,,,,PLACEBO,mg,TABLET,QD,ORAL,6.0,MONTH 12,TREATMENT,2025-03-21,2025-03-21,365,365
BI-1245.110,EC,BI-1245.110-ARG_SITE01-0017,366,PLACEBO,PERFORMED,Y,Y,,,,PLACEBO,mg,TABLET,QD,ORAL,6.0,MONTH 12,TREATMENT,2025-03-22,2025-03-22,366,366
BI-1245.110,EC,BI-1245.110-ARG_SITE01-0017,367,PLACEBO,PERFORMED,Y,Y,,,,PLACEBO,mg,TABLET,QD,ORAL,6.0,MONTH 12,TREATMENT,2025-03-23,2025-03-23,367,367
BI-1245.110,EC,BI-1245.110-ARG_SITE01-0017,368,PLACEBO,PERFORMED,Y,Y,,,,PLACEBO,mg,TABLET,QD,ORAL,6.0,MONTH 12,TREATMENT,2025-03-24,2025-03-24,368,368
BI-1245.110,EC,BI-1245.110-ARG_SITE01-0017,369,PLACEBO,PERFORMED,Y,Y,,,,PLACEBO,mg,TABLET,QD,ORAL,369.0,,TREATMENT,2025-03-25,2025-03-25,369,369
BI-1245.110,EC,BI-1245.110-ARG_SITE01-0017,370,PLACEBO,PERFORMED,Y,Y,,,,PLACEBO,mg,TABLET,QD,ORAL,370.0,,TREATMENT,2025-03-26,2025-03-26,370,370
BI-1245.110,EC,BI-1245.110-ARG_SITE01-0017,371,PLACEBO,PERFORMED,Y,Y,,,,PLACEBO,mg,TABLET,QD,ORAL,371.0,,TREATMENT,2025-03-27,2025-03-27,371,371
BI-1245.110,EC,BI-1245.110-ARG_SITE01-0017,372,PLACEBO,PERFORMED,Y,Y,,,,PLACEBO,mg,TABLET,QD,ORAL,372.0,,TREATMENT,2025-03-28,2025-03-28,372,372
BI-1245.110,EC,BI-1245.110-ARG_SITE01-0017,373,PLACEBO,PERFORMED,Y,Y,,,,PLACEBO,mg,TABLET,QD,ORAL,373.0,,TREATMENT,2025-03-29,2025-03-29,373,373
BI-1245.110,EC,BI-1245.110-ARG_SITE01-0017,374,PLACEBO,PERFORMED,Y,Y,,,,PLACEBO,mg,TABLET,QD,ORAL,374.0,,TREATMENT,2025-03-30,2025-03-30,374,374
BI-1245.110,EC,BI-1245.110-ARG_SITE01-0017,375,PLACEBO,PERFORMED,Y,Y,,,,PLACEBO,mg,TABLET,QD,ORAL,375.0,,TREATMENT,2025-03-31,2025-03-31,375,375
BI-1245.110,EC,BI-1245.110-ARG_SITE01-0017,376,PLACEBO,PERFORMED,Y,Y,,,,PLACEBO,mg,TABLET,QD,ORAL,376.0,,TREATMENT,2025-04-01,2025-04-01,376,376
BI-1245.110,EC,BI-1245.110-ARG_SITE01-0017,377,PLACEBO,PERFORMED,Y,Y,,,,PLACEBO,mg,TABLET,QD,ORAL,377.0,,TREATMENT,2025-04-02,2025-04-02,377,377
BI-1245.110,EC,BI-1245.110-ARG_SITE01-0017,378,PLACEBO,PERFORMED,Y,Y,,,,PLACEBO,mg,TABLET,QD,ORAL,378.0,,TREATMENT,2025-04-03,2025-04-03,378,378
BI-1245.110,EC,BI-1245.110-ARG_SITE01-0017,379,PLACEBO,PERFORMED,Y,Y,,,,PLACEBO,mg,TABLET,QD,ORAL,379.0,,TREATMENT,2025-04-04,2025-04-04,379,379
BI-1245.110,EC,BI-1245.110-ARG_SITE01-0017,380,PLACEBO,PERFORMED,Y,Y,,,,PLACEBO,mg,TABLET,QD,ORAL,380.0,,TREATMENT,2025-04-05,2025-04-05,380,380
BI-1245.110,EC,BI-1245.110-ARG_SITE01-0017,381,PLACEBO,PERFORMED,Y,Y,,,,PLACEBO,mg,TABLET,QD,ORAL,381.0,,TREATMENT,2025-04-06,2025-04-06,381,381
BI-1245.110,EC,BI-1245.110-ARG_SITE01-0017,382,PLACEBO,PERFORMED,Y,Y,,,,PLACEBO,mg,TABLET,QD,ORAL,382.0,,TREATMENT,2025-04-07,2025-04-07,382,382
BI-1245.110,EC,BI-1245.110-ARG_SITE01-0017,383,PLACEBO,PERFORMED,Y,Y,,,,PLACEBO,mg,TABLET,QD,ORAL,383.0,,TREATMENT,2025-04-08,2025-04-08,383,383
BI-1245.110,EC,BI-1245.110-ARG_SITE01-0017,384,PLACEBO,PERFORMED,Y,Y,,,,PLACEBO,mg,TABLET,QD,ORAL,384.0,,TREATMENT,2025-04-09,2025-04-09,384,384
BI-1245.110,EC,BI-1245.110-ARG_SITE01-0017,385,PLACEBO,PERFORMED,Y,Y,,,,PLACEBO,mg,TABLET,QD,ORAL,385.0,,TREATMENT,2025-04-10,2025-04-10,385,385
BI-1245.110,EC,BI-1245.110-ARG_SITE01-0017,386,PLACEBO,PERFORMED,Y,Y,,,,PLACEBO,mg,TABLET,QD,ORAL,386.0,,TREATMENT,2025-04-11,2025-04-11,386,386
BI-1245.110,EC,BI-1245.110-ARG_SITE01-0017,387,PLACEBO,PERFORMED,Y,Y,,,,PLACEBO,mg,TABLET,QD,ORAL,387.0,,TREATMENT,2025-04-12,2025-04-12,387,387
BI-1245.110,EC,BI-1245.110-ARG_SITE01-0017,388,PLACEBO,PERFORMED,Y,Y,,,,PLACEBO,mg,TABLET,QD,ORAL,388.0,,TREATMENT,2025-04-13,2025-04-13,388,388
BI-1245.110,EC,BI-1245.110-ARG_SITE01-0017,389,PLACEBO,PERFORMED,Y,Y,,,,PLACEBO,mg,TABLET,QD,ORAL,389.0,,TREATMENT,2025-04-14,2025-04-14,389,389
BI-1245.110,EC,BI-1245.110-ARG_SITE01-0017,390,PLACEBO,PERFORMED,Y,Y,,,,PLACEBO,mg,TABLET,QD,ORAL,390.0,,TREATMENT,2025-04-15,2025-04-15,390,390
BI-1245.110,EC,BI-1245.110-ARG_SITE01-0017,391,PLACEBO,PERFORMED,Y,Y,,,,PLACEBO,mg,TABLET,QD,ORAL,391.0,,TREATMENT,2025-04-16,2025-04-16,391,391
BI-1245.110,EC,BI-1245.110-ARG_SITE01-0017,392,PLACEBO,PERFORMED,Y,Y,,,,PLACEBO,mg,TABLET,QD,ORAL,392.0,,TREATMENT,2025-04-17,2025-04-17,392,392
BI-1245.110,EC,BI-1245.110-ARG_SITE01-0017,393,PLACEBO,PERFORMED,Y,Y,,,,PLACEBO,mg,TABLET,QD,ORAL,393.0,,TREATMENT,2025-04-18,2025-04-18,393,393
BI-1245.110,EC,BI-1245.110-ARG_SITE01-0017,394,PLACEBO,PERFORMED,Y,Y,,,,PLACEBO,mg,TABLET,QD,ORAL,394.0,,TREATMENT,2025-04-19,2025-04-19,394,394
BI-1245.110,EC,BI-1245.110-ARG_SITE01-0017,395,PLACEBO,PERFORMED,Y,Y,,,,PLACEBO,mg,TABLET,QD,ORAL,395.0,,TREATMENT,2025-04-20,2025-04-20,395,395
BI-1245.110,EC,BI-1245.110-ARG_SITE01-0017,396,PLACEBO,PERFORMED,Y,Y,,,,PLACEBO,mg,TABLET,QD,ORAL,396.0,,TREATMENT,2025-04-21,2025-04-21,396,396
BI-1245.110,EC,BI-1245.110-ARG_SITE01-0017,397,PLACEBO,PERFORMED,Y,Y,,,,PLACEBO,mg,TABLET,QD,ORAL,397.0,,TREATMENT,2025-04-22,2025-04-22,397,397
BI-1245.110,EC,BI-1245.110-ARG_SITE01-0017,398,PLACEBO,PERFORMED,Y,Y,,,,PLACEBO,mg,TABLET,QD,ORAL,398.0,,TREATMENT,2025-04-23,2025-04-23,398,398
BI-1245.110,EC,BI-1245.110-ARG_SITE01-0017,399,PLACEBO,PERFORMED,Y,Y,,,,PLACEBO,mg,TABLET,QD,ORAL,399.0,,TREATMENT,2025-04-24,2025-04-24,399,399
BI-1245.110,EC,BI-1245.110-ARG_SITE01-0017,400,PLACEBO,PERFORMED,Y,Y,,,,PLACEBO,mg,TABLET,QD,ORAL,400.0,,TREATMENT,2025-04-25,2025-04-25,400,400
BI-1245.110,EC,BI-1245.110-ARG_SITE01-0017,401,PLACEBO,PERFORMED,Y,Y,,,,PLACEBO,mg,TABLET,QD,ORAL,401.0,,TREATMENT,2025-04-26,2025-04-26,401,401
BI-1245.110,EC,BI-1245.110-ARG_SITE01-0017,402,PLACEBO,PERFORMED,Y,Y,,,,PLACEBO,mg,TABLET,QD,ORAL,402.0,,TREATMENT,2025-04-27,2025-04-27,402,402
BI-1245.110,EC,BI-1245.110-ARG_SITE01-0017,403,PLACEBO,PERFORMED,Y,Y,,,,PLACEBO,mg,TABLET,QD,ORAL,403.0,,TREATMENT,2025-04-28,2025-04-28,403,403
BI-1245.110,EC,BI-1245.110-ARG_SITE01-0017,404,PLACEBO,PERFORMED,Y,Y,,,,PLACEBO,mg,TABLET,QD,ORAL,404.0,,TREATMENT,2025-04-29,2025-04-29,404,404
BI-1245.110,EC,BI-1245.110-ARG_SITE01-0017,405,PLACEBO,PERFORMED,Y,Y,,,,PLACEBO,mg,TABLET,QD,ORAL,405.0,,TREATMENT,2025-04-30,2025-04-30,405,405
BI-1245.110,EC,BI-1245.110-ARG_SITE01-0017,406,PLACEBO,PERFORMED,Y,Y,,,,PLACEBO,mg,TABLET,QD,ORAL,406.0,,TREATMENT,2025-05-01,2025-05-01,406,406
BI-1245.110,EC,BI-1245.110-ARG_SITE01-0017,407,PLACEBO,PERFORMED,Y,Y,,,,PLACEBO,mg,TABLET,QD,ORAL,407.0,,TREATMENT,2025-05-02,2025-05-02,407,407
BI-1245.110,EC,BI-1245.110-ARG_SITE01-0017,408,PLACEBO,PERFORMED,Y,Y,,,,PLACEBO,mg,TABLET,QD,ORAL,408.0,,TREATMENT,2025-05-03,2025-05-03,408,408
BI-1245.110,EC,BI-1245.110-ARG_SITE01-0017,409,PLACEBO,PERFORMED,Y,Y,,,,PLACEBO,mg,TABLET,QD,ORAL,409.0,,TREATMENT,2025-05-04,2025-05-04,409,409
BI-1245.110,EC,BI-1245.110-ARG_SITE01-0017,410,PLACEBO,PERFORMED,Y,Y,,,,PLACEBO,mg,TABLET,QD,ORAL,410.0,,TREATMENT,2025-05-05,2025-05-05,410,410
BI-1245.110,EC,BI-1245.110-ARG_SITE01-0017,411,PLACEBO,PERFORMED,Y,Y,,,,PLACEBO,mg,TABLET,QD,ORAL,411.0,,TREATMENT,2025-05-06,2025-05-06,411,411
BI-1245.110,EC,BI-1245.110-ARG_SITE01-0017,412,PLACEBO,PERFORMED,Y,Y,,,,PLACEBO,mg,TABLET,QD,ORAL,412.0,,TREATMENT,2025-05-07,2025-05-07,412,412
BI-1245.110,EC,BI-1245.110-ARG_SITE01-0017,413,PLACEBO,PERFORMED,Y,Y,,,,PLACEBO,mg,TABLET,QD,ORAL,413.0,,TREATMENT,2025-05-08,2025-05-08,413,413
BI-1245.110,EC,BI-1245.110-ARG_SITE01-0017,414,PLACEBO,PERFORMED,Y,Y,,,,PLACEBO,mg,TABLET,QD,ORAL,414.0,,TREATMENT,2025-05-09,2025-05-09,414,414
BI-1245.110,EC,BI-1245.110-ARG_SITE01-0017,415,PLACEBO,PERFORMED,Y,Y,,,,PLACEBO,mg,TABLET,QD,ORAL,415.0,,TREATMENT,2025-05-10,2025-05-10,415,415
BI-1245.110,EC,BI-1245.110-ARG_SITE01-0017,416,PLACEBO,PERFORMED,Y,Y,,,,PLACEBO,mg,TABLET,QD,ORAL,416.0,,TREATMENT,2025-05-11,2025-05-11,416,416
BI-1245.110,EC,BI-1245.110-ARG_SITE01-0017,417,PLACEBO,PERFORMED,Y,Y,,,,PLACEBO,mg,TABLET,QD,ORAL,417.0,,TREATMENT,2025-05-12,2025-05-12,417,417
BI-1245.110,EC,BI-1245.110-ARG_SITE01-0017,418,PLACEBO,PERFORMED,Y,Y,,,,PLACEBO,mg,TABLET,QD,ORAL,418.0,,TREATMENT,2025-05-13,2025-05-13,418,418
BI-1245.110,EC,BI-1245.110-ARG_SITE01-0017,419,PLACEBO,PERFORMED,Y,Y,,,,PLACEBO,mg,TABLET,QD,ORAL,419.0,,TREATMENT,2025-05-14,2025-05-14,419,419
BI-1245.110,EC,BI-1245.110-ARG_SITE01-0017,420,PLACEBO,PERFORMED,Y,Y,,,,PLACEBO,mg,TABLET,QD,ORAL,420.0,,TREATMENT,2025-05-15,2025-05-15,420,420
BI-1245.110,EC,BI-1245.110-ARG_SITE01-0017,421,PLACEBO,PERFORMED,Y,Y,,,,PLACEBO,mg,TABLET,QD,ORAL,421.0,,TREATMENT,2025-05-16,2025-05-16,421,421
BI-1245.110,EC,BI-1245.110-ARG_SITE01-0017,422,PLACEBO,PERFORMED,Y,Y,,,,PLACEBO,mg,TABLET,QD,ORAL,422.0,,TREATMENT,2025-05-17,2025-05-17,422,422
BI-1245.110,EC,BI-1245.110-ARG_SITE01-0017,423,PLACEBO,PERFORMED,Y,Y,,,,PLACEBO,mg,TABLET,QD,ORAL,423.0,,TREATMENT,2025-05-18,2025-05-18,423,423
BI-1245.110,EC,BI-1245.110-ARG_SITE01-0017,424,PLACEBO,PERFORMED,Y,Y,,,,PLACEBO,mg,TABLET,QD,ORAL,424.0,,TREATMENT,2025-05-19,2025-05-19,424,424
BI-1245.110,EC,BI-1245.110-ARG_SITE01-0017,425,PLACEBO,PERFORMED,Y,Y,,,,PLACEBO,mg,TABLET,QD,ORAL,425.0,,TREATMENT,2025-05-20,2025-05-20,425,425
BI-1245.110,EC,BI-1245.110-ARG_SITE01-0017,426,PLACEBO,PERFORMED,Y,Y,,,,PLACEBO,mg,TABLET,QD,ORAL,426.0,,TREATMENT,2025-05-21,2025-05-21,426,426
BI-1245.110,EC,BI-1245.110-ARG_SITE01-0017,427,PLACEBO,PERFORMED,Y,Y,,,,PLACEBO,mg,TABLET,QD,ORAL,427.0,,TREATMENT,2025-05-22,2025-05-22,427,427
BI-1245.110,EC,BI-1245.110-ARG_SITE01-0017,428,PLACEBO,PERFORMED,Y,Y,,,,PLACEBO,mg,TABLET,QD,ORAL,428.0,,TREATMENT,2025-05-23,2025-05-23,428,428
BI-1245.110,EC,BI-1245.110-ARG_SITE01-0017,429,PLACEBO,PERFORMED,Y,Y,,,,PLACEBO,mg,TABLET,QD,ORAL,429.0,,TREATMENT,2025-05-24,2025-05-24,429,429
BI-1245.110,EC,BI-1245.110-ARG_SITE01-0017,430,PLACEBO,PERFORMED,Y,Y,,,,PLACEBO,mg,TABLET,QD,ORAL,430.0,,TREATMENT,2025-05-25,2025-05-25,430,430
BI-1245.110,EC,BI-1245.110-ARG_SITE01-0017,431,PLACEBO,PERFORMED,Y,Y,,,,PLACEBO,mg,TABLET,QD,ORAL,431.0,,TREATMENT,2025-05-26,2025-05-26,431,431
BI-1245.110,EC,BI-1245.110-ARG_SITE01-0017,432,PLACEBO,PERFORMED,Y,Y,,,,PLACEBO,mg,TABLET,QD,ORAL,432.0,,TREATMENT,2025-05-27,2025-05-27,432,432
BI-1245.110,EC,BI-1245.110-ARG_SITE01-0017,433,PLACEBO,PERFORMED,Y,Y,,,,PLACEBO,mg,TABLET,QD,ORAL,433.0,,TREATMENT,2025-05-28,2025-05-28,433,433
BI-1245.110,EC,BI-1245.110-ARG_SITE01-0017,434,PLACEBO,PERFORMED,Y,Y,,,,PLACEBO,mg,TABLET,QD,ORAL,434.0,,TREATMENT,2025-05-29,2025-05-29,434,434
BI-1245.110,EC,BI-1245.110-ARG_SITE01-0017,435,PLACEBO,PERFORMED,Y,Y,,,,PLACEBO,mg,TABLET,QD,ORAL,435.0,,TREATMENT,2025-05-30,2025-05-30,435,435
BI-1245.110,EC,BI-1245.110-ARG_SITE01-0017,436,PLACEBO,PERFORMED,Y,Y,,,,PLACEBO,mg,TABLET,QD,ORAL,436.0,,TREATMENT,2025-05-31,2025-05-31,436,436
BI-1245.110,EC,BI-1245.110-ARG_SITE01-0017,437,PLACEBO,PERFORMED,Y,Y,,,,PLACEBO,mg,TABLET,QD,ORAL,437.0,,TREATMENT,2025-06-01,2025-06-01,437,437
BI-1245.110,EC,BI-1245.110-ARG_SITE01-0017,438,PLACEBO,PERFORMED,Y,Y,,,,PLACEBO,mg,TABLET,QD,ORAL,438.0,,TREATMENT,2025-06-02,2025-06-02,438,438
BI-1245.110,EC,BI-1245.110-ARG_SITE01-0017,439,PLACEBO,PERFORMED,Y,Y,,,,PLACEBO,mg,TABLET,QD,ORAL,439.0,,TREATMENT,2025-06-03,2025-06-03,439,439
BI-1245.110,EC,BI-1245.110-ARG_SITE01-0017,440,PLACEBO,PERFORMED,Y,Y,,,,PLACEBO,mg,TABLET,QD,ORAL,440.0,,TREATMENT,2025-06-04,2025-06-04,440,440
BI-1245.110,EC,BI-1245.110-ARG_SITE01-0017,441,PLACEBO,PERFORMED,Y,Y,,,,PLACEBO,mg,TABLET,QD,ORAL,441.0,,TREATMENT,2025-06-05,2025-06-05,441,441
BI-1245.110,EC,BI-1245.110-ARG_SITE01-0017,442,PLACEBO,PERFORMED,Y,Y,,,,PLACEBO,mg,TABLET,QD,ORAL,442.0,,TREATMENT,2025-06-06,2025-06-06,442,442
BI-1245.110,EC,BI-1245.110-ARG_SITE01-0017,443,PLACEBO,PERFORMED,Y,Y,,,,PLACEBO,mg,TABLET,QD,ORAL,443.0,,TREATMENT,2025-06-07,2025-06-07,443,443
BI-1245.110,EC,BI-1245.110-ARG_SITE01-0017,444,PLACEBO,PERFORMED,Y,Y,,,,PLACEBO,mg,TABLET,QD,ORAL,444.0,,TREATMENT,2025-06-08,2025-06-08,444,444
BI-1245.110,EC,BI-1245.110-ARG_SITE01-0017,445,PLACEBO,PERFORMED,Y,Y,,,,PLACEBO,mg,TABLET,QD,ORAL,445.0,,TREATMENT,2025-06-09,2025-06-09,445,445
BI-1245.110,EC,BI-1245.110-ARG_SITE01-0017,446,PLACEBO,PERFORMED,Y,Y,,,,PLACEBO,mg,TABLET,QD,ORAL,446.0,,TREATMENT,2025-06-10,2025-06-10,446,446
BI-1245.110,EC,BI-1245.110-ARG_SITE01-0017,447,PLACEBO,PERFORMED,Y,Y,,,,PLACEBO,mg,TABLET,QD,ORAL,447.0,,TREATMENT,2025-06-11,2025-06-11,447,447
BI-1245.110,EC,BI-1245.110-ARG_SITE01-0017,448,PLACEBO,PERFORMED,Y,Y,,,,PLACEBO,mg,TABLET,QD,ORAL,448.0,,TREATMENT,2025-06-12,2025-06-12,448,448
BI-1245.110,EC,BI-1245.110-ARG_SITE01-0017,449,PLACEBO,PERFORMED,Y,Y,,,,PLACEBO,mg,TABLET,QD,ORAL,449.0,,TREATMENT,2025-06-13,2025-06-13,449,449
BI-1245.110,EC,BI-1245.110-ARG_SITE01-0017,450,PLACEBO,PERFORMED,Y,Y,,,,PLACEBO,mg,TABLET,QD,ORAL,450.0,,TREATMENT,2025-06-14,2025-06-14,450,450
BI-1245.110,EC,BI-1245.110-ARG_SITE01-0017,451,PLACEBO,PERFORMED,Y,Y,,,,PLACEBO,mg,TABLET,QD,ORAL,451.0,,TREATMENT,2025-06-15,2025-06-15,451,451
BI-1245.110,EC,BI-1245.110-ARG_SITE01-0017,452,PLACEBO,PERFORMED,Y,Y,,,,PLACEBO,mg,TABLET,QD,ORAL,452.0,,TREATMENT,2025-06-16,2025-06-16,452,452
BI-1245.110,EC,BI-1245.110-ARG_SITE01-0017,453,PLACEBO,PERFORMED,Y,Y,,,,PLACEBO,mg,TABLET,QD,ORAL,453.0,,TREATMENT,2025-06-17,2025-06-17,453,453
BI-1245.110,EC,BI-1245.110-ARG_SITE01-0017,454,PLACEBO,PERFORMED,Y,Y,,,,PLACEBO,mg,TABLET,QD,ORAL,454.0,,TREATMENT,2025-06-18,2025-06-18,454,454
BI-1245.110,EC,BI-1245.110-ARG_SITE01-0017,455,PLACEBO,PERFORMED,Y,Y,,,,PLACEBO,mg,TABLET,QD,ORAL,455.0,,TREATMENT,2025-06-19,2025-06-19,455,455
BI-1245.110,EC,BI-1245.110-ARG_SITE01-0017,456,PLACEBO,PERFORMED,Y,Y,,,,PLACEBO,mg,TABLET,QD,ORAL,456.0,,TREATMENT,2025-06-20,2025-06-20,456,456
BI-1245.110,EC,BI-1245.110-ARG_SITE01-0017,457,PLACEBO,PERFORMED,Y,Y,,,,PLACEBO,mg,TABLET,QD,ORAL,457.0,,TREATMENT,2025-06-21,2025-06-21,457,457
BI-1245.110,EC,BI-1245.110-ARG_SITE01-0017,458,PLACEBO,PERFORMED,Y,Y,,,,PLACEBO,mg,TABLET,QD,ORAL,458.0,,TREATMENT,2025-06-22,2025-06-22,458,458
BI-1245.110,EC,BI-1245.110-ARG_SITE01-0017,459,PLACEBO,PERFORMED,Y,Y,,,,PLACEBO,mg,TABLET,QD,ORAL,459.0,,TREATMENT,2025-06-23,2025-06-23,459,459
BI-1245.110,EC,BI-1245.110-ARG_SITE01-0017,460,PLACEBO,PERFORMED,Y,Y,,,,PLACEBO,mg,TABLET,QD,ORAL,460.0,,TREATMENT,2025-06-24,2025-06-24,460,460
BI-1245.110,EC,BI-1245.110-ARG_SITE01-0017,461,PLACEBO,PERFORMED,Y,Y,,,,PLACEBO,mg,TABLET,QD,ORAL,461.0,,TREATMENT,2025-06-25,2025-06-25,461,461
BI-1245.110,EC,BI-1245.110-ARG_SITE01-0017,462,PLACEBO,PERFORMED,Y,Y,,,,PLACEBO,mg,TABLET,QD,ORAL,462.0,,TREATMENT,2025-06-26,2025-06-26,462,462
BI-1245.110,EC,BI-1245.110-ARG_SITE01-0017,463,PLACEBO,PERFORMED,Y,Y,,,,PLACEBO,mg,TABLET,QD,ORAL,463.0,,TREATMENT,2025-06-27,2025-06-27,463,463
BI-1245.110,EC,BI-1245.110-ARG_SITE01-0017,464,PLACEBO,PERFORMED,Y,Y,,,,PLACEBO,mg,TABLET,QD,ORAL,464.0,,TREATMENT,2025-06-28,2025-06-28,464,464
BI-1245.110,EC,BI-1245.110-ARG_SITE01-0017,465,PLACEBO,PERFORMED,Y,Y,,,,PLACEBO,mg,TABLET,QD,ORAL,465.0,,TREATMENT,2025-06-29,2025-06-29,465,465
BI-1245.110,EC,BI-1245.110-ARG_SITE01-0017,466,PLACEBO,PERFORMED,Y,Y,,,,PLACEBO,mg,TABLET,QD,ORAL,466.0,,TREATMENT,2025-06-30,2025-06-30,466,466
BI-1245.110,EC,BI-1245.110-ARG_SITE01-0017,467,PLACEBO,PERFORMED,Y,Y,,,,PLACEBO,mg,TABLET,QD,ORAL,467.0,,TREATMENT,2025-07-01,2025-07-01,467,467
BI-1245.110,EC,BI-1245.110-ARG_SITE01-0017,468,PLACEBO,PERFORMED,Y,Y,,,,PLACEBO,mg,TABLET,QD,ORAL,468.0,,TREATMENT,2025-07-02,2025-07-02,468,468
BI-1245.110,EC,BI-1245.110-ARG_SITE01-0017,469,PLACEBO,PERFORMED,Y,Y,,,,PLACEBO,mg,TABLET,QD,ORAL,469.0,,TREATMENT,2025-07-03,2025-07-03,469,469
BI-1245.110,EC,BI-1245.110-ARG_SITE01-0017,470,PLACEBO,PERFORMED,Y,Y,,,,PLACEBO,mg,TABLET,QD,ORAL,470.0,,TREATMENT,2025-07-04,2025-07-04,470,470
BI-1245.110,EC,BI-1245.110-ARG_SITE01-0017,471,PLACEBO,PERFORMED,Y,Y,,,,PLACEBO,mg,TABLET,QD,ORAL,471.0,,TREATMENT,2025-07-05,2025-07-05,471,471
BI-1245.110,EC,BI-1245.110-ARG_SITE01-0017,472,PLACEBO,PERFORMED,Y,Y,,,,PLACEBO,mg,TABLET,QD,ORAL,472.0,,TREATMENT,2025-07-06,2025-07-06,472,472
BI-1245.110,EC,BI-1245.110-ARG_SITE01-0017,473,PLACEBO,PERFORMED,Y,Y,,,,PLACEBO,mg,TABLET,QD,ORAL,473.0,,TREATMENT,2025-07-07,2025-07-07,473,473
BI-1245.110,EC,BI-1245.110-ARG_SITE01-0017,474,PLACEBO,PERFORMED,Y,Y,,,,PLACEBO,mg,TABLET,QD,ORAL,474.0,,TREATMENT,2025-07-08,2025-07-08,474,474
BI-1245.110,EC,BI-1245.110-ARG_SITE01-0017,475,PLACEBO,PERFORMED,Y,Y,,,,PLACEBO,mg,TABLET,QD,ORAL,475.0,,TREATMENT,2025-07-09,2025-07-09,475,475
BI-1245.110,EC,BI-1245.110-ARG_SITE01-0017,476,PLACEBO,PERFORMED,Y,Y,,,,PLACEBO,mg,TABLET,QD,ORAL,476.0,,TREATMENT,2025-07-10,2025-07-10,476,476
BI-1245.110,EC,BI-1245.110-ARG_SITE01-0017,477,PLACEBO,PERFORMED,Y,Y,,,,PLACEBO,mg,TABLET,QD,ORAL,477.0,,TREATMENT,2025-07-11,2025-07-11,477,477
BI-1245.110,EC,BI-1245.110-ARG_SITE01-0017,478,PLACEBO,PERFORMED,Y,Y,,,,PLACEBO,mg,TABLET,QD,ORAL,478.0,,TREATMENT,2025-07-12,2025-07-12,478,478
BI-1245.110,EC,BI-1245.110-ARG_SITE01-0017,479,PLACEBO,PERFORMED,Y,Y,,,,PLACEBO,mg,TABLET,QD,ORAL,479.0,,TREATMENT,2025-07-13,2025-07-13,479,479
BI-1245.110,EC,BI-1245.110-ARG_SITE01-0017,480,PLACEBO,PERFORMED,Y,Y,,,,PLACEBO,mg,TABLET,QD,ORAL,480.0,,TREATMENT,2025-07-14,2025-07-14,480,480
BI-1245.110,EC,BI-1245.110-ARG_SITE01-0017,481,PLACEBO,PERFORMED,Y,Y,,,,PLACEBO,mg,TABLET,QD,ORAL,481.0,,TREATMENT,2025-07-15,2025-07-15,481,481
BI-1245.110,EC,BI-1245.110-ARG_SITE01-0017,482,PLACEBO,PERFORMED,Y,Y,,,,PLACEBO,mg,TABLET,QD,ORAL,482.0,,TREATMENT,2025-07-16,2025-07-16,482,482
BI-1245.110,EC,BI-1245.110-ARG_SITE01-0017,483,PLACEBO,PERFORMED,Y,Y,,,,PLACEBO,mg,TABLET,QD,ORAL,483.0,,TREATMENT,2025-07-17,2025-07-17,483,483
BI-1245.110,EC,BI-1245.110-ARG_SITE01-0017,484,PLACEBO,PERFORMED,Y,Y,,,,PLACEBO,mg,TABLET,QD,ORAL,484.0,,TREATMENT,2025-07-18,2025-07-18,484,484
BI-1245.110,EC,BI-1245.110-ARG_SITE01-0017,485,PLACEBO,PERFORMED,Y,Y,,,,PLACEBO,mg,TABLET,QD,ORAL,485.0,,TREATMENT,2025-07-19,2025-07-19,485,485
BI-1245.110,EC,BI-1245.110-ARG_SITE01-0017,486,PLACEBO,PERFORMED,Y,Y,,,,PLACEBO,mg,TABLET,QD,ORAL,486.0,,TREATMENT,2025-07-20,2025-07-20,486,486
BI-1245.110,EC,BI-1245.110-ARG_SITE01-0017,487,PLACEBO,PERFORMED,Y,Y,,,,PLACEBO,mg,TABLET,QD,ORAL,487.0,,TREATMENT,2025-07-21,2025-07-21,487,487
BI-1245.110,EC,BI-1245.110-ARG_SITE01-0017,488,PLACEBO,PERFORMED,Y,Y,,,,PLACEBO,mg,TABLET,QD,ORAL,488.0,,TREATMENT,2025-07-22,2025-07-22,488,488
BI-1245.110,EC,BI-1245.110-ARG_SITE01-0017,489,PLACEBO,PERFORMED,Y,Y,,,,PLACEBO,mg,TABLET,QD,ORAL,489.0,,TREATMENT,2025-07-23,2025-07-23,489,489
BI-1245.110,EC,BI-1245.110-ARG_SITE01-0017,490,PLACEBO,PERFORMED,Y,Y,,,,PLACEBO,mg,TABLET,QD,ORAL,490.0,,TREATMENT,2025-07-24,2025-07-24,490,490
BI-1245.110,EC,BI-1245.110-ARG_SITE01-0017,491,PLACEBO,PERFORMED,Y,Y,,,,PLACEBO,mg,TABLET,QD,ORAL,491.0,,TREATMENT,2025-07-25,2025-07-25,491,491
BI-1245.110,EC,BI-1245.110-ARG_SITE01-0017,492,PLACEBO,SCHEDULED,Y,,NOT DONE,SUBJECT NON-COMPLIANCE,,,mg,TABLET,QD,ORAL,492.0,,TREATMENT,2025-07-26,2025-07-26,492,492
BI-1245.110,EC,BI-1245.110-ARG_SITE01-0017,493,PLACEBO,PERFORMED,Y,Y,,,,PLACEBO,mg,TABLET,QD,ORAL,493.0,,TREATMENT,2025-07-27,2025-07-27,493,493
BI-1245.110,EC,BI-1245.110-ARG_SITE01-0017,494,PLACEBO,PERFORMED,Y,Y,,,,PLACEBO,mg,TABLET,QD,ORAL,494.0,,TREATMENT,2025-07-28,2025-07-28,494,494
BI-1245.110,EC,BI-1245.110-ARG_SITE01-0017,495,PLACEBO,PERFORMED,Y,Y,,,,PLACEBO,mg,TABLET,QD,ORAL,495.0,,TREATMENT,2025-07-29,2025-07-29,495,495
BI-1245.110,EC,BI-1245.110-ARG_SITE01-0017,496,PLACEBO,PERFORMED,Y,Y,,,,PLACEBO,mg,TABLET,QD,ORAL,496.0,,TREATMENT,2025-07-30,2025-07-30,496,496
BI-1245.110,EC,BI-1245.110-ARG_SITE01-0017,497,PLACEBO,PERFORMED,Y,Y,,,,PLACEBO,mg,TABLET,QD,ORAL,497.0,,TREATMENT,2025-07-31,2025-07-31,497,497
BI-1245.110,EC,BI-1245.110-ARG_SITE01-0017,498,PLACEBO,PERFORMED,Y,Y,,,,PLACEBO,mg,TABLET,QD,ORAL,498.0,,TREATMENT,2025-08-01,2025-08-01,498,498
BI-1245.110,EC,BI-1245.110-ARG_SITE01-0017,499,PLACEBO,PERFORMED,Y,Y,,,,PLACEBO,mg,TABLET,QD,ORAL,499.0,,TREATMENT,2025-08-02,2025-08-02,499,499
BI-1245.110,EC,BI-1245.110-ARG_SITE01-0017,500,PLACEBO,PERFORMED,Y,Y,,,,PLACEBO,mg,TABLET,QD,ORAL,500.0,,TREATMENT,2025-08-03,2025-08-03,500,500
BI-1245.110,EC,BI-1245.110-ARG_SITE01-0017,501,PLACEBO,PERFORMED,Y,Y,,,,PLACEBO,mg,TABLET,QD,ORAL,501.0,,TREATMENT,2025-08-04,2025-08-04,501,501
BI-1245.110,EC,BI-1245.110-ARG_SITE01-0017,502,PLACEBO,PERFORMED,Y,Y,,,,PLACEBO,mg,TABLET,QD,ORAL,502.0,,TREATMENT,2025-08-05,2025-08-05,502,502
BI-1245.110,EC,BI-1245.110-ARG_SITE01-0017,503,PLACEBO,PERFORMED,Y,Y,,,,PLACEBO,mg,TABLET,QD,ORAL,503.0,,TREATMENT,2025-08-06,2025-08-06,503,503
BI-1245.110,EC,BI-1245.110-ARG_SITE01-0017,504,PLACEBO,PERFORMED,Y,Y,,,,PLACEBO,mg,TABLET,QD,ORAL,504.0,,TREATMENT,2025-08-07,2025-08-07,504,504
BI-1245.110,EC,BI-1245.110-ARG_SITE01-0017,505,PLACEBO,PERFORMED,Y,Y,,,,PLACEBO,mg,TABLET,QD,ORAL,505.0,,TREATMENT,2025-08-08,2025-08-08,505,505
BI-1245.110,EC,BI-1245.110-ARG_SITE01-0017,506,PLACEBO,PERFORMED,Y,Y,,,,PLACEBO,mg,TABLET,QD,ORAL,506.0,,TREATMENT,2025-08-09,2025-08-09,506,506
BI-1245.110,EC,BI-1245.110-ARG_SITE01-0017,507,PLACEBO,PERFORMED,Y,Y,,,,PLACEBO,mg,TABLET,QD,ORAL,507.0,,TREATMENT,2025-08-10,2025-08-10,507,507
BI-1245.110,EC,BI-1245.110-ARG_SITE01-0017,508,PLACEBO,PERFORMED,Y,Y,,,,PLACEBO,mg,TABLET,QD,ORAL,508.0,,TREATMENT,2025-08-11,2025-08-11,508,508
BI-1245.110,EC,BI-1245.110-ARG_SITE01-0017,509,PLACEBO,PERFORMED,Y,Y,,,,PLACEBO,mg,TABLET,QD,ORAL,509.0,,TREATMENT,2025-08-12,2025-08-12,509,509
BI-1245.110,EC,BI-1245.110-ARG_SITE01-0017,510,PLACEBO,PERFORMED,Y,Y,,,,PLACEBO,mg,TABLET,QD,ORAL,510.0,,TREATMENT,2025-08-13,2025-08-13,510,510
BI-1245.110,EC,BI-1245.110-ARG_SITE01-0017,511,PLACEBO,PERFORMED,Y,Y,,,,PLACEBO,mg,TABLET,QD,ORAL,511.0,,TREATMENT,2025-08-14,2025-08-14,511,511
BI-1245.110,EC,BI-1245.110-ARG_SITE01-0017,512,PLACEBO,PERFORMED,Y,Y,,,,PLACEBO,mg,TABLET,QD,ORAL,512.0,,TREATMENT,2025-08-15,2025-08-15,512,512
BI-1245.110,EC,BI-1245.110-ARG_SITE01-0017,513,PLACEBO,PERFORMED,Y,Y,,,,PLACEBO,mg,TABLET,QD,ORAL,513.0,,TREATMENT,2025-08-16,2025-08-16,513,513
BI-1245.110,EC,BI-1245.110-ARG_SITE01-0017,514,PLACEBO,PERFORMED,Y,Y,,,,PLACEBO,mg,TABLET,QD,ORAL,514.0,,TREATMENT,2025-08-17,2025-08-17,514,514
BI-1245.110,EC,BI-1245.110-ARG_SITE01-0017,515,PLACEBO,PERFORMED,Y,Y,,,,PLACEBO,mg,TABLET,QD,ORAL,515.0,,TREATMENT,2025-08-18,2025-08-18,515,515
BI-1245.110,EC,BI-1245.110-ARG_SITE01-0017,516,PLACEBO,PERFORMED,Y,Y,,,,PLACEBO,mg,TABLET,QD,ORAL,516.0,,TREATMENT,2025-08-19,2025-08-19,516,516
BI-1245.110,EC,BI-1245.110-ARG_SITE01-0017,517,PLACEBO,PERFORMED,Y,Y,,,,PLACEBO,mg,TABLET,QD,ORAL,517.0,,TREATMENT,2025-08-20,2025-08-20,517,517
BI-1245.110,EC,BI-1245.110-ARG_SITE01-0017,518,PLACEBO,PERFORMED,Y,Y,,,,PLACEBO,mg,TABLET,QD,ORAL,518.0,,TREATMENT,2025-08-21,2025-08-21,518,518
BI-1245.110,EC,BI-1245.110-ARG_SITE01-0017,519,PLACEBO,PERFORMED,Y,Y,,,,PLACEBO,mg,TABLET,QD,ORAL,519.0,,TREATMENT,2025-08-22,2025-08-22,519,519
BI-1245.110,EC,BI-1245.110-ARG_SITE01-0017,520,PLACEBO,PERFORMED,Y,Y,,,,PLACEBO,mg,TABLET,QD,ORAL,520.0,,TREATMENT,2025-08-23,2025-08-23,520,520
BI-1245.110,EC,BI-1245.110-ARG_SITE01-0017,521,PLACEBO,PERFORMED,Y,Y,,,,PLACEBO,mg,TABLET,QD,ORAL,521.0,,TREATMENT,2025-08-24,2025-08-24,521,521
BI-1245.110,EC,BI-1245.110-ARG_SITE01-0017,522,PLACEBO,PERFORMED,Y,Y,,,,PLACEBO,mg,TABLET,QD,ORAL,522.0,,TREATMENT,2025-08-25,2025-08-25,522,522
BI-1245.110,EC,BI-1245.110-ARG_SITE01-0017,523,PLACEBO,PERFORMED,Y,Y,,,,PLACEBO,mg,TABLET,QD,ORAL,523.0,,TREATMENT,2025-08-26,2025-08-26,523,523
BI-1245.110,EC,BI-1245.110-ARG_SITE01-0017,524,PLACEBO,PERFORMED,Y,Y,,,,PLACEBO,mg,TABLET,QD,ORAL,524.0,,TREATMENT,2025-08-27,2025-08-27,524,524
BI-1245.110,EC,BI-1245.110-ARG_SITE01-0017,525,PLACEBO,PERFORMED,Y,Y,,,,PLACEBO,mg,TABLET,QD,ORAL,525.0,,TREATMENT,2025-08-28,2025-08-28,525,525
BI-1245.110,EC,BI-1245.110-ARG_SITE01-0017,526,PLACEBO,PERFORMED,Y,Y,,,,PLACEBO,mg,TABLET,QD,ORAL,526.0,,TREATMENT,2025-08-29,2025-08-29,526,526
BI-1245.110,EC,BI-1245.110-ARG_SITE01-0017,527,PLACEBO,PERFORMED,Y,Y,,,,PLACEBO,mg,TABLET,QD,ORAL,527.0,,TREATMENT,2025-08-30,2025-08-30,527,527
BI-1245.110,EC,BI-1245.110-ARG_SITE01-0017,528,PLACEBO,PERFORMED,Y,Y,,,,PLACEBO,mg,TABLET,QD,ORAL,528.0,,TREATMENT,2025-08-31,2025-08-31,528,528
BI-1245.110,EC,BI-1245.110-ARG_SITE01-0017,529,PLACEBO,PERFORMED,Y,Y,,,,PLACEBO,mg,TABLET,QD,ORAL,529.0,,TREATMENT,2025-09-01,2025-09-01,529,529
BI-1245.110,EC,BI-1245.110-ARG_SITE01-0017,530,PLACEBO,PERFORMED,Y,Y,,,,PLACEBO,mg,TABLET,QD,ORAL,530.0,,TREATMENT,2025-09-02,2025-09-02,530,530
BI-1245.110,EC,BI-1245.110-ARG_SITE01-0017,531,PLACEBO,PERFORMED,Y,Y,,,,PLACEBO,mg,TABLET,QD,ORAL,531.0,,TREATMENT,2025-09-03,2025-09-03,531,531
BI-1245.110,EC,BI-1245.110-ARG_SITE01-0017,532,PLACEBO,PERFORMED,Y,Y,,,,PLACEBO,mg,TABLET,QD,ORAL,532.0,,TREATMENT,2025-09-04,2025-09-04,532,532
BI-1245.110,EC,BI-1245.110-ARG_SITE01-0017,533,PLACEBO,PERFORMED,Y,Y,,,,PLACEBO,mg,TABLET,QD,ORAL,533.0,,TREATMENT,2025-09-05,2025-09-05,533,533
BI-1245.110,EC,BI-1245.110-ARG_SITE01-0017,534,PLACEBO,PERFORMED,Y,Y,,,,PLACEBO,mg,TABLET,QD,ORAL,534.0,,TREATMENT,2025-09-06,2025-09-06,534,534
BI-1245.110,EC,BI-1245.110-ARG_SITE01-0017,535,PLACEBO,PERFORMED,Y,Y,,,,PLACEBO,mg,TABLET,QD,ORAL,535.0,,TREATMENT,2025-09-07,2025-09-07,535,535
BI-1245.110,EC,BI-1245.110-ARG_SITE01-0017,536,PLACEBO,PERFORMED,Y,Y,,,,PLACEBO,mg,TABLET,QD,ORAL,536.0,,TREATMENT,2025-09-08,2025-09-08,536,536
BI-1245.110,EC,BI-1245.110-ARG_SITE01-0017,537,PLACEBO,PERFORMED,Y,Y,,,,PLACEBO,mg,TABLET,QD,ORAL,537.0,,TREATMENT,2025-09-09,2025-09-09,537,537
BI-1245.110,EC,BI-1245.110-ARG_SITE01-0017,538,PLACEBO,PERFORMED,Y,Y,,,,PLACEBO,mg,TABLET,QD,ORAL,538.0,,TREATMENT,2025-09-10,2025-09-10,538,538
BI-1245.110,EC,BI-1245.110-ARG_SITE01-0017,539,PLACEBO,PERFORMED,Y,Y,,,,PLACEBO,mg,TABLET,QD,ORAL,539.0,,TREATMENT,2025-09-11,2025-09-11,539,539
BI-1245.110,EC,BI-1245.110-ARG_SITE01-0017,540,PLACEBO,PERFORMED,Y,Y,,,,PLACEBO,mg,TABLET,QD,ORAL,540.0,,TREATMENT,2025-09-12,2025-09-12,540,540
BI-1245.110,EC,BI-1245.110-ARG_SITE01-0017,541,PLACEBO,PERFORMED,Y,Y,,,,PLACEBO,mg,TABLET,QD,ORAL,541.0,,TREATMENT,2025-09-13,2025-09-13,541,541
BI-1245.110,EC,BI-1245.110-ARG_SITE01-0017,542,PLACEBO,PERFORMED,Y,Y,,,,PLACEBO,mg,TABLET,QD,ORAL,542.0,,TREATMENT,2025-09-14,2025-09-14,542,542
BI-1245.110,EC,BI-1245.110-ARG_SITE01-0017,543,PLACEBO,PERFORMED,Y,Y,,,,PLACEBO,mg,TABLET,QD,ORAL,543.0,,TREATMENT,2025-09-15,2025-09-15,543,543
BI-1245.110,EC,BI-1245.110-ARG_SITE01-0017,544,PLACEBO,PERFORMED,Y,Y,,,,PLACEBO,mg,TABLET,QD,ORAL,7.0,MONTH 18,TREATMENT,2025-09-16,2025-09-16,544,544
BI-1245.110,EC,BI-1245.110-ARG_SITE01-0017,545,PLACEBO,PERFORMED,Y,Y,,,,PLACEBO,mg,TABLET,QD,ORAL,7.0,MONTH 18,TREATMENT,2025-09-17,2025-09-17,545,545
BI-1245.110,EC,BI-1245.110-ARG_SITE01-0017,546,PLACEBO,PERFORMED,Y,Y,,,,PLACEBO,mg,TABLET,QD,ORAL,7.0,MONTH 18,TREATMENT,2025-09-18,2025-09-18,546,546
BI-1245.110,EC,BI-1245.110-ARG_SITE01-0017,547,PLACEBO,PERFORMED,Y,Y,,,,PLACEBO,mg,TABLET,QD,ORAL,7.0,MONTH 18,TREATMENT,2025-09-19,2025-09-19,547,547
BI-1245.110,EC,BI-1245.110-ARG_SITE01-0017,548,PLACEBO,PERFORMED,Y,Y,,,,PLACEBO,mg,TABLET,QD,ORAL,7.0,MONTH 18,TREATMENT,2025-09-20,2025-09-20,548,548
BI-1245.110,EC,BI-1245.110-ARG_SITE01-0017,549,PLACEBO,SCHEDULED,Y,,NOT DONE,SUBJECT NON-COMPLIANCE,,,mg,TABLET,QD,ORAL,7.0,MONTH 18,TREATMENT,2025-09-21,2025-09-21,549,549
BI-1245.110,EC,BI-1245.110-ARG_SITE01-0017,550,PLACEBO,PERFORMED,Y,Y,,,,PLACEBO,mg,TABLET,QD,ORAL,7.0,MONTH 18,TREATMENT,2025-09-22,2025-09-22,550,550
BI-1245.110,EC,BI-1245.110-ARG_SITE01-0017,551,PLACEBO,PERFORMED,Y,Y,,,,PLACEBO,mg,TABLET,QD,ORAL,551.0,,TREATMENT,2025-09-23,2025-09-23,551,551
BI-1245.110,EC,BI-1245.110-ARG_SITE01-0017,552,PLACEBO,PERFORMED,Y,Y,,,,PLACEBO,mg,TABLET,QD,ORAL,552.0,,TREATMENT,2025-09-24,2025-09-24,552,552
BI-1245.110,EC,BI-1245.110-ARG_SITE01-0017,553,PLACEBO,PERFORMED,Y,Y,,,,PLACEBO,mg,TABLET,QD,ORAL,553.0,,TREATMENT,2025-09-25,2025-09-25,553,553
BI-1245.110,EC,BI-1245.110-ARG_SITE01-0017,554,PLACEBO,PERFORMED,Y,Y,,,,PLACEBO,mg,TABLET,QD,ORAL,554.0,,TREATMENT,2025-09-26,2025-09-26,554,554
BI-1245.110,EC,BI-1245.110-ARG_SITE01-0017,555,PLACEBO,PERFORMED,Y,Y,,,,PLACEBO,mg,TABLET,QD,ORAL,555.0,,TREATMENT,2025-09-27,2025-09-27,555,555
BI-1245.110,EC,BI-1245.110-ARG_SITE01-0017,556,PLACEBO,PERFORMED,Y,Y,,,,PLACEBO,mg,TABLET,QD,ORAL,556.0,,TREATMENT,2025-09-28,2025-09-28,556,556
BI-1245.110,EC,BI-1245.110-ARG_SITE01-0017,557,PLACEBO,PERFORMED,Y,Y,,,,PLACEBO,mg,TABLET,QD,ORAL,557.0,,TREATMENT,2025-09-29,2025-09-29,557,557
BI-1245.110,EC,BI-1245.110-ARG_SITE01-0017,558,PLACEBO,PERFORMED,Y,Y,,,,PLACEBO,mg,TABLET,QD,ORAL,558.0,,TREATMENT,2025-09-30,2025-09-30,558,558
BI-1245.110,EC,BI-1245.110-ARG_SITE01-0017,559,PLACEBO,PERFORMED,Y,Y,,,,PLACEBO,mg,TABLET,QD,ORAL,559.0,,TREATMENT,2025-10-01,2025-10-01,559,559
BI-1245.110,EC,BI-1245.110-ARG_SITE01-0017,560,PLACEBO,PERFORMED,Y,Y,,,,PLACEBO,mg,TABLET,QD,ORAL,560.0,,TREATMENT,2025-10-02,2025-10-02,560,560
BI-1245.110,EC,BI-1245.110-ARG_SITE01-0017,561,PLACEBO,PERFORMED,Y,Y,,,,PLACEBO,mg,TABLET,QD,ORAL,561.0,,TREATMENT,2025-10-03,2025-10-03,561,561
BI-1245.110,EC,BI-1245.110-ARG_SITE01-0017,562,PLACEBO,PERFORMED,Y,Y,,,,PLACEBO,mg,TABLET,QD,ORAL,562.0,,TREATMENT,2025-10-04,2025-10-04,562,562
BI-1245.110,EC,BI-1245.110-ARG_SITE01-0017,563,PLACEBO,PERFORMED,Y,Y,,,,PLACEBO,mg,TABLET,QD,ORAL,563.0,,TREATMENT,2025-10-05,2025-10-05,563,563
BI-1245.110,EC,BI-1245.110-ARG_SITE01-0017,564,PLACEBO,PERFORMED,Y,Y,,,,PLACEBO,mg,TABLET,QD,ORAL,564.0,,TREATMENT,2025-10-06,2025-10-06,564,564
BI-1245.110,EC,BI-1245.110-ARG_SITE01-0017,565,PLACEBO,PERFORMED,Y,Y,,,,PLACEBO,mg,TABLET,QD,ORAL,565.0,,TREATMENT,2025-10-07,2025-10-07,565,565
BI-1245.110,EC,BI-1245.110-ARG_SITE01-0017,566,PLACEBO,PERFORMED,Y,Y,,,,PLACEBO,mg,TABLET,QD,ORAL,566.0,,TREATMENT,2025-10-08,2025-10-08,566,566
BI-1245.110,EC,BI-1245.110-ARG_SITE01-0017,567,PLACEBO,PERFORMED,Y,Y,,,,PLACEBO,mg,TABLET,QD,ORAL,567.0,,TREATMENT,2025-10-09,2025-10-09,567,567
BI-1245.110,EC,BI-1245.110-ARG_SITE01-0017,568,PLACEBO,PERFORMED,Y,Y,,,,PLACEBO,mg,TABLET,QD,ORAL,568.0,,TREATMENT,2025-10-10,2025-10-10,568,568
BI-1245.110,EC,BI-1245.110-ARG_SITE01-0017,569,PLACEBO,PERFORMED,Y,Y,,,,PLACEBO,mg,TABLET,QD,ORAL,569.0,,TREATMENT,2025-10-11,2025-10-11,569,569
BI-1245.110,EC,BI-1245.110-ARG_SITE01-0017,570,PLACEBO,PERFORMED,Y,Y,,,,PLACEBO,mg,TABLET,QD,ORAL,570.0,,TREATMENT,2025-10-12,2025-10-12,570,570
BI-1245.110,EC,BI-1245.110-ARG_SITE01-0017,571,PLACEBO,PERFORMED,Y,Y,,,,PLACEBO,mg,TABLET,QD,ORAL,571.0,,TREATMENT,2025-10-13,2025-10-13,571,571
BI-1245.110,EC,BI-1245.110-ARG_SITE01-0017,572,PLACEBO,PERFORMED,Y,Y,,,,PLACEBO,mg,TABLET,QD,ORAL,572.0,,TREATMENT,2025-10-14,2025-10-14,572,572
BI-1245.110,EC,BI-1245.110-ARG_SITE01-0017,573,PLACEBO,PERFORMED,Y,Y,,,,PLACEBO,mg,TABLET,QD,ORAL,573.0,,TREATMENT,2025-10-15,2025-10-15,573,573
BI-1245.110,EC,BI-1245.110-ARG_SITE01-0017,574,PLACEBO,PERFORMED,Y,Y,,,,PLACEBO,mg,TABLET,QD,ORAL,574.0,,TREATMENT,2025-10-16,2025-10-16,574,574
BI-1245.110,EC,BI-1245.110-ARG_SITE01-0017,575,PLACEBO,PERFORMED,Y,Y,,,,PLACEBO,mg,TABLET,QD,ORAL,575.0,,TREATMENT,2025-10-17,2025-10-17,575,575
BI-1245.110,EC,BI-1245.110-ARG_SITE01-0017,576,PLACEBO,PERFORMED,Y,Y,,,,PLACEBO,mg,TABLET,QD,ORAL,576.0,,TREATMENT,2025-10-18,2025-10-18,576,576
BI-1245.110,EC,BI-1245.110-ARG_SITE01-0017,577,PLACEBO,PERFORMED,Y,Y,,,,PLACEBO,mg,TABLET,QD,ORAL,577.0,,TREATMENT,2025-10-19,2025-10-19,577,577
BI-1245.110,EC,BI-1245.110-ARG_SITE01-0017,578,PLACEBO,PERFORMED,Y,Y,,,,PLACEBO,mg,TABLET,QD,ORAL,578.0,,TREATMENT,2025-10-20,2025-10-20,578,578
BI-1245.110,EC,BI-1245.110-ARG_SITE01-0017,579,PLACEBO,PERFORMED,Y,Y,,,,PLACEBO,mg,TABLET,QD,ORAL,579.0,,TREATMENT,2025-10-21,2025-10-21,579,579
BI-1245.110,EC,BI-1245.110-ARG_SITE01-0017,580,PLACEBO,PERFORMED,Y,Y,,,,PLACEBO,mg,TABLET,QD,ORAL,580.0,,TREATMENT,2025-10-22,2025-10-22,580,580
BI-1245.110,EC,BI-1245.110-ARG_SITE01-0017,581,PLACEBO,PERFORMED,Y,Y,,,,PLACEBO,mg,TABLET,QD,ORAL,581.0,,TREATMENT,2025-10-23,2025-10-23,581,581
BI-1245.110,EC,BI-1245.110-ARG_SITE01-0017,582,PLACEBO,PERFORMED,Y,Y,,,,PLACEBO,mg,TABLET,QD,ORAL,582.0,,TREATMENT,2025-10-24,2025-10-24,582,582
BI-1245.110,EC,BI-1245.110-ARG_SITE01-0017,583,PLACEBO,PERFORMED,Y,Y,,,,PLACEBO,mg,TABLET,QD,ORAL,583.0,,TREATMENT,2025-10-25,2025-10-25,583,583
BI-1245.110,EC,BI-1245.110-ARG_SITE01-0017,584,PLACEBO,PERFORMED,Y,Y,,,,PLACEBO,mg,TABLET,QD,ORAL,584.0,,TREATMENT,2025-10-26,2025-10-26,584,584
BI-1245.110,EC,BI-1245.110-ARG_SITE01-0017,585,PLACEBO,PERFORMED,Y,Y,,,,PLACEBO,mg,TABLET,QD,ORAL,585.0,,TREATMENT,2025-10-27,2025-10-27,585,585
BI-1245.110,EC,BI-1245.110-ARG_SITE01-0017,586,PLACEBO,PERFORMED,Y,Y,,,,PLACEBO,mg,TABLET,QD,ORAL,586.0,,TREATMENT,2025-10-28,2025-10-28,586,586
BI-1245.110,EC,BI-1245.110-ARG_SITE01-0017,587,PLACEBO,PERFORMED,Y,Y,,,,PLACEBO,mg,TABLET,QD,ORAL,587.0,,TREATMENT,2025-10-29,2025-10-29,587,587
BI-1245.110,EC,BI-1245.110-ARG_SITE01-0017,588,PLACEBO,PERFORMED,Y,Y,,,,PLACEBO,mg,TABLET,QD,ORAL,588.0,,TREATMENT,2025-10-30,2025-10-30,588,588
BI-1245.110,EC,BI-1245.110-ARG_SITE01-0017,589,PLACEBO,PERFORMED,Y,Y,,,,PLACEBO,mg,TABLET,QD,ORAL,589.0,,TREATMENT,2025-10-31,2025-10-31,589,589
BI-1245.110,EC,BI-1245.110-ARG_SITE01-0017,590,PLACEBO,PERFORMED,Y,Y,,,,PLACEBO,mg,TABLET,QD,ORAL,590.0,,TREATMENT,2025-11-01,2025-11-01,590,590
BI-1245.110,EC,BI-1245.110-ARG_SITE01-0017,591,PLACEBO,PERFORMED,Y,Y,,,,PLACEBO,mg,TABLET,QD,ORAL,591.0,,TREATMENT,2025-11-02,2025-11-02,591,591
BI-1245.110,EC,BI-1245.110-ARG_SITE01-0017,592,PLACEBO,PERFORMED,Y,Y,,,,PLACEBO,mg,TABLET,QD,ORAL,592.0,,TREATMENT,2025-11-03,2025-11-03,592,592
BI-1245.110,EC,BI-1245.110-ARG_SITE01-0017,593,PLACEBO,PERFORMED,Y,Y,,,,PLACEBO,mg,TABLET,QD,ORAL,593.0,,TREATMENT,2025-11-04,2025-11-04,593,593
BI-1245.110,EC,BI-1245.110-ARG_SITE01-0017,594,PLACEBO,PERFORMED,Y,Y,,,,PLACEBO,mg,TABLET,QD,ORAL,594.0,,TREATMENT,2025-11-05,2025-11-05,594,594
BI-1245.110,EC,BI-1245.110-ARG_SITE01-0017,595,PLACEBO,PERFORMED,Y,Y,,,,PLACEBO,mg,TABLET,QD,ORAL,595.0,,TREATMENT,2025-11-06,2025-11-06,595,595
BI-1245.110,EC,BI-1245.110-ARG_SITE01-0017,596,PLACEBO,PERFORMED,Y,Y,,,,PLACEBO,mg,TABLET,QD,ORAL,596.0,,TREATMENT,2025-11-07,2025-11-07,596,596
BI-1245.110,EC,BI-1245.110-ARG_SITE01-0017,597,PLACEBO,PERFORMED,Y,Y,,,,PLACEBO,mg,TABLET,QD,ORAL,597.0,,TREATMENT,2025-11-08,2025-11-08,597,597
BI-1245.110,EC,BI-1245.110-ARG_SITE01-0017,598,PLACEBO,PERFORMED,Y,Y,,,,PLACEBO,mg,TABLET,QD,ORAL,598.0,,TREATMENT,2025-11-09,2025-11-09,598,598
BI-1245.110,EC,BI-1245.110-ARG_SITE01-0017,599,PLACEBO,PERFORMED,Y,Y,,,,PLACEBO,mg,TABLET,QD,ORAL,599.0,,TREATMENT,2025-11-10,2025-11-10,599,599
BI-1245.110,EC,BI-1245.110-ARG_SITE01-0017,600,PLACEBO,PERFORMED,Y,Y,,,,PLACEBO,mg,TABLET,QD,ORAL,600.0,,TREATMENT,2025-11-11,2025-11-11,600,600
BI-1245.110,EC,BI-1245.110-ARG_SITE01-0017,601,PLACEBO,PERFORMED,Y,Y,,,,PLACEBO,mg,TABLET,QD,ORAL,601.0,,TREATMENT,2025-11-12,2025-11-12,601,601
BI-1245.110,EC,BI-1245.110-ARG_SITE01-0017,602,PLACEBO,PERFORMED,Y,Y,,,,PLACEBO,mg,TABLET,QD,ORAL,602.0,,TREATMENT,2025-11-13,2025-11-13,602,602
BI-1245.110,EC,BI-1245.110-ARG_SITE01-0017,603,PLACEBO,PERFORMED,Y,Y,,,,PLACEBO,mg,TABLET,QD,ORAL,603.0,,TREATMENT,2025-11-14,2025-11-14,603,603
BI-1245.110,EC,BI-1245.110-ARG_SITE01-0017,604,PLACEBO,PERFORMED,Y,Y,,,,PLACEBO,mg,TABLET,QD,ORAL,604.0,,TREATMENT,2025-11-15,2025-11-15,604,604
BI-1245.110,EC,BI-1245.110-ARG_SITE01-0017,605,PLACEBO,PERFORMED,Y,Y,,,,PLACEBO,mg,TABLET,QD,ORAL,605.0,,TREATMENT,2025-11-16,2025-11-16,605,605
BI-1245.110,EC,BI-1245.110-ARG_SITE01-0017,606,PLACEBO,PERFORMED,Y,Y,,,,PLACEBO,mg,TABLET,QD,ORAL,606.0,,TREATMENT,2025-11-17,2025-11-17,606,606
BI-1245.110,EC,BI-1245.110-ARG_SITE01-0017,607,PLACEBO,PERFORMED,Y,Y,,,,PLACEBO,mg,TABLET,QD,ORAL,607.0,,TREATMENT,2025-11-18,2025-11-18,607,607
BI-1245.110,EC,BI-1245.110-ARG_SITE01-0017,608,PLACEBO,PERFORMED,Y,Y,,,,PLACEBO,mg,TABLET,QD,ORAL,608.0,,TREATMENT,2025-11-19,2025-11-19,608,608
BI-1245.110,EC,BI-1245.110-ARG_SITE01-0017,609,PLACEBO,PERFORMED,Y,Y,,,,PLACEBO,mg,TABLET,QD,ORAL,609.0,,TREATMENT,2025-11-20,2025-11-20,609,609
BI-1245.110,EC,BI-1245.110-ARG_SITE01-0017,610,PLACEBO,PERFORMED,Y,Y,,,,PLACEBO,mg,TABLET,QD,ORAL,610.0,,TREATMENT,2025-11-21,2025-11-21,610,610
BI-1245.110,EC,BI-1245.110-ARG_SITE01-0017,611,PLACEBO,PERFORMED,Y,Y,,,,PLACEBO,mg,TABLET,QD,ORAL,611.0,,TREATMENT,2025-11-22,2025-11-22,611,611
BI-1245.110,EC,BI-1245.110-ARG_SITE01-0017,612,PLACEBO,PERFORMED,Y,Y,,,,PLACEBO,mg,TABLET,QD,ORAL,612.0,,TREATMENT,2025-11-23,2025-11-23,612,612
BI-1245.110,EC,BI-1245.110-ARG_SITE01-0017,613,PLACEBO,PERFORMED,Y,Y,,,,PLACEBO,mg,TABLET,QD,ORAL,613.0,,TREATMENT,2025-11-24,2025-11-24,613,613
BI-1245.110,EC,BI-1245.110-ARG_SITE01-0017,614,PLACEBO,PERFORMED,Y,Y,,,,PLACEBO,mg,TABLET,QD,ORAL,614.0,,TREATMENT,2025-11-25,2025-11-25,614,614
BI-1245.110,EC,BI-1245.110-ARG_SITE01-0017,615,PLACEBO,PERFORMED,Y,Y,,,,PLACEBO,mg,TABLET,QD,ORAL,615.0,,TREATMENT,2025-11-26,2025-11-26,615,615
BI-1245.110,EC,BI-1245.110-ARG_SITE01-0017,616,PLACEBO,PERFORMED,Y,Y,,,,PLACEBO,mg,TABLET,QD,ORAL,616.0,,TREATMENT,2025-11-27,2025-11-27,616,616
BI-1245.110,EC,BI-1245.110-ARG_SITE01-0017,617,PLACEBO,PERFORMED,Y,Y,,,,PLACEBO,mg,TABLET,QD,ORAL,617.0,,TREATMENT,2025-11-28,2025-11-28,617,617
BI-1245.110,EC,BI-1245.110-ARG_SITE01-0017,618,PLACEBO,PERFORMED,Y,Y,,,,PLACEBO,mg,TABLET,QD,ORAL,618.0,,TREATMENT,2025-11-29,2025-11-29,618,618
BI-1245.110,EC,BI-1245.110-ARG_SITE01-0017,619,PLACEBO,PERFORMED,Y,Y,,,,PLACEBO,mg,TABLET,QD,ORAL,619.0,,TREATMENT,2025-11-30,2025-11-30,619,619
BI-1245.110,EC,BI-1245.110-ARG_SITE01-0017,620,PLACEBO,PERFORMED,Y,Y,,,,PLACEBO,mg,TABLET,QD,ORAL,620.0,,TREATMENT,2025-12-01,2025-12-01,620,620
BI-1245.110,EC,BI-1245.110-ARG_SITE01-0017,621,PLACEBO,PERFORMED,Y,Y,,,,PLACEBO,mg,TABLET,QD,ORAL,621.0,,TREATMENT,2025-12-02,2025-12-02,621,621
BI-1245.110,EC,BI-1245.110-ARG_SITE01-0017,622,PLACEBO,PERFORMED,Y,Y,,,,PLACEBO,mg,TABLET,QD,ORAL,622.0,,TREATMENT,2025-12-03,2025-12-03,622,622
BI-1245.110,EC,BI-1245.110-ARG_SITE01-0017,623,PLACEBO,PERFORMED,Y,Y,,,,PLACEBO,mg,TABLET,QD,ORAL,623.0,,TREATMENT,2025-12-04,2025-12-04,623,623
BI-1245.110,EC,BI-1245.110-ARG_SITE01-0017,624,PLACEBO,PERFORMED,Y,Y,,,,PLACEBO,mg,TABLET,QD,ORAL,624.0,,TREATMENT,2025-12-05,2025-12-05,624,624
BI-1245.110,EC,BI-1245.110-ARG_SITE01-0017,625,PLACEBO,PERFORMED,Y,Y,,,,PLACEBO,mg,TABLET,QD,ORAL,625.0,,TREATMENT,2025-12-06,2025-12-06,625,625
BI-1245.110,EC,BI-1245.110-ARG_SITE01-0017,626,PLACEBO,PERFORMED,Y,Y,,,,PLACEBO,mg,TABLET,QD,ORAL,626.0,,TREATMENT,2025-12-07,2025-12-07,626,626
BI-1245.110,EC,BI-1245.110-ARG_SITE01-0017,627,PLACEBO,PERFORMED,Y,Y,,,,PLACEBO,mg,TABLET,QD,ORAL,627.0,,TREATMENT,2025-12-08,2025-12-08,627,627
BI-1245.110,EC,BI-1245.110-ARG_SITE01-0017,628,PLACEBO,PERFORMED,Y,Y,,,,PLACEBO,mg,TABLET,QD,ORAL,628.0,,TREATMENT,2025-12-09,2025-12-09,628,628
BI-1245.110,EC,BI-1245.110-ARG_SITE01-0017,629,PLACEBO,PERFORMED,Y,Y,,,,PLACEBO,mg,TABLET,QD,ORAL,629.0,,TREATMENT,2025-12-10,2025-12-10,629,629
BI-1245.110,EC,BI-1245.110-ARG_SITE01-0017,630,PLACEBO,PERFORMED,Y,Y,,,,PLACEBO,mg,TABLET,QD,ORAL,630.0,,TREATMENT,2025-12-11,2025-12-11,630,630
BI-1245.110,EC,BI-1245.110-ARG_SITE01-0017,631,PLACEBO,PERFORMED,Y,Y,,,,PLACEBO,mg,TABLET,QD,ORAL,631.0,,TREATMENT,2025-12-12,2025-12-12,631,631
BI-1245.110,EC,BI-1245.110-ARG_SITE01-0017,632,PLACEBO,PERFORMED,Y,Y,,,,PLACEBO,mg,TABLET,QD,ORAL,632.0,,TREATMENT,2025-12-13,2025-12-13,632,632
BI-1245.110,EC,BI-1245.110-ARG_SITE01-0017,633,PLACEBO,PERFORMED,Y,Y,,,,PLACEBO,mg,TABLET,QD,ORAL,633.0,,TREATMENT,2025-12-14,2025-12-14,633,633
BI-1245.110,EC,BI-1245.110-ARG_SITE01-0017,634,PLACEBO,PERFORMED,Y,Y,,,,PLACEBO,mg,TABLET,QD,ORAL,634.0,,TREATMENT,2025-12-15,2025-12-15,634,634
BI-1245.110,EC,BI-1245.110-ARG_SITE01-0017,635,PLACEBO,PERFORMED,Y,Y,,,,PLACEBO,mg,TABLET,QD,ORAL,635.0,,TREATMENT,2025-12-16,2025-12-16,635,635
BI-1245.110,EC,BI-1245.110-ARG_SITE01-0017,636,PLACEBO,PERFORMED,Y,Y,,,,PLACEBO,mg,TABLET,QD,ORAL,636.0,,TREATMENT,2025-12-17,2025-12-17,636,636
BI-1245.110,EC,BI-1245.110-ARG_SITE01-0017,637,PLACEBO,PERFORMED,Y,Y,,,,PLACEBO,mg,TABLET,QD,ORAL,637.0,,TREATMENT,2025-12-18,2025-12-18,637,637
BI-1245.110,EC,BI-1245.110-ARG_SITE01-0017,638,PLACEBO,PERFORMED,Y,Y,,,,PLACEBO,mg,TABLET,QD,ORAL,638.0,,TREATMENT,2025-12-19,2025-12-19,638,638
BI-1245.110,EC,BI-1245.110-ARG_SITE01-0017,639,PLACEBO,PERFORMED,Y,Y,,,,PLACEBO,mg,TABLET,QD,ORAL,639.0,,TREATMENT,2025-12-20,2025-12-20,639,639
BI-1245.110,EC,BI-1245.110-ARG_SITE01-0017,640,PLACEBO,PERFORMED,Y,Y,,,,PLACEBO,mg,TABLET,QD,ORAL,640.0,,TREATMENT,2025-12-21,2025-12-21,640,640
BI-1245.110,EC,BI-1245.110-ARG_SITE01-0017,641,PLACEBO,PERFORMED,Y,Y,,,,PLACEBO,mg,TABLET,QD,ORAL,641.0,,TREATMENT,2025-12-22,2025-12-22,641,641
BI-1245.110,EC,BI-1245.110-ARG_SITE01-0017,642,PLACEBO,PERFORMED,Y,Y,,,,PLACEBO,mg,TABLET,QD,ORAL,642.0,,TREATMENT,2025-12-23,2025-12-23,642,642
BI-1245.110,EC,BI-1245.110-ARG_SITE01-0017,643,PLACEBO,PERFORMED,Y,Y,,,,PLACEBO,mg,TABLET,QD,ORAL,643.0,,TREATMENT,2025-12-24,2025-12-24,643,643
BI-1245.110,EC,BI-1245.110-ARG_SITE01-0017,644,PLACEBO,PERFORMED,Y,Y,,,,PLACEBO,mg,TABLET,QD,ORAL,644.0,,TREATMENT,2025-12-25,2025-12-25,644,644
BI-1245.110,EC,BI-1245.110-ARG_SITE01-0017,645,PLACEBO,PERFORMED,Y,Y,,,,PLACEBO,mg,TABLET,QD,ORAL,645.0,,TREATMENT,2025-12-26,2025-12-26,645,645
BI-1245.110,EC,BI-1245.110-ARG_SITE01-0017,646,PLACEBO,PERFORMED,Y,Y,,,,PLACEBO,mg,TABLET,QD,ORAL,646.0,,TREATMENT,2025-12-27,2025-12-27,646,646
BI-1245.110,EC,BI-1245.110-ARG_SITE01-0017,647,PLACEBO,PERFORMED,Y,Y,,,,PLACEBO,mg,TABLET,QD,ORAL,647.0,,TREATMENT,2025-12-28,2025-12-28,647,647
BI-1245.110,EC,BI-1245.110-ARG_SITE01-0017,648,PLACEBO,PERFORMED,Y,Y,,,,PLACEBO,mg,TABLET,QD,ORAL,648.0,,TREATMENT,2025-12-29,2025-12-29,648,648
BI-1245.110,EC,BI-1245.110-ARG_SITE01-0017,649,PLACEBO,PERFORMED,Y,Y,,,,PLACEBO,mg,TABLET,QD,ORAL,649.0,,TREATMENT,2025-12-30,2025-12-30,649,649
BI-1245.110,EC,BI-1245.110-ARG_SITE01-0017,650,PLACEBO,PERFORMED,Y,Y,,,,PLACEBO,mg,TABLET,QD,ORAL,650.0,,TREATMENT,2025-12-31,2025-12-31,650,650
BI-1245.110,EC,BI-1245.110-ARG_SITE01-0017,651,PLACEBO,PERFORMED,Y,Y,,,,PLACEBO,mg,TABLET,QD,ORAL,651.0,,TREATMENT,2026-01-01,2026-01-01,651,651
BI-1245.110,EC,BI-1245.110-ARG_SITE01-0017,652,PLACEBO,PERFORMED,Y,Y,,,,PLACEBO,mg,TABLET,QD,ORAL,652.0,,TREATMENT,2026-01-02,2026-01-02,652,652
BI-1245.110,EC,BI-1245.110-ARG_SITE01-0017,653,PLACEBO,PERFORMED,Y,Y,,,,PLACEBO,mg,TABLET,QD,ORAL,653.0,,TREATMENT,2026-01-03,2026-01-03,653,653
BI-1245.110,EC,BI-1245.110-ARG_SITE01-0017,654,PLACEBO,PERFORMED,Y,Y,,,,PLACEBO,mg,TABLET,QD,ORAL,654.0,,TREATMENT,2026-01-04,2026-01-04,654,654
BI-1245.110,EC,BI-1245.110-ARG_SITE01-0017,655,PLACEBO,PERFORMED,Y,Y,,,,PLACEBO,mg,TABLET,QD,ORAL,655.0,,TREATMENT,2026-01-05,2026-01-05,655,655
BI-1245.110,EC,BI-1245.110-ARG_SITE01-0017,656,PLACEBO,PERFORMED,Y,Y,,,,PLACEBO,mg,TABLET,QD,ORAL,656.0,,TREATMENT,2026-01-06,2026-01-06,656,656
BI-1245.110,EC,BI-1245.110-ARG_SITE01-0017,657,PLACEBO,PERFORMED,Y,Y,,,,PLACEBO,mg,TABLET,QD,ORAL,657.0,,TREATMENT,2026-01-07,2026-01-07,657,657
BI-1245.110,EC,BI-1245.110-ARG_SITE01-0017,658,PLACEBO,PERFORMED,Y,Y,,,,PLACEBO,mg,TABLET,QD,ORAL,658.0,,TREATMENT,2026-01-08,2026-01-08,658,658
BI-1245.110,EC,BI-1245.110-ARG_SITE01-0017,659,PLACEBO,PERFORMED,Y,Y,,,,PLACEBO,mg,TABLET,QD,ORAL,659.0,,TREATMENT,2026-01-09,2026-01-09,659,659
BI-1245.110,EC,BI-1245.110-ARG_SITE01-0017,660,PLACEBO,PERFORMED,Y,Y,,,,PLACEBO,mg,TABLET,QD,ORAL,660.0,,TREATMENT,2026-01-10,2026-01-10,660,660
BI-1245.110,EC,BI-1245.110-ARG_SITE01-0017,661,PLACEBO,PERFORMED,Y,Y,,,,PLACEBO,mg,TABLET,QD,ORAL,661.0,,TREATMENT,2026-01-11,2026-01-11,661,661
BI-1245.110,EC,BI-1245.110-ARG_SITE01-0017,662,PLACEBO,PERFORMED,Y,Y,,,,PLACEBO,mg,TABLET,QD,ORAL,662.0,,TREATMENT,2026-01-12,2026-01-12,662,662
BI-1245.110,EC,BI-1245.110-ARG_SITE01-0017,663,PLACEBO,PERFORMED,Y,Y,,,,PLACEBO,mg,TABLET,QD,ORAL,663.0,,TREATMENT,2026-01-13,2026-01-13,663,663
BI-1245.110,EC,BI-1245.110-ARG_SITE01-0017,664,PLACEBO,PERFORMED,Y,Y,,,,PLACEBO,mg,TABLET,QD,ORAL,664.0,,TREATMENT,2026-01-14,2026-01-14,664,664
BI-1245.110,EC,BI-1245.110-ARG_SITE01-0017,665,PLACEBO,PERFORMED,Y,Y,,,,PLACEBO,mg,TABLET,QD,ORAL,665.0,,TREATMENT,2026-01-15,2026-01-15,665,665
BI-1245.110,EC,BI-1245.110-ARG_SITE01-0017,666,PLACEBO,PERFORMED,Y,Y,,,,PLACEBO,mg,TABLET,QD,ORAL,666.0,,TREATMENT,2026-01-16,2026-01-16,666,666
BI-1245.110,EC,BI-1245.110-ARG_SITE01-0017,667,PLACEBO,PERFORMED,Y,Y,,,,PLACEBO,mg,TABLET,QD,ORAL,667.0,,TREATMENT,2026-01-17,2026-01-17,667,667
BI-1245.110,EC,BI-1245.110-ARG_SITE01-0017,668,PLACEBO,PERFORMED,Y,Y,,,,PLACEBO,mg,TABLET,QD,ORAL,668.0,,TREATMENT,2026-01-18,2026-01-18,668,668
BI-1245.110,EC,BI-1245.110-ARG_SITE01-0017,669,PLACEBO,PERFORMED,Y,Y,,,,PLACEBO,mg,TABLET,QD,ORAL,669.0,,TREATMENT,2026-01-19,2026-01-19,669,669
BI-1245.110,EC,BI-1245.110-ARG_SITE01-0017,670,PLACEBO,PERFORMED,Y,Y,,,,PLACEBO,mg,TABLET,QD,ORAL,670.0,,TREATMENT,2026-01-20,2026-01-20,670,670
BI-1245.110,EC,BI-1245.110-ARG_SITE01-0017,671,PLACEBO,PERFORMED,Y,Y,,,,PLACEBO,mg,TABLET,QD,ORAL,671.0,,TREATMENT,2026-01-21,2026-01-21,671,671
BI-1245.110,EC,BI-1245.110-ARG_SITE01-0017,672,PLACEBO,PERFORMED,Y,Y,,,,PLACEBO,mg,TABLET,QD,ORAL,672.0,,TREATMENT,2026-01-22,2026-01-22,672,672
BI-1245.110,EC,BI-1245.110-ARG_SITE01-0017,673,PLACEBO,PERFORMED,Y,Y,,,,PLACEBO,mg,TABLET,QD,ORAL,673.0,,TREATMENT,2026-01-23,2026-01-23,673,673
BI-1245.110,EC,BI-1245.110-ARG_SITE01-0017,674,PLACEBO,PERFORMED,Y,Y,,,,PLACEBO,mg,TABLET,QD,ORAL,674.0,,TREATMENT,2026-01-24,2026-01-24,674,674
BI-1245.110,EC,BI-1245.110-ARG_SITE01-0017,675,PLACEBO,PERFORMED,Y,Y,,,,PLACEBO,mg,TABLET,QD,ORAL,675.0,,TREATMENT,2026-01-25,2026-01-25,675,675
BI-1245.110,EC,BI-1245.110-ARG_SITE01-0017,676,PLACEBO,PERFORMED,Y,Y,,,,PLACEBO,mg,TABLET,QD,ORAL,676.0,,TREATMENT,2026-01-26,2026-01-26,676,676
BI-1245.110,EC,BI-1245.110-ARG_SITE01-0017,677,PLACEBO,PERFORMED,Y,Y,,,,PLACEBO,mg,TABLET,QD,ORAL,677.0,,TREATMENT,2026-01-27,2026-01-27,677,677
BI-1245.110,EC,BI-1245.110-ARG_SITE01-0017,678,PLACEBO,PERFORMED,Y,Y,,,,PLACEBO,mg,TABLET,QD,ORAL,678.0,,TREATMENT,2026-01-28,2026-01-28,678,678
BI-1245.110,EC,BI-1245.110-ARG_SITE01-0017,679,PLACEBO,PERFORMED,Y,Y,,,,PLACEBO,mg,TABLET,QD,ORAL,679.0,,TREATMENT,2026-01-29,2026-01-29,679,679
BI-1245.110,EC,BI-1245.110-ARG_SITE01-0017,680,PLACEBO,PERFORMED,Y,Y,,,,PLACEBO,mg,TABLET,QD,ORAL,680.0,,TREATMENT,2026-01-30,2026-01-30,680,680
BI-1245.110,EC,BI-1245.110-ARG_SITE01-0017,681,PLACEBO,PERFORMED,Y,Y,,,,PLACEBO,mg,TABLET,QD,ORAL,681.0,,TREATMENT,2026-01-31,2026-01-31,681,681
BI-1245.110,EC,BI-1245.110-ARG_SITE01-0017,682,PLACEBO,PERFORMED,Y,Y,,,,PLACEBO,mg,TABLET,QD,ORAL,682.0,,TREATMENT,2026-02-01,2026-02-01,682,682
BI-1245.110,EC,BI-1245.110-ARG_SITE01-0017,683,PLACEBO,PERFORMED,Y,Y,,,,PLACEBO,mg,TABLET,QD,ORAL,683.0,,TREATMENT,2026-02-02,2026-02-02,683,683
BI-1245.110,EC,BI-1245.110-ARG_SITE01-0017,684,PLACEBO,PERFORMED,Y,Y,,,,PLACEBO,mg,TABLET,QD,ORAL,684.0,,TREATMENT,2026-02-03,2026-02-03,684,684
BI-1245.110,EC,BI-1245.110-ARG_SITE01-0017,685,PLACEBO,PERFORMED,Y,Y,,,,PLACEBO,mg,TABLET,QD,ORAL,685.0,,TREATMENT,2026-02-04,2026-02-04,685,685
BI-1245.110,EC,BI-1245.110-ARG_SITE01-0017,686,PLACEBO,PERFORMED,Y,Y,,,,PLACEBO,mg,TABLET,QD,ORAL,686.0,,TREATMENT,2026-02-05,2026-02-05,686,686
BI-1245.110,EC,BI-1245.110-ARG_SITE01-0017,687,PLACEBO,PERFORMED,Y,Y,,,,PLACEBO,mg,TABLET,QD,ORAL,687.0,,TREATMENT,2026-02-06,2026-02-06,687,687
BI-1245.110,EC,BI-1245.110-ARG_SITE01-0017,688,PLACEBO,PERFORMED,Y,Y,,,,PLACEBO,mg,TABLET,QD,ORAL,688.0,,TREATMENT,2026-02-07,2026-02-07,688,688
BI-1245.110,EC,BI-1245.110-ARG_SITE01-0017,689,PLACEBO,PERFORMED,Y,Y,,,,PLACEBO,mg,TABLET,QD,ORAL,689.0,,TREATMENT,2026-02-08,2026-02-08,689,689
BI-1245.110,EC,BI-1245.110-ARG_SITE01-0017,690,PLACEBO,PERFORMED,Y,Y,,,,PLACEBO,mg,TABLET,QD,ORAL,690.0,,TREATMENT,2026-02-09,2026-02-09,690,690
BI-1245.110,EC,BI-1245.110-ARG_SITE01-0017,691,PLACEBO,PERFORMED,Y,Y,,,,PLACEBO,mg,TABLET,QD,ORAL,691.0,,TREATMENT,2026-02-10,2026-02-10,691,691
BI-1245.110,EC,BI-1245.110-ARG_SITE01-0017,692,PLACEBO,PERFORMED,Y,Y,,,,PLACEBO,mg,TABLET,QD,ORAL,692.0,,TREATMENT,2026-02-11,2026-02-11,692,692
BI-1245.110,EC,BI-1245.110-ARG_SITE01-0017,693,PLACEBO,PERFORMED,Y,Y,,,,PLACEBO,mg,TABLET,QD,ORAL,693.0,,TREATMENT,2026-02-12,2026-02-12,693,693
BI-1245.110,EC,BI-1245.110-ARG_SITE01-0017,694,PLACEBO,PERFORMED,Y,Y,,,,PLACEBO,mg,TABLET,QD,ORAL,694.0,,TREATMENT,2026-02-13,2026-02-13,694,694
BI-1245.110,EC,BI-1245.110-ARG_SITE01-0017,695,PLACEBO,PERFORMED,Y,Y,,,,PLACEBO,mg,TABLET,QD,ORAL,695.0,,TREATMENT,2026-02-14,2026-02-14,695,695
BI-1245.110,EC,BI-1245.110-ARG_SITE01-0017,696,PLACEBO,PERFORMED,Y,Y,,,,PLACEBO,mg,TABLET,QD,ORAL,696.0,,TREATMENT,2026-02-15,2026-02-15,696,696
BI-1245.110,EC,BI-1245.110-ARG_SITE01-0017,697,PLACEBO,PERFORMED,Y,Y,,,,PLACEBO,mg,TABLET,QD,ORAL,697.0,,TREATMENT,2026-02-16,2026-02-16,697,697
BI-1245.110,EC,BI-1245.110-ARG_SITE01-0017,698,PLACEBO,PERFORMED,Y,Y,,,,PLACEBO,mg,TABLET,QD,ORAL,698.0,,TREATMENT,2026-02-17,2026-02-17,698,698
BI-1245.110,EC,BI-1245.110-ARG_SITE01-0017,699,PLACEBO,PERFORMED,Y,Y,,,,PLACEBO,mg,TABLET,QD,ORAL,699.0,,TREATMENT,2026-02-18,2026-02-18,699,699
BI-1245.110,EC,BI-1245.110-ARG_SITE01-0017,700,PLACEBO,PERFORMED,Y,Y,,,,PLACEBO,mg,TABLET,QD,ORAL,700.0,,TREATMENT,2026-02-19,2026-02-19,700,700
BI-1245.110,EC,BI-1245.110-ARG_SITE01-0017,701,PLACEBO,PERFORMED,Y,Y,,,,PLACEBO,mg,TABLET,QD,ORAL,701.0,,TREATMENT,2026-02-20,2026-02-20,701,701
BI-1245.110,EC,BI-1245.110-ARG_SITE01-0017,702,PLACEBO,PERFORMED,Y,Y,,,,PLACEBO,mg,TABLET,QD,ORAL,702.0,,TREATMENT,2026-02-21,2026-02-21,702,702
BI-1245.110,EC,BI-1245.110-ARG_SITE01-0017,703,PLACEBO,PERFORMED,Y,Y,,,,PLACEBO,mg,TABLET,QD,ORAL,703.0,,TREATMENT,2026-02-22,2026-02-22,703,703
BI-1245.110,EC,BI-1245.110-ARG_SITE01-0017,704,PLACEBO,SCHEDULED,Y,,NOT DONE,SUBJECT NON-COMPLIANCE,,,mg,TABLET,QD,ORAL,704.0,,TREATMENT,2026-02-23,2026-02-23,704,704
BI-1245.110,EC,BI-1245.110-ARG_SITE01-0017,705,PLACEBO,PERFORMED,Y,Y,,,,PLACEBO,mg,TABLET,QD,ORAL,705.0,,TREATMENT,2026-02-24,2026-02-24,705,705
BI-1245.110,EC,BI-1245.110-ARG_SITE01-0017,706,PLACEBO,PERFORMED,Y,Y,,,,PLACEBO,mg,TABLET,QD,ORAL,706.0,,TREATMENT,2026-02-25,2026-02-25,706,706
BI-1245.110,EC,BI-1245.110-ARG_SITE01-0017,707,PLACEBO,PERFORMED,Y,Y,,,,PLACEBO,mg,TABLET,QD,ORAL,707.0,,TREATMENT,2026-02-26,2026-02-26,707,707
BI-1245.110,EC,BI-1245.110-ARG_SITE01-0017,708,PLACEBO,PERFORMED,Y,Y,,,,PLACEBO,mg,TABLET,QD,ORAL,708.0,,TREATMENT,2026-02-27,2026-02-27,708,708
BI-1245.110,EC,BI-1245.110-ARG_SITE01-0017,709,PLACEBO,PERFORMED,Y,Y,,,,PLACEBO,mg,TABLET,QD,ORAL,709.0,,TREATMENT,2026-02-28,2026-02-28,709,709
BI-1245.110,EC,BI-1245.110-ARG_SITE01-0017,710,PLACEBO,PERFORMED,Y,Y,,,,PLACEBO,mg,TABLET,QD,ORAL,710.0,,TREATMENT,2026-03-01,2026-03-01,710,710
BI-1245.110,EC,BI-1245.110-ARG_SITE01-0017,711,PLACEBO,PERFORMED,Y,Y,,,,PLACEBO,mg,TABLET,QD,ORAL,711.0,,TREATMENT,2026-03-02,2026-03-02,711,711
BI-1245.110,EC,BI-1245.110-ARG_SITE01-0017,712,PLACEBO,PERFORMED,Y,Y,,,,PLACEBO,mg,TABLET,QD,ORAL,712.0,,TREATMENT,2026-03-03,2026-03-03,712,712
BI-1245.110,EC,BI-1245.110-ARG_SITE01-0017,713,PLACEBO,PERFORMED,Y,Y,,,,PLACEBO,mg,TABLET,QD,ORAL,713.0,,TREATMENT,2026-03-04,2026-03-04,713,713
BI-1245.110,EC,BI-1245.110-ARG_SITE01-0017,714,PLACEBO,PERFORMED,Y,Y,,,,PLACEBO,mg,TABLET,QD,ORAL,714.0,,TREATMENT,2026-03-05,2026-03-05,714,714
BI-1245.110,EC,BI-1245.110-ARG_SITE01-0017,715,PLACEBO,PERFORMED,Y,Y,,,,PLACEBO,mg,TABLET,QD,ORAL,715.0,,TREATMENT,2026-03-06,2026-03-06,715,715
BI-1245.110,EC,BI-1245.110-ARG_SITE01-0017,716,PLACEBO,SCHEDULED,Y,,NOT DONE,SUBJECT NON-COMPLIANCE,,,mg,TABLET,QD,ORAL,716.0,,TREATMENT,2026-03-07,2026-03-07,716,716
BI-1245.110,EC,BI-1245.110-ARG_SITE01-0017,717,PLACEBO,PERFORMED,Y,Y,,,,PLACEBO,mg,TABLET,QD,ORAL,717.0,,TREATMENT,2026-03-08,2026-03-08,717,717
BI-1245.110,EC,BI-1245.110-ARG_SITE01-0017,718,PLACEBO,PERFORMED,Y,Y,,,,PLACEBO,mg,TABLET,QD,ORAL,718.0,,TREATMENT,2026-03-09,2026-03-09,718,718
BI-1245.110,EC,BI-1245.110-ARG_SITE01-0017,719,PLACEBO,PERFORMED,Y,Y,,,,PLACEBO,mg,TABLET,QD,ORAL,719.0,,TREATMENT,2026-03-10,2026-03-10,719,719
BI-1245.110,EC,BI-1245.110-ARG_SITE01-0017,720,PLACEBO,PERFORMED,Y,Y,,,,PLACEBO,mg,TABLET,QD,ORAL,720.0,,TREATMENT,2026-03-11,2026-03-11,720,720
BI-1245.110,EC,BI-1245.110-ARG_SITE01-0017,721,PLACEBO,PERFORMED,Y,Y,,,,PLACEBO,mg,TABLET,QD,ORAL,721.0,,TREATMENT,2026-03-12,2026-03-12,721,721
BI-1245.110,EC,BI-1245.110-ARG_SITE01-0017,722,PLACEBO,PERFORMED,Y,Y,,,,PLACEBO,mg,TABLET,QD,ORAL,722.0,,TREATMENT,2026-03-13,2026-03-13,722,722
BI-1245.110,EC,BI-1245.110-ARG_SITE01-0017,723,PLACEBO,PERFORMED,Y,Y,,,,PLACEBO,mg,TABLET,QD,ORAL,723.0,,TREATMENT,2026-03-14,2026-03-14,723,723
BI-1245.110,EC,BI-1245.110-ARG_SITE01-0017,724,PLACEBO,PERFORMED,Y,Y,,,,PLACEBO,mg,TABLET,QD,ORAL,724.0,,TREATMENT,2026-03-15,2026-03-15,724,724
BI-1245.110,EC,BI-1245.110-ARG_SITE01-0017,725,PLACEBO,PERFORMED,Y,Y,,,,PLACEBO,mg,TABLET,QD,ORAL,725.0,,TREATMENT,2026-03-16,2026-03-16,725,725
BI-1245.110,EC,BI-1245.110-ARG_SITE01-0017,726,PLACEBO,PERFORMED,Y,Y,,,,PLACEBO,mg,TABLET,QD,ORAL,726.0,,TREATMENT,2026-03-17,2026-03-17,726,726
BI-1245.110,EC,BI-1245.110-ARG_SITE01-0017,727,PLACEBO,PERFORMED,Y,Y,,,,PLACEBO,mg,TABLET,QD,ORAL,8.0,MONTH 24,TREATMENT,2026-03-18,2026-03-18,727,727
BI-1245.110,EC,BI-1245.110-ARG_SITE01-0017,728,PLACEBO,PERFORMED,Y,Y,,,,PLACEBO,mg,TABLET,QD,ORAL,8.0,MONTH 24,TREATMENT,2026-03-19,2026-03-19,728,728
BI-1245.110,EC,BI-1245.110-ARG_SITE01-0017,729,PLACEBO,PERFORMED,Y,Y,,,,PLACEBO,mg,TABLET,QD,ORAL,8.0,MONTH 24,TREATMENT,2026-03-20,2026-03-20,729,729
BI-1245.110,EC,BI-1245.110-ARG_SITE01-0017,730,PLACEBO,PERFORMED,Y,Y,,,,PLACEBO,mg,TABLET,QD,ORAL,8.0,MONTH 24,TREATMENT,2026-03-21,2026-03-21,730,730
BI-1245.110,EC,BI-1245.110-ARG_SITE01-0017,731,PLACEBO,PERFORMED,Y,Y,,,,PLACEBO,mg,TABLET,QD,ORAL,8.0,MONTH 24,TREATMENT,2026-03-22,2026-03-22,731,731
BI-1245.110,EC,BI-1245.110-ARG_SITE01-0017,732,PLACEBO,PERFORMED,Y,Y,,,,PLACEBO,mg,TABLET,QD,ORAL,8.0,MONTH 24,TREATMENT,2026-03-23,2026-03-23,732,732
BI-1245.110,EC,BI-1245.110-ARG_SITE01-0017,733,PLACEBO,PERFORMED,Y,Y,,,,PLACEBO,mg,TABLET,QD,ORAL,8.0,MONTH 24,TREATMENT,2026-03-24,2026-03-24,733,733
BI-1245.110,EC,BI-1245.110-ARG_SITE01-0017,734,PLACEBO,PERFORMED,Y,Y,,,,PLACEBO,mg,TABLET,QD,ORAL,734.0,,TREATMENT,2026-03-25,2026-03-25,734,734
BI-1245.110,EC,BI-1245.110-ARG_SITE01-0017,735,PLACEBO,PERFORMED,Y,Y,,,,PLACEBO,mg,TABLET,QD,ORAL,735.0,,TREATMENT,2026-03-26,2026-03-26,735,735
BI-1245.110,EC,BI-1245.110-ARG_SITE01-0017,736,PLACEBO,PERFORMED,Y,Y,,,,PLACEBO,mg,TABLET,QD,ORAL,736.0,,TREATMENT,2026-03-27,2026-03-27,736,736
BI-1245.110,EC,BI-1245.110-ARG_SITE01-0017,737,PLACEBO,PERFORMED,Y,Y,,,,PLACEBO,mg,TABLET,QD,ORAL,737.0,,TREATMENT,2026-03-28,2026-03-28,737,737
BI-1245.110,EC,BI-1245.110-ARG_SITE01-0017,738,PLACEBO,PERFORMED,Y,Y,,,,PLACEBO,mg,TABLET,QD,ORAL,738.0,,TREATMENT,2026-03-29,2026-03-29,738,738
BI-1245.110,EC,BI-1245.110-ARG_SITE01-0017,739,PLACEBO,PERFORMED,Y,Y,,,,PLACEBO,mg,TABLET,QD,ORAL,739.0,,TREATMENT,2026-03-30,2026-03-30,739,739
BI-1245.110,EC,BI-1245.110-ARG_SITE01-0017,740,PLACEBO,PERFORMED,Y,Y,,,,PLACEBO,mg,TABLET,QD,ORAL,740.0,,TREATMENT,2026-03-31,2026-03-31,740,740
BI-1245.110,EC,BI-1245.110-ARG_SITE01-0017,741,PLACEBO,PERFORMED,Y,Y,,,,PLACEBO,mg,TABLET,QD,ORAL,741.0,,TREATMENT,2026-04-01,2026-04-01,741,741
BI-1245.110,EC,BI-1245.110-ARG_SITE01-0017,742,PLACEBO,PERFORMED,Y,Y,,,,PLACEBO,mg,TABLET,QD,ORAL,742.0,,TREATMENT,2026-04-02,2026-04-02,742,742
BI-1245.110,EC,BI-1245.110-ARG_SITE01-0017,743,PLACEBO,PERFORMED,Y,Y,,,,PLACEBO,mg,TABLET,QD,ORAL,743.0,,TREATMENT,2026-04-03,2026-04-03,743,743
BI-1245.110,EC,BI-1245.110-ARG_SITE01-0017,744,PLACEBO,PERFORMED,Y,Y,,,,PLACEBO,mg,TABLET,QD,ORAL,744.0,,TREATMENT,2026-04-04,2026-04-04,744,744
BI-1245.110,EC,BI-1245.110-ARG_SITE01-0017,745,PLACEBO,PERFORMED,Y,Y,,,,PLACEBO,mg,TABLET,QD,ORAL,745.0,,TREATMENT,2026-04-05,2026-04-05,745,745
BI-1245.110,EC,BI-1245.110-ARG_SITE01-0017,746,PLACEBO,PERFORMED,Y,Y,,,,PLACEBO,mg,TABLET,QD,ORAL,746.0,,TREATMENT,2026-04-06,2026-04-06,746,746
BI-1245.110,EC,BI-1245.110-ARG_SITE01-0017,747,PLACEBO,PERFORMED,Y,Y,,,,PLACEBO,mg,TABLET,QD,ORAL,747.0,,TREATMENT,2026-04-07,2026-04-07,747,747
BI-1245.110,EC,BI-1245.110-ARG_SITE01-0017,748,PLACEBO,PERFORMED,Y,Y,,,,PLACEBO,mg,TABLET,QD,ORAL,748.0,,TREATMENT,2026-04-08,2026-04-08,748,748
BI-1245.110,EC,BI-1245.110-ARG_SITE01-0017,749,PLACEBO,PERFORMED,Y,Y,,,,PLACEBO,mg,TABLET,QD,ORAL,749.0,,TREATMENT,2026-04-09,2026-04-09,749,749
BI-1245.110,EC,BI-1245.110-ARG_SITE01-0017,750,PLACEBO,PERFORMED,Y,Y,,,,PLACEBO,mg,TABLET,QD,ORAL,750.0,,TREATMENT,2026-04-10,2026-04-10,750,750
BI-1245.110,EC,BI-1245.110-BRA_SITE01-0010,1,EMPAGLIFLOZIN,PERFORMED,Y,Y,,,10.0,,mg,TABLET,QD,ORAL,2.0,BASELINE,TREATMENT,2024-03-20,2024-03-20,1,1
BI-1245.110,EC,BI-1245.110-BRA_SITE01-0010,2,EMPAGLIFLOZIN,PERFORMED,Y,Y,,,10.0,,mg,TABLET,QD,ORAL,2.0,BASELINE,TREATMENT,2024-03-21,2024-03-21,2,2
BI-1245.110,EC,BI-1245.110-BRA_SITE01-0010,3,EMPAGLIFLOZIN,PERFORMED,Y,Y,,,10.0,,mg,TABLET,QD,ORAL,2.0,BASELINE,TREATMENT,2024-03-22,2024-03-22,3,3
BI-1245.110,EC,BI-1245.110-BRA_SITE01-0010,4,EMPAGLIFLOZIN,SCHEDULED,Y,,NOT DONE,SUBJECT NON-COMPLIANCE,,,mg,TABLET,QD,ORAL,2.0,BASELINE,TREATMENT,2024-03-23,2024-03-23,4,4
BI-1245.110,EC,BI-1245.110-BRA_SITE01-0010,5,EMPAGLIFLOZIN,PERFORMED,Y,Y,,,10.0,,mg,TABLET,QD,ORAL,5.0,,TREATMENT,2024-03-24,2024-03-24,5,5
BI-1245.110,EC,BI-1245.110-BRA_SITE01-0010,6,EMPAGLIFLOZIN,PERFORMED,Y,Y,,,10.0,,mg,TABLET,QD,ORAL,6.0,,TREATMENT,2024-03-25,2024-03-25,6,6
BI-1245.110,EC,BI-1245.110-BRA_SITE01-0010,7,EMPAGLIFLOZIN,PERFORMED,Y,Y,,,10.0,,mg,TABLET,QD,ORAL,7.0,,TREATMENT,2024-03-26,2024-03-26,7,7
BI-1245.110,EC,BI-1245.110-BRA_SITE01-0010,8,EMPAGLIFLOZIN,PERFORMED,Y,Y,,,10.0,,mg,TABLET,QD,ORAL,8.0,,TREATMENT,2024-03-27,2024-03-27,8,8
BI-1245.110,EC,BI-1245.110-BRA_SITE01-0010,9,EMPAGLIFLOZIN,PERFORMED,Y,Y,,,10.0,,mg,TABLET,QD,ORAL,9.0,,TREATMENT,2024-03-28,2024-03-28,9,9
BI-1245.110,EC,BI-1245.110-BRA_SITE01-0010,10,EMPAGLIFLOZIN,PERFORMED,Y,Y,,,10.0,,mg,TABLET,QD,ORAL,10.0,,TREATMENT,2024-03-29,2024-03-29,10,10
BI-1245.110,EC,BI-1245.110-BRA_SITE01-0010,11,EMPAGLIFLOZIN,SCHEDULED,Y,,NOT DONE,SUBJECT NON-COMPLIANCE,,,mg,TABLET,QD,ORAL,11.0,,TREATMENT,2024-03-30,2024-03-30,11,11
BI-1245.110,EC,BI-1245.110-BRA_SITE01-0010,12,EMPAGLIFLOZIN,SCHEDULED,Y,,NOT DONE,SUBJECT NON-COMPLIANCE,,,mg,TABLET,QD,ORAL,12.0,,TREATMENT,2024-03-31,2024-03-31,12,12
BI-1245.110,EC,BI-1245.110-BRA_SITE01-0010,13,EMPAGLIFLOZIN,PERFORMED,Y,Y,,,10.0,,mg,TABLET,QD,ORAL,13.0,,TREATMENT,2024-04-01,2024-04-01,13,13
BI-1245.110,EC,BI-1245.110-BRA_SITE01-0010,14,EMPAGLIFLOZIN,PERFORMED,Y,Y,,,10.0,,mg,TABLET,QD,ORAL,14.0,,TREATMENT,2024-04-02,2024-04-02,14,14
BI-1245.110,EC,BI-1245.110-BRA_SITE01-0010,15,EMPAGLIFLOZIN,PERFORMED,Y,Y,,,10.0,,mg,TABLET,QD,ORAL,15.0,,TREATMENT,2024-04-03,2024-04-03,15,15
BI-1245.110,EC,BI-1245.110-BRA_SITE01-0010,16,EMPAGLIFLOZIN,PERFORMED,Y,Y,,,10.0,,mg,TABLET,QD,ORAL,16.0,,TREATMENT,2024-04-04,2024-04-04,16,16
BI-1245.110,EC,BI-1245.110-BRA_SITE01-0010,17,EMPAGLIFLOZIN,PERFORMED,Y,Y,,,10.0,,mg,TABLET,QD,ORAL,17.0,,TREATMENT,2024-04-05,2024-04-05,17,17
BI-1245.110,EC,BI-1245.110-BRA_SITE01-0010,18,EMPAGLIFLOZIN,PERFORMED,Y,Y,,,10.0,,mg,TABLET,QD,ORAL,18.0,,TREATMENT,2024-04-06,2024-04-06,18,18
BI-1245.110,EC,BI-1245.110-BRA_SITE01-0010,19,EMPAGLIFLOZIN,PERFORMED,Y,Y,,,10.0,,mg,TABLET,QD,ORAL,19.0,,TREATMENT,2024-04-07,2024-04-07,19,19
BI-1245.110,EC,BI-1245.110-BRA_SITE01-0010,20,EMPAGLIFLOZIN,PERFORMED,Y,Y,,,10.0,,mg,TABLET,QD,ORAL,20.0,,TREATMENT,2024-04-08,2024-04-08,20,20
BI-1245.110,EC,BI-1245.110-BRA_SITE01-0010,21,EMPAGLIFLOZIN,PERFORMED,Y,Y,,,10.0,,mg,TABLET,QD,ORAL,21.0,,TREATMENT,2024-04-09,2024-04-09,21,21
BI-1245.110,EC,BI-1245.110-BRA_SITE01-0010,22,EMPAGLIFLOZIN,PERFORMED,Y,Y,,,10.0,,mg,TABLET,QD,ORAL,22.0,,TREATMENT,2024-04-10,2024-04-10,22,22
BI-1245.110,EC,BI-1245.110-BRA_SITE01-0010,23,EMPAGLIFLOZIN,PERFORMED,Y,Y,,,10.0,,mg,TABLET,QD,ORAL,23.0,,TREATMENT,2024-04-11,2024-04-11,23,23
BI-1245.110,EC,BI-1245.110-BRA_SITE01-0010,24,EMPAGLIFLOZIN,PERFORMED,Y,Y,,,10.0,,mg,TABLET,QD,ORAL,24.0,,TREATMENT,2024-04-12,2024-04-12,24,24
BI-1245.110,EC,BI-1245.110-BRA_SITE01-0010,25,EMPAGLIFLOZIN,PERFORMED,Y,Y,,,10.0,,mg,TABLET,QD,ORAL,25.0,,TREATMENT,2024-04-13,2024-04-13,25,25
BI-1245.110,EC,BI-1245.110-BRA_SITE01-0010,26,EMPAGLIFLOZIN,PERFORMED,Y,Y,,,10.0,,mg,TABLET,QD,ORAL,3.0,WEEK 4,TREATMENT,2024-04-14,2024-04-14,26,26
BI-1245.110,EC,BI-1245.110-BRA_SITE01-0010,27,EMPAGLIFLOZIN,PERFORMED,Y,Y,,,10.0,,mg,TABLET,QD,ORAL,3.0,WEEK 4,TREATMENT,2024-04-15,2024-04-15,27,27
BI-1245.110,EC,BI-1245.110-BRA_SITE01-0010,28,EMPAGLIFLOZIN,PERFORMED,Y,Y,,,10.0,,mg,TABLET,QD,ORAL,3.0,WEEK 4,TREATMENT,2024-04-16,2024-04-16,28,28
BI-1245.110,EC,BI-1245.110-BRA_SITE01-0010,29,EMPAGLIFLOZIN,SCHEDULED,Y,,NOT DONE,SUBJECT NON-COMPLIANCE,,,mg,TABLET,QD,ORAL,3.0,WEEK 4,TREATMENT,2024-04-17,2024-04-17,29,29
BI-1245.110,EC,BI-1245.110-BRA_SITE01-0010,30,EMPAGLIFLOZIN,PERFORMED,Y,Y,,,10.0,,mg,TABLET,QD,ORAL,3.0,WEEK 4,TREATMENT,2024-04-18,2024-04-18,30,30
BI-1245.110,EC,BI-1245.110-BRA_SITE01-0010,31,EMPAGLIFLOZIN,SCHEDULED,Y,,NOT DONE,SUBJECT NON-COMPLIANCE,,,mg,TABLET,QD,ORAL,3.0,WEEK 4,TREATMENT,2024-04-19,2024-04-19,31,31
BI-1245.110,EC,BI-1245.110-BRA_SITE01-0010,32,EMPAGLIFLOZIN,SCHEDULED,Y,,NOT DONE,SUBJECT NON-COMPLIANCE,,,mg,TABLET,QD,ORAL,3.0,WEEK 4,TREATMENT,2024-04-20,2024-04-20,32,32
BI-1245.110,EC,BI-1245.110-BRA_SITE01-0010,33,EMPAGLIFLOZIN,PERFORMED,Y,Y,,,10.0,,mg,TABLET,QD,ORAL,33.0,,TREATMENT,2024-04-21,2024-04-21,33,33
BI-1245.110,EC,BI-1245.110-BRA_SITE01-0010,34,EMPAGLIFLOZIN,PERFORMED,Y,Y,,,10.0,,mg,TABLET,QD,ORAL,34.0,,TREATMENT,2024-04-22,2024-04-22,34,34
BI-1245.110,EC,BI-1245.110-BRA_SITE01-0010,35,EMPAGLIFLOZIN,PERFORMED,Y,Y,,,10.0,,mg,TABLET,QD,ORAL,35.0,,TREATMENT,2024-04-23,2024-04-23,35,35
BI-1245.110,EC,BI-1245.110-BRA_SITE01-0010,36,EMPAGLIFLOZIN,PERFORMED,Y,Y,,,10.0,,mg,TABLET,QD,ORAL,36.0,,TREATMENT,2024-04-24,2024-04-24,36,36
BI-1245.110,EC,BI-1245.110-BRA_SITE01-0010,37,EMPAGLIFLOZIN,PERFORMED,Y,Y,,,10.0,,mg,TABLET,QD,ORAL,37.0,,TREATMENT,2024-04-25,2024-04-25,37,37
BI-1245.110,EC,BI-1245.110-BRA_SITE01-0010,38,EMPAGLIFLOZIN,PERFORMED,Y,Y,,,10.0,,mg,TABLET,QD,ORAL,38.0,,TREATMENT,2024-04-26,2024-04-26,38,38
BI-1245.110,EC,BI-1245.110-BRA_SITE01-0010,39,EMPAGLIFLOZIN,PERFORMED,Y,Y,,,10.0,,mg,TABLET,QD,ORAL,39.0,,TREATMENT,2024-04-27,2024-04-27,39,39
BI-1245.110,EC,BI-1245.110-BRA_SITE01-0010,40,EMPAGLIFLOZIN,PERFORMED,Y,Y,,,10.0,,mg,TABLET,QD,ORAL,40.0,,TREATMENT,2024-04-28,2024-04-28,40,40
BI-1245.110,EC,BI-1245.110-BRA_SITE01-0010,41,EMPAGLIFLOZIN,PERFORMED,Y,Y,,,10.0,,mg,TABLET,QD,ORAL,41.0,,TREATMENT,2024-04-29,2024-04-29,41,41
BI-1245.110,EC,BI-1245.110-BRA_SITE01-0010,42,EMPAGLIFLOZIN,PERFORMED,Y,Y,,,10.0,,mg,TABLET,QD,ORAL,42.0,,TREATMENT,2024-04-30,2024-04-30,42,42
BI-1245.110,EC,BI-1245.110-BRA_SITE01-0010,43,EMPAGLIFLOZIN,SCHEDULED,Y,,NOT DONE,SUBJECT NON-COMPLIANCE,,,mg,TABLET,QD,ORAL,43.0,,TREATMENT,2024-05-01,2024-05-01,43,43
BI-1245.110,EC,BI-1245.110-BRA_SITE01-0010,44,EMPAGLIFLOZIN,PERFORMED,Y,Y,,,10.0,,mg,TABLET,QD,ORAL,44.0,,TREATMENT,2024-05-02,2024-05-02,44,44
BI-1245.110,EC,BI-1245.110-BRA_SITE01-0010,45,EMPAGLIFLOZIN,PERFORMED,Y,Y,,,10.0,,mg,TABLET,QD,ORAL,45.0,,TREATMENT,2024-05-03,2024-05-03,45,45
BI-1245.110,EC,BI-1245.110-BRA_SITE01-0010,46,EMPAGLIFLOZIN,PERFORMED,Y,Y,,,10.0,,mg,TABLET,QD,ORAL,46.0,,TREATMENT,2024-05-04,2024-05-04,46,46
BI-1245.110,EC,BI-1245.110-BRA_SITE01-0010,47,EMPAGLIFLOZIN,PERFORMED,Y,Y,,,10.0,,mg,TABLET,QD,ORAL,47.0,,TREATMENT,2024-05-05,2024-05-05,47,47
BI-1245.110,EC,BI-1245.110-BRA_SITE01-0010,48,EMPAGLIFLOZIN,PERFORMED,Y,Y,,,10.0,,mg,TABLET,QD,ORAL,48.0,,TREATMENT,2024-05-06,2024-05-06,48,48
BI-1245.110,EC,BI-1245.110-BRA_SITE01-0010,49,EMPAGLIFLOZIN,PERFORMED,Y,Y,,,10.0,,mg,TABLET,QD,ORAL,49.0,,TREATMENT,2024-05-07,2024-05-07,49,49
BI-1245.110,EC,BI-1245.110-BRA_SITE01-0010,50,EMPAGLIFLOZIN,PERFORMED,Y,Y,,,10.0,,mg,TABLET,QD,ORAL,50.0,,TREATMENT,2024-05-08,2024-05-08,50,50
BI-1245.110,EC,BI-1245.110-BRA_SITE01-0010,51,EMPAGLIFLOZIN,PERFORMED,Y,Y,,,10.0,,mg,TABLET,QD,ORAL,51.0,,TREATMENT,2024-05-09,2024-05-09,51,51
BI-1245.110,EC,BI-1245.110-BRA_SITE01-0010,52,EMPAGLIFLOZIN,PERFORMED,Y,Y,,,10.0,,mg,TABLET,QD,ORAL,52.0,,TREATMENT,2024-05-10,2024-05-10,52,52
BI-1245.110,EC,BI-1245.110-BRA_SITE01-0010,53,EMPAGLIFLOZIN,PERFORMED,Y,Y,,,10.0,,mg,TABLET,QD,ORAL,53.0,,TREATMENT,2024-05-11,2024-05-11,53,53
BI-1245.110,EC,BI-1245.110-BRA_SITE01-0010,54,EMPAGLIFLOZIN,PERFORMED,Y,Y,,,10.0,,mg,TABLET,QD,ORAL,54.0,,TREATMENT,2024-05-12,2024-05-12,54,54
BI-1245.110,EC,BI-1245.110-BRA_SITE01-0010,55,EMPAGLIFLOZIN,PERFORMED,Y,Y,,,10.0,,mg,TABLET,QD,ORAL,55.0,,TREATMENT,2024-05-13,2024-05-13,55,55
BI-1245.110,EC,BI-1245.110-BRA_SITE01-0010,56,EMPAGLIFLOZIN,PERFORMED,Y,Y,,,10.0,,mg,TABLET,QD,ORAL,56.0,,TREATMENT,2024-05-14,2024-05-14,56,56
BI-1245.110,EC,BI-1245.110-BRA_SITE01-0010,57,EMPAGLIFLOZIN,PERFORMED,Y,Y,,,10.0,,mg,TABLET,QD,ORAL,57.0,,TREATMENT,2024-05-15,2024-05-15,57,57
BI-1245.110,EC,BI-1245.110-BRA_SITE01-0010,58,EMPAGLIFLOZIN,PERFORMED,Y,Y,,,10.0,,mg,TABLET,QD,ORAL,58.0,,TREATMENT,2024-05-16,2024-05-16,58,58
BI-1245.110,EC,BI-1245.110-BRA_SITE01-0010,59,EMPAGLIFLOZIN,PERFORMED,Y,Y,,,10.0,,mg,TABLET,QD,ORAL,59.0,,TREATMENT,2024-05-17,2024-05-17,59,59
BI-1245.110,EC,BI-1245.110-BRA_SITE01-0010,60,EMPAGLIFLOZIN,PERFORMED,Y,Y,,,10.0,,mg,TABLET,QD,ORAL,60.0,,TREATMENT,2024-05-18,2024-05-18,60,60
BI-1245.110,EC,BI-1245.110-BRA_SITE01-0010,61,EMPAGLIFLOZIN,PERFORMED,Y,Y,,,10.0,,mg,TABLET,QD,ORAL,61.0,,TREATMENT,2024-05-19,2024-05-19,61,61
BI-1245.110,EC,BI-1245.110-BRA_SITE01-0010,62,EMPAGLIFLOZIN,PERFORMED,Y,Y,,,10.0,,mg,TABLET,QD,ORAL,62.0,,TREATMENT,2024-05-20,2024-05-20,62,62
BI-1245.110,EC,BI-1245.110-BRA_SITE01-0010,63,EMPAGLIFLOZIN,SCHEDULED,Y,,NOT DONE,SUBJECT NON-COMPLIANCE,,,mg,TABLET,QD,ORAL,63.0,,TREATMENT,2024-05-21,2024-05-21,63,63
BI-1245.110,EC,BI-1245.110-BRA_SITE01-0010,64,EMPAGLIFLOZIN,PERFORMED,Y,Y,,,10.0,,mg,TABLET,QD,ORAL,64.0,,TREATMENT,2024-05-22,2024-05-22,64,64
BI-1245.110,EC,BI-1245.110-BRA_SITE01-0010,65,EMPAGLIFLOZIN,PERFORMED,Y,Y,,,10.0,,mg,TABLET,QD,ORAL,65.0,,TREATMENT,2024-05-23,2024-05-23,65,65
BI-1245.110,EC,BI-1245.110-BRA_SITE01-0010,66,EMPAGLIFLOZIN,PERFORMED,Y,Y,,,10.0,,mg,TABLET,QD,ORAL,66.0,,TREATMENT,2024-05-24,2024-05-24,66,66
BI-1245.110,EC,BI-1245.110-BRA_SITE01-0010,67,EMPAGLIFLOZIN,PERFORMED,Y,Y,,,10.0,,mg,TABLET,QD,ORAL,67.0,,TREATMENT,2024-05-25,2024-05-25,67,67
BI-1245.110,EC,BI-1245.110-BRA_SITE01-0010,68,EMPAGLIFLOZIN,PERFORMED,Y,Y,,,10.0,,mg,TABLET,QD,ORAL,68.0,,TREATMENT,2024-05-26,2024-05-26,68,68
BI-1245.110,EC,BI-1245.110-BRA_SITE01-0010,69,EMPAGLIFLOZIN,PERFORMED,Y,Y,,,10.0,,mg,TABLET,QD,ORAL,69.0,,TREATMENT,2024-05-27,2024-05-27,69,69
BI-1245.110,EC,BI-1245.110-BRA_SITE01-0010,70,EMPAGLIFLOZIN,PERFORMED,Y,Y,,,10.0,,mg,TABLET,QD,ORAL,70.0,,TREATMENT,2024-05-28,2024-05-28,70,70
BI-1245.110,EC,BI-1245.110-BRA_SITE01-0010,71,EMPAGLIFLOZIN,SCHEDULED,Y,,NOT DONE,SUBJECT NON-COMPLIANCE,,,mg,TABLET,QD,ORAL,71.0,,TREATMENT,2024-05-29,2024-05-29,71,71
BI-1245.110,EC,BI-1245.110-BRA_SITE01-0010,72,EMPAGLIFLOZIN,PERFORMED,Y,Y,,,10.0,,mg,TABLET,QD,ORAL,72.0,,TREATMENT,2024-05-30,2024-05-30,72,72
BI-1245.110,EC,BI-1245.110-BRA_SITE01-0010,73,EMPAGLIFLOZIN,PERFORMED,Y,Y,,,10.0,,mg,TABLET,QD,ORAL,73.0,,TREATMENT,2024-05-31,2024-05-31,73,73
BI-1245.110,EC,BI-1245.110-BRA_SITE01-0010,74,EMPAGLIFLOZIN,PERFORMED,Y,Y,,,10.0,,mg,TABLET,QD,ORAL,74.0,,TREATMENT,2024-06-01,2024-06-01,74,74
BI-1245.110,EC,BI-1245.110-BRA_SITE01-0010,75,EMPAGLIFLOZIN,SCHEDULED,Y,,NOT DONE,SUBJECT NON-COMPLIANCE,,,mg,TABLET,QD,ORAL,75.0,,TREATMENT,2024-06-02,2024-06-02,75,75
BI-1245.110,EC,BI-1245.110-BRA_SITE01-0010,76,EMPAGLIFLOZIN,PERFORMED,Y,Y,,,10.0,,mg,TABLET,QD,ORAL,76.0,,TREATMENT,2024-06-03,2024-06-03,76,76
BI-1245.110,EC,BI-1245.110-BRA_SITE01-0010,77,EMPAGLIFLOZIN,PERFORMED,Y,Y,,,10.0,,mg,TABLET,QD,ORAL,77.0,,TREATMENT,2024-06-04,2024-06-04,77,77
BI-1245.110,EC,BI-1245.110-BRA_SITE01-0010,78,EMPAGLIFLOZIN,PERFORMED,Y,Y,,,10.0,,mg,TABLET,QD,ORAL,78.0,,TREATMENT,2024-06-05,2024-06-05,78,78
BI-1245.110,EC,BI-1245.110-BRA_SITE01-0010,79,EMPAGLIFLOZIN,SCHEDULED,Y,,NOT DONE,SUBJECT NON-COMPLIANCE,,,mg,TABLET,QD,ORAL,79.0,,TREATMENT,2024-06-06,2024-06-06,79,79
BI-1245.110,EC,BI-1245.110-BRA_SITE01-0010,80,EMPAGLIFLOZIN,PERFORMED,Y,Y,,,10.0,,mg,TABLET,QD,ORAL,80.0,,TREATMENT,2024-06-07,2024-06-07,80,80
BI-1245.110,EC,BI-1245.110-BRA_SITE01-0010,81,EMPAGLIFLOZIN,SCHEDULED,Y,,NOT DONE,SUBJECT NON-COMPLIANCE,,,mg,TABLET,QD,ORAL,81.0,,TREATMENT,2024-06-08,2024-06-08,81,81
BI-1245.110,EC,BI-1245.110-BRA_SITE01-0010,82,EMPAGLIFLOZIN,PERFORMED,Y,Y,,,10.0,,mg,TABLET,QD,ORAL,4.0,WEEK 12,TREATMENT,2024-06-09,2024-06-09,82,82
BI-1245.110,EC,BI-1245.110-BRA_SITE01-0010,83,EMPAGLIFLOZIN,PERFORMED,Y,Y,,,10.0,,mg,TABLET,QD,ORAL,4.0,WEEK 12,TREATMENT,2024-06-10,2024-06-10,83,83
BI-1245.110,EC,BI-1245.110-BRA_SITE01-0010,84,EMPAGLIFLOZIN,PERFORMED,Y,Y,,,10.0,,mg,TABLET,QD,ORAL,4.0,WEEK 12,TREATMENT,2024-06-11,2024-06-11,84,84
BI-1245.110,EC,BI-1245.110-BRA_SITE01-0010,85,EMPAGLIFLOZIN,SCHEDULED,Y,,NOT DONE,SUBJECT NON-COMPLIANCE,,,mg,TABLET,QD,ORAL,4.0,WEEK 12,TREATMENT,2024-06-12,2024-06-12,85,85
BI-1245.110,EC,BI-1245.110-BRA_SITE01-0010,86,EMPAGLIFLOZIN,PERFORMED,Y,Y,,,10.0,,mg,TABLET,QD,ORAL,4.0,WEEK 12,TREATMENT,2024-06-13,2024-06-13,86,86
BI-1245.110,EC,BI-1245.110-BRA_SITE01-0010,87,EMPAGLIFLOZIN,PERFORMED,Y,Y,,,10.0,,mg,TABLET,QD,ORAL,4.0,WEEK 12,TREATMENT,2024-06-14,2024-06-14,87,87
BI-1245.110,EC,BI-1245.110-BRA_SITE01-0010,88,EMPAGLIFLOZIN,PERFORMED,Y,Y,,,10.0,,mg,TABLET,QD,ORAL,4.0,WEEK 12,TREATMENT,2024-06-15,2024-06-15,88,88
BI-1245.110,EC,BI-1245.110-BRA_SITE01-0010,89,EMPAGLIFLOZIN,PERFORMED,Y,Y,,,10.0,,mg,TABLET,QD,ORAL,89.0,,TREATMENT,2024-06-16,2024-06-16,89,89
BI-1245.110,EC,BI-1245.110-BRA_SITE01-0010,90,EMPAGLIFLOZIN,SCHEDULED,Y,,NOT DONE,SUBJECT NON-COMPLIANCE,,,mg,TABLET,QD,ORAL,90.0,,TREATMENT,2024-06-17,2024-06-17,90,90
BI-1245.110,EC,BI-1245.110-BRA_SITE01-0010,91,EMPAGLIFLOZIN,PERFORMED,Y,Y,,,10.0,,mg,TABLET,QD,ORAL,91.0,,TREATMENT,2024-06-18,2024-06-18,91,91
BI-1245.110,EC,BI-1245.110-BRA_SITE01-0010,92,EMPAGLIFLOZIN,PERFORMED,Y,Y,,,10.0,,mg,TABLET,QD,ORAL,92.0,,TREATMENT,2024-06-19,2024-06-19,92,92
BI-1245.110,EC,BI-1245.110-BRA_SITE01-0010,93,EMPAGLIFLOZIN,PERFORMED,Y,Y,,,10.0,,mg,TABLET,QD,ORAL,93.0,,TREATMENT,2024-06-20,2024-06-20,93,93
BI-1245.110,EC,BI-1245.110-BRA_SITE01-0010,94,EMPAGLIFLOZIN,PERFORMED,Y,Y,,,10.0,,mg,TABLET,QD,ORAL,94.0,,TREATMENT,2024-06-21,2024-06-21,94,94
BI-1245.110,EC,BI-1245.110-BRA_SITE01-0010,95,EMPAGLIFLOZIN,PERFORMED,Y,Y,,,10.0,,mg,TABLET,QD,ORAL,95.0,,TREATMENT,2024-06-22,2024-06-22,95,95
BI-1245.110,EC,BI-1245.110-BRA_SITE01-0010,96,EMPAGLIFLOZIN,PERFORMED,Y,Y,,,10.0,,mg,TABLET,QD,ORAL,96.0,,TREATMENT,2024-06-23,2024-06-23,96,96
BI-1245.110,EC,BI-1245.110-BRA_SITE01-0010,97,EMPAGLIFLOZIN,PERFORMED,Y,Y,,,10.0,,mg,TABLET,QD,ORAL,97.0,,TREATMENT,2024-06-24,2024-06-24,97,97
BI-1245.110,EC,BI-1245.110-BRA_SITE01-0010,98,EMPAGLIFLOZIN,PERFORMED,Y,Y,,,10.0,,mg,TABLET,QD,ORAL,98.0,,TREATMENT,2024-06-25,2024-06-25,98,98
BI-1245.110,EC,BI-1245.110-BRA_SITE01-0010,99,EMPAGLIFLOZIN,PERFORMED,Y,Y,,,10.0,,mg,TABLET,QD,ORAL,99.0,,TREATMENT,2024-06-26,2024-06-26,99,99
BI-1245.110,EC,BI-1245.110-BRA_SITE01-0010,100,EMPAGLIFLOZIN,PERFORMED,Y,Y,,,10.0,,mg,TABLET,QD,ORAL,100.0,,TREATMENT,2024-06-27,2024-06-27,100,100
BI-1245.110,EC,BI-1245.110-BRA_SITE01-0010,101,EMPAGLIFLOZIN,PERFORMED,Y,Y,,,10.0,,mg,TABLET,QD,ORAL,101.0,,TREATMENT,2024-06-28,2024-06-28,101,101
BI-1245.110,EC,BI-1245.110-BRA_SITE01-0010,102,EMPAGLIFLOZIN,PERFORMED,Y,Y,,,10.0,,mg,TABLET,QD,ORAL,102.0,,TREATMENT,2024-06-29,2024-06-29,102,102
BI-1245.110,EC,BI-1245.110-BRA_SITE01-0010,103,EMPAGLIFLOZIN,PERFORMED,Y,Y,,,10.0,,mg,TABLET,QD,ORAL,103.0,,TREATMENT,2024-06-30,2024-06-30,103,103
BI-1245.110,EC,BI-1245.110-BRA_SITE01-0010,104,EMPAGLIFLOZIN,PERFORMED,Y,Y,,,10.0,,mg,TABLET,QD,ORAL,104.0,,TREATMENT,2024-07-01,2024-07-01,104,104
BI-1245.110,EC,BI-1245.110-BRA_SITE01-0010,105,EMPAGLIFLOZIN,PERFORMED,Y,Y,,,10.0,,mg,TABLET,QD,ORAL,105.0,,TREATMENT,2024-07-02,2024-07-02,105,105
BI-1245.110,EC,BI-1245.110-BRA_SITE01-0010,106,EMPAGLIFLOZIN,PERFORMED,Y,Y,,,10.0,,mg,TABLET,QD,ORAL,106.0,,TREATMENT,2024-07-03,2024-07-03,106,106
BI-1245.110,EC,BI-1245.110-BRA_SITE01-0010,107,EMPAGLIFLOZIN,PERFORMED,Y,Y,,,10.0,,mg,TABLET,QD,ORAL,107.0,,TREATMENT,2024-07-04,2024-07-04,107,107
BI-1245.110,EC,BI-1245.110-BRA_SITE01-0010,108,EMPAGLIFLOZIN,PERFORMED,Y,Y,,,10.0,,mg,TABLET,QD,ORAL,108.0,,TREATMENT,2024-07-05,2024-07-05,108,108
BI-1245.110,EC,BI-1245.110-BRA_SITE01-0010,109,EMPAGLIFLOZIN,SCHEDULED,Y,,NOT DONE,SUBJECT NON-COMPLIANCE,,,mg,TABLET,QD,ORAL,109.0,,TREATMENT,2024-07-06,2024-07-06,109,109
BI-1245.110,EC,BI-1245.110-BRA_SITE01-0010,110,EMPAGLIFLOZIN,SCHEDULED,Y,,NOT DONE,SUBJECT NON-COMPLIANCE,,,mg,TABLET,QD,ORAL,110.0,,TREATMENT,2024-07-07,2024-07-07,110,110
BI-1245.110,EC,BI-1245.110-BRA_SITE01-0010,111,EMPAGLIFLOZIN,PERFORMED,Y,Y,,,10.0,,mg,TABLET,QD,ORAL,111.0,,TREATMENT,2024-07-08,2024-07-08,111,111
BI-1245.110,EC,BI-1245.110-BRA_SITE01-0010,112,EMPAGLIFLOZIN,PERFORMED,Y,Y,,,10.0,,mg,TABLET,QD,ORAL,112.0,,TREATMENT,2024-07-09,2024-07-09,112,112
BI-1245.110,EC,BI-1245.110-BRA_SITE01-0010,113,EMPAGLIFLOZIN,PERFORMED,Y,Y,,,10.0,,mg,TABLET,QD,ORAL,113.0,,TREATMENT,2024-07-10,2024-07-10,113,113
BI-1245.110,EC,BI-1245.110-BRA_SITE01-0010,114,EMPAGLIFLOZIN,PERFORMED,Y,Y,,,10.0,,mg,TABLET,QD,ORAL,114.0,,TREATMENT,2024-07-11,2024-07-11,114,114
BI-1245.110,EC,BI-1245.110-BRA_SITE01-0010,115,EMPAGLIFLOZIN,PERFORMED,Y,Y,,,10.0,,mg,TABLET,QD,ORAL,115.0,,TREATMENT,2024-07-12,2024-07-12,115,115
BI-1245.110,EC,BI-1245.110-BRA_SITE01-0010,116,EMPAGLIFLOZIN,PERFORMED,Y,Y,,,10.0,,mg,TABLET,QD,ORAL,116.0,,TREATMENT,2024-07-13,2024-07-13,116,116
BI-1245.110,EC,BI-1245.110-BRA_SITE01-0010,117,EMPAGLIFLOZIN,PERFORMED,Y,Y,,,10.0,,mg,TABLET,QD,ORAL,117.0,,TREATMENT,2024-07-14,2024-07-14,117,117
BI-1245.110,EC,BI-1245.110-BRA_SITE01-0010,118,EMPAGLIFLOZIN,PERFORMED,Y,Y,,,10.0,,mg,TABLET,QD,ORAL,118.0,,TREATMENT,2024-07-15,2024-07-15,118,118
BI-1245.110,EC,BI-1245.110-BRA_SITE01-0010,119,EMPAGLIFLOZIN,PERFORMED,Y,Y,,,10.0,,mg,TABLET,QD,ORAL,119.0,,TREATMENT,2024-07-16,2024-07-16,119,119
BI-1245.110,EC,BI-1245.110-BRA_SITE01-0010,120,EMPAGLIFLOZIN,PERFORMED,Y,Y,,,10.0,,mg,TABLET,QD,ORAL,120.0,,TREATMENT,2024-07-17,2024-07-17,120,120
BI-1245.110,EC,BI-1245.110-BRA_SITE01-0010,121,EMPAGLIFLOZIN,PERFORMED,Y,Y,,,10.0,,mg,TABLET,QD,ORAL,121.0,,TREATMENT,2024-07-18,2024-07-18,121,121
BI-1245.110,EC,BI-1245.110-BRA_SITE01-0010,122,EMPAGLIFLOZIN,SCHEDULED,Y,,NOT DONE,SUBJECT NON-COMPLIANCE,,,mg,TABLET,QD,ORAL,122.0,,TREATMENT,2024-07-19,2024-07-19,122,122
BI-1245.110,EC,BI-1245.110-BRA_SITE01-0010,123,EMPAGLIFLOZIN,PERFORMED,Y,Y,,,10.0,,mg,TABLET,QD,ORAL,123.0,,TREATMENT,2024-07-20,2024-07-20,123,123
BI-1245.110,EC,BI-1245.110-BRA_SITE01-0010,124,EMPAGLIFLOZIN,SCHEDULED,Y,,NOT DONE,SUBJECT NON-COMPLIANCE,,,mg,TABLET,QD,ORAL,124.0,,TREATMENT,2024-07-21,2024-07-21,124,124
BI-1245.110,EC,BI-1245.110-BRA_SITE01-0010,125,EMPAGLIFLOZIN,PERFORMED,Y,Y,,,10.0,,mg,TABLET,QD,ORAL,125.0,,TREATMENT,2024-07-22,2024-07-22,125,125
BI-1245.110,EC,BI-1245.110-BRA_SITE01-0010,126,EMPAGLIFLOZIN,PERFORMED,Y,Y,,,10.0,,mg,TABLET,QD,ORAL,126.0,,TREATMENT,2024-07-23,2024-07-23,126,126
BI-1245.110,EC,BI-1245.110-BRA_SITE01-0010,127,EMPAGLIFLOZIN,PERFORMED,Y,Y,,,10.0,,mg,TABLET,QD,ORAL,127.0,,TREATMENT,2024-07-24,2024-07-24,127,127
BI-1245.110,EC,BI-1245.110-BRA_SITE01-0010,128,EMPAGLIFLOZIN,SCHEDULED,Y,,NOT DONE,SUBJECT NON-COMPLIANCE,,,mg,TABLET,QD,ORAL,128.0,,TREATMENT,2024-07-25,2024-07-25,128,128
BI-1245.110,EC,BI-1245.110-BRA_SITE01-0010,129,EMPAGLIFLOZIN,PERFORMED,Y,Y,,,10.0,,mg,TABLET,QD,ORAL,129.0,,TREATMENT,2024-07-26,2024-07-26,129,129
BI-1245.110,EC,BI-1245.110-BRA_SITE01-0010,130,EMPAGLIFLOZIN,PERFORMED,Y,Y,,,10.0,,mg,TABLET,QD,ORAL,130.0,,TREATMENT,2024-07-27,2024-07-27,130,130
BI-1245.110,EC,BI-1245.110-BRA_SITE01-0010,131,EMPAGLIFLOZIN,PERFORMED,Y,Y,,,10.0,,mg,TABLET,QD,ORAL,131.0,,TREATMENT,2024-07-28,2024-07-28,131,131
BI-1245.110,EC,BI-1245.110-BRA_SITE01-0010,132,EMPAGLIFLOZIN,SCHEDULED,Y,,NOT DONE,SUBJECT NON-COMPLIANCE,,,mg,TABLET,QD,ORAL,132.0,,TREATMENT,2024-07-29,2024-07-29,132,132
BI-1245.110,EC,BI-1245.110-BRA_SITE01-0010,133,EMPAGLIFLOZIN,PERFORMED,Y,Y,,,10.0,,mg,TABLET,QD,ORAL,133.0,,TREATMENT,2024-07-30,2024-07-30,133,133
BI-1245.110,EC,BI-1245.110-BRA_SITE01-0010,134,EMPAGLIFLOZIN,PERFORMED,Y,Y,,,10.0,,mg,TABLET,QD,ORAL,134.0,,TREATMENT,2024-07-31,2024-07-31,134,134
BI-1245.110,EC,BI-1245.110-BRA_SITE01-0010,135,EMPAGLIFLOZIN,PERFORMED,Y,Y,,,10.0,,mg,TABLET,QD,ORAL,135.0,,TREATMENT,2024-08-01,2024-08-01,135,135
BI-1245.110,EC,BI-1245.110-BRA_SITE01-0010,136,EMPAGLIFLOZIN,PERFORMED,Y,Y,,,10.0,,mg,TABLET,QD,ORAL,136.0,,TREATMENT,2024-08-02,2024-08-02,136,136
BI-1245.110,EC,BI-1245.110-BRA_SITE01-0010,137,EMPAGLIFLOZIN,PERFORMED,Y,Y,,,10.0,,mg,TABLET,QD,ORAL,137.0,,TREATMENT,2024-08-03,2024-08-03,137,137
BI-1245.110,EC,BI-1245.110-BRA_SITE01-0010,138,EMPAGLIFLOZIN,PERFORMED,Y,Y,,,10.0,,mg,TABLET,QD,ORAL,138.0,,TREATMENT,2024-08-04,2024-08-04,138,138
BI-1245.110,EC,BI-1245.110-BRA_SITE01-0010,139,EMPAGLIFLOZIN,PERFORMED,Y,Y,,,10.0,,mg,TABLET,QD,ORAL,139.0,,TREATMENT,2024-08-05,2024-08-05,139,139
BI-1245.110,EC,BI-1245.110-BRA_SITE01-0010,140,EMPAGLIFLOZIN,PERFORMED,Y,Y,,,10.0,,mg,TABLET,QD,ORAL,140.0,,TREATMENT,2024-08-06,2024-08-06,140,140
BI-1245.110,EC,BI-1245.110-BRA_SITE01-0010,141,EMPAGLIFLOZIN,PERFORMED,Y,Y,,,10.0,,mg,TABLET,QD,ORAL,141.0,,TREATMENT,2024-08-07,2024-08-07,141,141
BI-1245.110,EC,BI-1245.110-BRA_SITE01-0010,142,EMPAGLIFLOZIN,PERFORMED,Y,Y,,,10.0,,mg,TABLET,QD,ORAL,142.0,,TREATMENT,2024-08-08,2024-08-08,142,142
BI-1245.110,EC,BI-1245.110-BRA_SITE01-0010,143,EMPAGLIFLOZIN,SCHEDULED,Y,,NOT DONE,SUBJECT NON-COMPLIANCE,,,mg,TABLET,QD,ORAL,143.0,,TREATMENT,2024-08-09,2024-08-09,143,143
BI-1245.110,EC,BI-1245.110-BRA_SITE01-0010,144,EMPAGLIFLOZIN,PERFORMED,Y,Y,,,10.0,,mg,TABLET,QD,ORAL,144.0,,TREATMENT,2024-08-10,2024-08-10,144,144
BI-1245.110,EC,BI-1245.110-BRA_SITE01-0010,145,EMPAGLIFLOZIN,PERFORMED,Y,Y,,,10.0,,mg,TABLET,QD,ORAL,145.0,,TREATMENT,2024-08-11,2024-08-11,145,145
BI-1245.110,EC,BI-1245.110-BRA_SITE01-0010,146,EMPAGLIFLOZIN,SCHEDULED,Y,,NOT DONE,SUBJECT NON-COMPLIANCE,,,mg,TABLET,QD,ORAL,146.0,,TREATMENT,2024-08-12,2024-08-12,146,146
BI-1245.110,EC,BI-1245.110-BRA_SITE01-0010,147,EMPAGLIFLOZIN,PERFORMED,Y,Y,,,10.0,,mg,TABLET,QD,ORAL,147.0,,TREATMENT,2024-08-13,2024-08-13,147,147
BI-1245.110,EC,BI-1245.110-BRA_SITE01-0010,148,EMPAGLIFLOZIN,PERFORMED,Y,Y,,,10.0,,mg,TABLET,QD,ORAL,148.0,,TREATMENT,2024-08-14,2024-08-14,148,148
BI-1245.110,EC,BI-1245.110-BRA_SITE01-0010,149,EMPAGLIFLOZIN,PERFORMED,Y,Y,,,10.0,,mg,TABLET,QD,ORAL,149.0,,TREATMENT,2024-08-15,2024-08-15,149,149
BI-1245.110,EC,BI-1245.110-BRA_SITE01-0010,150,EMPAGLIFLOZIN,PERFORMED,Y,Y,,,10.0,,mg,TABLET,QD,ORAL,150.0,,TREATMENT,2024-08-16,2024-08-16,150,150
BI-1245.110,EC,BI-1245.110-BRA_SITE01-0010,151,EMPAGLIFLOZIN,PERFORMED,Y,Y,,,10.0,,mg,TABLET,QD,ORAL,151.0,,TREATMENT,2024-08-17,2024-08-17,151,151
BI-1245.110,EC,BI-1245.110-BRA_SITE01-0010,152,EMPAGLIFLOZIN,PERFORMED,Y,Y,,,10.0,,mg,TABLET,QD,ORAL,152.0,,TREATMENT,2024-08-18,2024-08-18,152,152
BI-1245.110,EC,BI-1245.110-BRA_SITE01-0010,153,EMPAGLIFLOZIN,PERFORMED,Y,Y,,,10.0,,mg,TABLET,QD,ORAL,153.0,,TREATMENT,2024-08-19,2024-08-19,153,153
BI-1245.110,EC,BI-1245.110-BRA_SITE01-0010,154,EMPAGLIFLOZIN,PERFORMED,Y,Y,,,10.0,,mg,TABLET,QD,ORAL,154.0,,TREATMENT,2024-08-20,2024-08-20,154,154
BI-1245.110,EC,BI-1245.110-BRA_SITE01-0010,155,EMPAGLIFLOZIN,PERFORMED,Y,Y,,,10.0,,mg,TABLET,QD,ORAL,155.0,,TREATMENT,2024-08-21,2024-08-21,155,155
BI-1245.110,EC,BI-1245.110-BRA_SITE01-0010,156,EMPAGLIFLOZIN,PERFORMED,Y,Y,,,10.0,,mg,TABLET,QD,ORAL,156.0,,TREATMENT,2024-08-22,2024-08-22,156,156
BI-1245.110,EC,BI-1245.110-BRA_SITE01-0010,157,EMPAGLIFLOZIN,PERFORMED,Y,Y,,,10.0,,mg,TABLET,QD,ORAL,157.0,,TREATMENT,2024-08-23,2024-08-23,157,157
BI-1245.110,EC,BI-1245.110-BRA_SITE01-0010,158,EMPAGLIFLOZIN,PERFORMED,Y,Y,,,10.0,,mg,TABLET,QD,ORAL,158.0,,TREATMENT,2024-08-24,2024-08-24,158,158
BI-1245.110,EC,BI-1245.110-BRA_SITE01-0010,159,EMPAGLIFLOZIN,PERFORMED,Y,Y,,,10.0,,mg,TABLET,QD,ORAL,159.0,,TREATMENT,2024-08-25,2024-08-25,159,159
BI-1245.110,EC,BI-1245.110-BRA_SITE01-0010,160,EMPAGLIFLOZIN,PERFORMED,Y,Y,,,10.0,,mg,TABLET,QD,ORAL,160.0,,TREATMENT,2024-08-26,2024-08-26,160,160
BI-1245.110,EC,BI-1245.110-BRA_SITE01-0010,161,EMPAGLIFLOZIN,PERFORMED,Y,Y,,,10.0,,mg,TABLET,QD,ORAL,161.0,,TREATMENT,2024-08-27,2024-08-27,161,161
BI-1245.110,EC,BI-1245.110-BRA_SITE01-0010,162,EMPAGLIFLOZIN,PERFORMED,Y,Y,,,10.0,,mg,TABLET,QD,ORAL,162.0,,TREATMENT,2024-08-28,2024-08-28,162,162
BI-1245.110,EC,BI-1245.110-BRA_SITE01-0010,163,EMPAGLIFLOZIN,PERFORMED,Y,Y,,,10.0,,mg,TABLET,QD,ORAL,163.0,,TREATMENT,2024-08-29,2024-08-29,163,163
BI-1245.110,EC,BI-1245.110-BRA_SITE01-0010,164,EMPAGLIFLOZIN,PERFORMED,Y,Y,,,10.0,,mg,TABLET,QD,ORAL,164.0,,TREATMENT,2024-08-30,2024-08-30,164,164
BI-1245.110,EC,BI-1245.110-BRA_SITE01-0010,165,EMPAGLIFLOZIN,PERFORMED,Y,Y,,,10.0,,mg,TABLET,QD,ORAL,165.0,,TREATMENT,2024-08-31,2024-08-31,165,165
BI-1245.110,EC,BI-1245.110-BRA_SITE01-0010,166,EMPAGLIFLOZIN,PERFORMED,Y,Y,,,10.0,,mg,TABLET,QD,ORAL,166.0,,TREATMENT,2024-09-01,2024-09-01,166,166
BI-1245.110,EC,BI-1245.110-BRA_SITE01-0010,167,EMPAGLIFLOZIN,PERFORMED,Y,Y,,,10.0,,mg,TABLET,QD,ORAL,167.0,,TREATMENT,2024-09-02,2024-09-02,167,167
BI-1245.110,EC,BI-1245.110-BRA_SITE01-0010,168,EMPAGLIFLOZIN,PERFORMED,Y,Y,,,10.0,,mg,TABLET,QD,ORAL,168.0,,TREATMENT,2024-09-03,2024-09-03,168,168
BI-1245.110,EC,BI-1245.110-BRA_SITE01-0010,169,EMPAGLIFLOZIN,PERFORMED,Y,Y,,,10.0,,mg,TABLET,QD,ORAL,169.0,,TREATMENT,2024-09-04,2024-09-04,169,169
BI-1245.110,EC,BI-1245.110-BRA_SITE01-0010,170,EMPAGLIFLOZIN,PERFORMED,Y,Y,,,10.0,,mg,TABLET,QD,ORAL,170.0,,TREATMENT,2024-09-05,2024-09-05,170,170
BI-1245.110,EC,BI-1245.110-BRA_SITE01-0010,171,EMPAGLIFLOZIN,PERFORMED,Y,Y,,,10.0,,mg,TABLET,QD,ORAL,171.0,,TREATMENT,2024-09-06,2024-09-06,171,171
BI-1245.110,EC,BI-1245.110-BRA_SITE01-0010,172,EMPAGLIFLOZIN,PERFORMED,Y,Y,,,10.0,,mg,TABLET,QD,ORAL,172.0,,TREATMENT,2024-09-07,2024-09-07,172,172
BI-1245.110,EC,BI-1245.110-BRA_SITE01-0010,173,EMPAGLIFLOZIN,PERFORMED,Y,Y,,,10.0,,mg,TABLET,QD,ORAL,173.0,,TREATMENT,2024-09-08,2024-09-08,173,173
BI-1245.110,EC,BI-1245.110-BRA_SITE01-0010,174,EMPAGLIFLOZIN,PERFORMED,Y,Y,,,10.0,,mg,TABLET,QD,ORAL,174.0,,TREATMENT,2024-09-09,2024-09-09,174,174
BI-1245.110,EC,BI-1245.110-BRA_SITE01-0010,175,EMPAGLIFLOZIN,PERFORMED,Y,Y,,,10.0,,mg,TABLET,QD,ORAL,175.0,,TREATMENT,2024-09-10,2024-09-10,175,175
BI-1245.110,EC,BI-1245.110-BRA_SITE01-0010,176,EMPAGLIFLOZIN,PERFORMED,Y,Y,,,10.0,,mg,TABLET,QD,ORAL,176.0,,TREATMENT,2024-09-11,2024-09-11,176,176
BI-1245.110,EC,BI-1245.110-BRA_SITE01-0010,177,EMPAGLIFLOZIN,PERFORMED,Y,Y,,,10.0,,mg,TABLET,QD,ORAL,177.0,,TREATMENT,2024-09-12,2024-09-12,177,177
BI-1245.110,EC,BI-1245.110-BRA_SITE01-0010,178,EMPAGLIFLOZIN,SCHEDULED,Y,,NOT DONE,SUBJECT NON-COMPLIANCE,,,mg,TABLET,QD,ORAL,178.0,,TREATMENT,2024-09-13,2024-09-13,178,178
BI-1245.110,EC,BI-1245.110-BRA_SITE01-0010,179,EMPAGLIFLOZIN,PERFORMED,Y,Y,,,10.0,,mg,TABLET,QD,ORAL,179.0,,TREATMENT,2024-09-14,2024-09-14,179,179
BI-1245.110,EC,BI-1245.110-BRA_SITE01-0010,180,EMPAGLIFLOZIN,PERFORMED,Y,Y,,,10.0,,mg,TABLET,QD,ORAL,5.0,MONTH 6,TREATMENT,2024-09-15,2024-09-15,180,180
BI-1245.110,EC,BI-1245.110-BRA_SITE01-0010,181,EMPAGLIFLOZIN,PERFORMED,Y,Y,,,10.0,,mg,TABLET,QD,ORAL,5.0,MONTH 6,TREATMENT,2024-09-16,2024-09-16,181,181
BI-1245.110,EC,BI-1245.110-BRA_SITE01-0010,182,EMPAGLIFLOZIN,PERFORMED,Y,Y,,,10.0,,mg,TABLET,QD,ORAL,5.0,MONTH 6,TREATMENT,2024-09-17,2024-09-17,182,182
BI-1245.110,EC,BI-1245.110-BRA_SITE01-0010,183,EMPAGLIFLOZIN,SCHEDULED,Y,,NOT DONE,SUBJECT NON-COMPLIANCE,,,mg,TABLET,QD,ORAL,5.0,MONTH 6,TREATMENT,2024-09-18,2024-09-18,183,183
BI-1245.110,EC,BI-1245.110-BRA_SITE01-0010,184,EMPAGLIFLOZIN,PERFORMED,Y,Y,,,10.0,,mg,TABLET,QD,ORAL,5.0,MONTH 6,TREATMENT,2024-09-19,2024-09-19,184,184
BI-1245.110,EC,BI-1245.110-BRA_SITE01-0010,185,EMPAGLIFLOZIN,PERFORMED,Y,Y,,,10.0,,mg,TABLET,QD,ORAL,5.0,MONTH 6,TREATMENT,2024-09-20,2024-09-20,185,185
BI-1245.110,EC,BI-1245.110-BRA_SITE01-0010,186,EMPAGLIFLOZIN,PERFORMED,Y,Y,,,10.0,,mg,TABLET,QD,ORAL,5.0,MONTH 6,TREATMENT,2024-09-21,2024-09-21,186,186
BI-1245.110,EC,BI-1245.110-BRA_SITE01-0010,187,EMPAGLIFLOZIN,PERFORMED,Y,Y,,,10.0,,mg,TABLET,QD,ORAL,187.0,,TREATMENT,2024-09-22,2024-09-22,187,187
BI-1245.110,EC,BI-1245.110-BRA_SITE01-0010,188,EMPAGLIFLOZIN,SCHEDULED,Y,,NOT DONE,SUBJECT NON-COMPLIANCE,,,mg,TABLET,QD,ORAL,188.0,,TREATMENT,2024-09-23,2024-09-23,188,188
BI-1245.110,EC,BI-1245.110-BRA_SITE01-0010,189,EMPAGLIFLOZIN,SCHEDULED,Y,,NOT DONE,SUBJECT NON-COMPLIANCE,,,mg,TABLET,QD,ORAL,189.0,,TREATMENT,2024-09-24,2024-09-24,189,189
BI-1245.110,EC,BI-1245.110-BRA_SITE01-0010,190,EMPAGLIFLOZIN,PERFORMED,Y,Y,,,10.0,,mg,TABLET,QD,ORAL,190.0,,TREATMENT,2024-09-25,2024-09-25,190,190
BI-1245.110,EC,BI-1245.110-BRA_SITE01-0010,191,EMPAGLIFLOZIN,SCHEDULED,Y,,NOT DONE,SUBJECT NON-COMPLIANCE,,,mg,TABLET,QD,ORAL,191.0,,TREATMENT,2024-09-26,2024-09-26,191,191
BI-1245.110,EC,BI-1245.110-BRA_SITE01-0010,192,EMPAGLIFLOZIN,PERFORMED,Y,Y,,,10.0,,mg,TABLET,QD,ORAL,192.0,,TREATMENT,2024-09-27,2024-09-27,192,192
BI-1245.110,EC,BI-1245.110-BRA_SITE01-0010,193,EMPAGLIFLOZIN,PERFORMED,Y,Y,,,10.0,,mg,TABLET,QD,ORAL,193.0,,TREATMENT,2024-09-28,2024-09-28,193,193
BI-1245.110,EC,BI-1245.110-BRA_SITE01-0010,194,EMPAGLIFLOZIN,PERFORMED,Y,Y,,,10.0,,mg,TABLET,QD,ORAL,194.0,,TREATMENT,2024-09-29,2024-09-29,194,194
BI-1245.110,EC,BI-1245.110-BRA_SITE01-0010,195,EMPAGLIFLOZIN,PERFORMED,Y,Y,,,10.0,,mg,TABLET,QD,ORAL,195.0,,TREATMENT,2024-09-30,2024-09-30,195,195
BI-1245.110,EC,BI-1245.110-BRA_SITE01-0010,196,EMPAGLIFLOZIN,PERFORMED,Y,Y,,,10.0,,mg,TABLET,QD,ORAL,196.0,,TREATMENT,2024-10-01,2024-10-01,196,196
BI-1245.110,EC,BI-1245.110-BRA_SITE01-0010,197,EMPAGLIFLOZIN,PERFORMED,Y,Y,,,10.0,,mg,TABLET,QD,ORAL,197.0,,TREATMENT,2024-10-02,2024-10-02,197,197
BI-1245.110,EC,BI-1245.110-BRA_SITE01-0010,198,EMPAGLIFLOZIN,PERFORMED,Y,Y,,,10.0,,mg,TABLET,QD,ORAL,198.0,,TREATMENT,2024-10-03,2024-10-03,198,198
BI-1245.110,EC,BI-1245.110-BRA_SITE01-0010,199,EMPAGLIFLOZIN,PERFORMED,Y,Y,,,10.0,,mg,TABLET,QD,ORAL,199.0,,TREATMENT,2024-10-04,2024-10-04,199,199
BI-1245.110,EC,BI-1245.110-BRA_SITE01-0010,200,EMPAGLIFLOZIN,PERFORMED,Y,Y,,,10.0,,mg,TABLET,QD,ORAL,200.0,,TREATMENT,2024-10-05,2024-10-05,200,200
BI-1245.110,EC,BI-1245.110-BRA_SITE01-0010,201,EMPAGLIFLOZIN,PERFORMED,Y,Y,,,10.0,,mg,TABLET,QD,ORAL,201.0,,TREATMENT,2024-10-06,2024-10-06,201,201
BI-1245.110,EC,BI-1245.110-BRA_SITE01-0010,202,EMPAGLIFLOZIN,PERFORMED,Y,Y,,,10.0,,mg,TABLET,QD,ORAL,202.0,,TREATMENT,2024-10-07,2024-10-07,202,202
BI-1245.110,EC,BI-1245.110-BRA_SITE01-0010,203,EMPAGLIFLOZIN,SCHEDULED,Y,,NOT DONE,SUBJECT NON-COMPLIANCE,,,mg,TABLET,QD,ORAL,203.0,,TREATMENT,2024-10-08,2024-10-08,203,203
BI-1245.110,EC,BI-1245.110-BRA_SITE01-0010,204,EMPAGLIFLOZIN,PERFORMED,Y,Y,,,10.0,,mg,TABLET,QD,ORAL,204.0,,TREATMENT,2024-10-09,2024-10-09,204,204
BI-1245.110,EC,BI-1245.110-BRA_SITE01-0010,205,EMPAGLIFLOZIN,PERFORMED,Y,Y,,,10.0,,mg,TABLET,QD,ORAL,205.0,,TREATMENT,2024-10-10,2024-10-10,205,205
BI-1245.110,EC,BI-1245.110-BRA_SITE01-0010,206,EMPAGLIFLOZIN,PERFORMED,Y,Y,,,10.0,,mg,TABLET,QD,ORAL,206.0,,TREATMENT,2024-10-11,2024-10-11,206,206
BI-1245.110,EC,BI-1245.110-BRA_SITE01-0010,207,EMPAGLIFLOZIN,PERFORMED,Y,Y,,,10.0,,mg,TABLET,QD,ORAL,207.0,,TREATMENT,2024-10-12,2024-10-12,207,207
BI-1245.110,EC,BI-1245.110-BRA_SITE01-0010,208,EMPAGLIFLOZIN,PERFORMED,Y,Y,,,10.0,,mg,TABLET,QD,ORAL,208.0,,TREATMENT,2024-10-13,2024-10-13,208,208
BI-1245.110,EC,BI-1245.110-BRA_SITE01-0010,209,EMPAGLIFLOZIN,PERFORMED,Y,Y,,,10.0,,mg,TABLET,QD,ORAL,209.0,,TREATMENT,2024-10-14,2024-10-14,209,209
BI-1245.110,EC,BI-1245.110-BRA_SITE01-0010,210,EMPAGLIFLOZIN,PERFORMED,Y,Y,,,10.0,,mg,TABLET,QD,ORAL,210.0,,TREATMENT,2024-10-15,2024-10-15,210,210
BI-1245.110,EC,BI-1245.110-BRA_SITE01-0010,211,EMPAGLIFLOZIN,PERFORMED,Y,Y,,,10.0,,mg,TABLET,QD,ORAL,211.0,,TREATMENT,2024-10-16,2024-10-16,211,211
BI-1245.110,EC,BI-1245.110-BRA_SITE01-0010,212,EMPAGLIFLOZIN,SCHEDULED,Y,,NOT DONE,SUBJECT NON-COMPLIANCE,,,mg,TABLET,QD,ORAL,212.0,,TREATMENT,2024-10-17,2024-10-17,212,212
BI-1245.110,EC,BI-1245.110-BRA_SITE01-0010,213,EMPAGLIFLOZIN,PERFORMED,Y,Y,,,10.0,,mg,TABLET,QD,ORAL,213.0,,TREATMENT,2024-10-18,2024-10-18,213,213
BI-1245.110,EC,BI-1245.110-BRA_SITE01-0010,214,EMPAGLIFLOZIN,PERFORMED,Y,Y,,,10.0,,mg,TABLET,QD,ORAL,214.0,,TREATMENT,2024-10-19,2024-10-19,214,214
BI-1245.110,EC,BI-1245.110-BRA_SITE01-0010,215,EMPAGLIFLOZIN,PERFORMED,Y,Y,,,10.0,,mg,TABLET,QD,ORAL,215.0,,TREATMENT,2024-10-20,2024-10-20,215,215
BI-1245.110,EC,BI-1245.110-BRA_SITE01-0010,216,EMPAGLIFLOZIN,PERFORMED,Y,Y,,,10.0,,mg,TABLET,QD,ORAL,216.0,,TREATMENT,2024-10-21,2024-10-21,216,216
BI-1245.110,EC,BI-1245.110-BRA_SITE01-0010,217,EMPAGLIFLOZIN,PERFORMED,Y,Y,,,10.0,,mg,TABLET,QD,ORAL,217.0,,TREATMENT,2024-10-22,2024-10-22,217,217
BI-1245.110,EC,BI-1245.110-BRA_SITE01-0010,218,EMPAGLIFLOZIN,PERFORMED,Y,Y,,,10.0,,mg,TABLET,QD,ORAL,218.0,,TREATMENT,2024-10-23,2024-10-23,218,218
BI-1245.110,EC,BI-1245.110-BRA_SITE01-0010,219,EMPAGLIFLOZIN,PERFORMED,Y,Y,,,10.0,,mg,TABLET,QD,ORAL,219.0,,TREATMENT,2024-10-24,2024-10-24,219,219
BI-1245.110,EC,BI-1245.110-BRA_SITE01-0010,220,EMPAGLIFLOZIN,PERFORMED,Y,Y,,,10.0,,mg,TABLET,QD,ORAL,220.0,,TREATMENT,2024-10-25,2024-10-25,220,220
BI-1245.110,EC,BI-1245.110-BRA_SITE01-0010,221,EMPAGLIFLOZIN,PERFORMED,Y,Y,,,10.0,,mg,TABLET,QD,ORAL,221.0,,TREATMENT,2024-10-26,2024-10-26,221,221
BI-1245.110,EC,BI-1245.110-BRA_SITE01-0010,222,EMPAGLIFLOZIN,PERFORMED,Y,Y,,,10.0,,mg,TABLET,QD,ORAL,222.0,,TREATMENT,2024-10-27,2024-10-27,222,222
BI-1245.110,EC,BI-1245.110-BRA_SITE01-0010,223,EMPAGLIFLOZIN,PERFORMED,Y,Y,,,10.0,,mg,TABLET,QD,ORAL,223.0,,TREATMENT,2024-10-28,2024-10-28,223,223
BI-1245.110,EC,BI-1245.110-BRA_SITE01-0010,224,EMPAGLIFLOZIN,SCHEDULED,Y,,NOT DONE,SUBJECT NON-COMPLIANCE,,,mg,TABLET,QD,ORAL,224.0,,TREATMENT,2024-10-29,2024-10-29,224,224
BI-1245.110,EC,BI-1245.110-BRA_SITE01-0010,225,EMPAGLIFLOZIN,PERFORMED,Y,Y,,,10.0,,mg,TABLET,QD,ORAL,225.0,,TREATMENT,2024-10-30,2024-10-30,225,225
BI-1245.110,EC,BI-1245.110-BRA_SITE01-0010,226,EMPAGLIFLOZIN,PERFORMED,Y,Y,,,10.0,,mg,TABLET,QD,ORAL,226.0,,TREATMENT,2024-10-31,2024-10-31,226,226
BI-1245.110,EC,BI-1245.110-BRA_SITE01-0010,227,EMPAGLIFLOZIN,SCHEDULED,Y,,NOT DONE,SUBJECT NON-COMPLIANCE,,,mg,TABLET,QD,ORAL,227.0,,TREATMENT,2024-11-01,2024-11-01,227,227
BI-1245.110,EC,BI-1245.110-BRA_SITE01-0010,228,EMPAGLIFLOZIN,PERFORMED,Y,Y,,,10.0,,mg,TABLET,QD,ORAL,228.0,,TREATMENT,2024-11-02,2024-11-02,228,228
BI-1245.110,EC,BI-1245.110-BRA_SITE01-0010,229,EMPAGLIFLOZIN,PERFORMED,Y,Y,,,10.0,,mg,TABLET,QD,ORAL,229.0,,TREATMENT,2024-11-03,2024-11-03,229,229
BI-1245.110,EC,BI-1245.110-BRA_SITE01-0010,230,EMPAGLIFLOZIN,PERFORMED,Y,Y,,,10.0,,mg,TABLET,QD,ORAL,230.0,,TREATMENT,2024-11-04,2024-11-04,230,230
BI-1245.110,EC,BI-1245.110-BRA_SITE01-0010,231,EMPAGLIFLOZIN,PERFORMED,Y,Y,,,10.0,,mg,TABLET,QD,ORAL,231.0,,TREATMENT,2024-11-05,2024-11-05,231,231
BI-1245.110,EC,BI-1245.110-BRA_SITE01-0010,232,EMPAGLIFLOZIN,PERFORMED,Y,Y,,,10.0,,mg,TABLET,QD,ORAL,232.0,,TREATMENT,2024-11-06,2024-11-06,232,232
BI-1245.110,EC,BI-1245.110-BRA_SITE01-0010,233,EMPAGLIFLOZIN,SCHEDULED,Y,,NOT DONE,SUBJECT NON-COMPLIANCE,,,mg,TABLET,QD,ORAL,233.0,,TREATMENT,2024-11-07,2024-11-07,233,233
BI-1245.110,EC,BI-1245.110-BRA_SITE01-0010,234,EMPAGLIFLOZIN,PERFORMED,Y,Y,,,10.0,,mg,TABLET,QD,ORAL,234.0,,TREATMENT,2024-11-08,2024-11-08,234,234
BI-1245.110,EC,BI-1245.110-BRA_SITE01-0010,235,EMPAGLIFLOZIN,PERFORMED,Y,Y,,,10.0,,mg,TABLET,QD,ORAL,235.0,,TREATMENT,2024-11-09,2024-11-09,235,235
BI-1245.110,EC,BI-1245.110-BRA_SITE01-0010,236,EMPAGLIFLOZIN,SCHEDULED,Y,,NOT DONE,SUBJECT NON-COMPLIANCE,,,mg,TABLET,QD,ORAL,236.0,,TREATMENT,2024-11-10,2024-11-10,236,236
BI-1245.110,EC,BI-1245.110-BRA_SITE01-0010,237,EMPAGLIFLOZIN,PERFORMED,Y,Y,,,10.0,,mg,TABLET,QD,ORAL,237.0,,TREATMENT,2024-11-11,2024-11-11,237,237
BI-1245.110,EC,BI-1245.110-BRA_SITE01-0010,238,EMPAGLIFLOZIN,PERFORMED,Y,Y,,,10.0,,mg,TABLET,QD,ORAL,238.0,,TREATMENT,2024-11-12,2024-11-12,238,238
BI-1245.110,EC,BI-1245.110-BRA_SITE01-0010,239,EMPAGLIFLOZIN,PERFORMED,Y,Y,,,10.0,,mg,TABLET,QD,ORAL,239.0,,TREATMENT,2024-11-13,2024-11-13,239,239
BI-1245.110,EC,BI-1245.110-BRA_SITE01-0010,240,EMPAGLIFLOZIN,PERFORMED,Y,Y,,,10.0,,mg,TABLET,QD,ORAL,240.0,,TREATMENT,2024-11-14,2024-11-14,240,240
BI-1245.110,EC,BI-1245.110-BRA_SITE01-0010,241,EMPAGLIFLOZIN,PERFORMED,Y,Y,,,10.0,,mg,TABLET,QD,ORAL,241.0,,TREATMENT,2024-11-15,2024-11-15,241,241
BI-1245.110,EC,BI-1245.110-BRA_SITE01-0010,242,EMPAGLIFLOZIN,PERFORMED,Y,Y,,,10.0,,mg,TABLET,QD,ORAL,242.0,,TREATMENT,2024-11-16,2024-11-16,242,242
BI-1245.110,EC,BI-1245.110-BRA_SITE01-0010,243,EMPAGLIFLOZIN,PERFORMED,Y,Y,,,10.0,,mg,TABLET,QD,ORAL,243.0,,TREATMENT,2024-11-17,2024-11-17,243,243
BI-1245.110,EC,BI-1245.110-BRA_SITE01-0010,244,EMPAGLIFLOZIN,PERFORMED,Y,Y,,,10.0,,mg,TABLET,QD,ORAL,244.0,,TREATMENT,2024-11-18,2024-11-18,244,244
BI-1245.110,EC,BI-1245.110-BRA_SITE01-0010,245,EMPAGLIFLOZIN,PERFORMED,Y,Y,,,10.0,,mg,TABLET,QD,ORAL,245.0,,TREATMENT,2024-11-19,2024-11-19,245,245
BI-1245.110,EC,BI-1245.110-BRA_SITE01-0010,246,EMPAGLIFLOZIN,PERFORMED,Y,Y,,,10.0,,mg,TABLET,QD,ORAL,246.0,,TREATMENT,2024-11-20,2024-11-20,246,246
BI-1245.110,EC,BI-1245.110-BRA_SITE01-0010,247,EMPAGLIFLOZIN,PERFORMED,Y,Y,,,10.0,,mg,TABLET,QD,ORAL,247.0,,TREATMENT,2024-11-21,2024-11-21,247,247
BI-1245.110,EC,BI-1245.110-BRA_SITE01-0010,248,EMPAGLIFLOZIN,PERFORMED,Y,Y,,,10.0,,mg,TABLET,QD,ORAL,248.0,,TREATMENT,2024-11-22,2024-11-22,248,248
BI-1245.110,EC,BI-1245.110-BRA_SITE01-0010,249,EMPAGLIFLOZIN,PERFORMED,Y,Y,,,10.0,,mg,TABLET,QD,ORAL,249.0,,TREATMENT,2024-11-23,2024-11-23,249,249
BI-1245.110,EC,BI-1245.110-BRA_SITE01-0010,250,EMPAGLIFLOZIN,PERFORMED,Y,Y,,,10.0,,mg,TABLET,QD,ORAL,250.0,,TREATMENT,2024-11-24,2024-11-24,250,250
BI-1245.110,EC,BI-1245.110-BRA_SITE01-0010,251,EMPAGLIFLOZIN,SCHEDULED,Y,,NOT DONE,SUBJECT NON-COMPLIANCE,,,mg,TABLET,QD,ORAL,251.0,,TREATMENT,2024-11-25,2024-11-25,251,251
BI-1245.110,EC,BI-1245.110-BRA_SITE01-0010,252,EMPAGLIFLOZIN,PERFORMED,Y,Y,,,10.0,,mg,TABLET,QD,ORAL,252.0,,TREATMENT,2024-11-26,2024-11-26,252,252
BI-1245.110,EC,BI-1245.110-BRA_SITE01-0010,253,EMPAGLIFLOZIN,PERFORMED,Y,Y,,,10.0,,mg,TABLET,QD,ORAL,253.0,,TREATMENT,2024-11-27,2024-11-27,253,253
BI-1245.110,EC,BI-1245.110-BRA_SITE01-0010,254,EMPAGLIFLOZIN,PERFORMED,Y,Y,,,10.0,,mg,TABLET,QD,ORAL,254.0,,TREATMENT,2024-11-28,2024-11-28,254,254
BI-1245.110,EC,BI-1245.110-BRA_SITE01-0010,255,EMPAGLIFLOZIN,SCHEDULED,Y,,NOT DONE,SUBJECT NON-COMPLIANCE,,,mg,TABLET,QD,ORAL,255.0,,TREATMENT,2024-11-29,2024-11-29,255,255
BI-1245.110,EC,BI-1245.110-BRA_SITE01-0010,256,EMPAGLIFLOZIN,PERFORMED,Y,Y,,,10.0,,mg,TABLET,QD,ORAL,256.0,,TREATMENT,2024-11-30,2024-11-30,256,256
BI-1245.110,EC,BI-1245.110-BRA_SITE01-0010,257,EMPAGLIFLOZIN,PERFORMED,Y,Y,,,10.0,,mg,TABLET,QD,ORAL,257.0,,TREATMENT,2024-12-01,2024-12-01,257,257
BI-1245.110,EC,BI-1245.110-BRA_SITE01-0010,258,EMPAGLIFLOZIN,PERFORMED,Y,Y,,,10.0,,mg,TABLET,QD,ORAL,258.0,,TREATMENT,2024-12-02,2024-12-02,258,258
BI-1245.110,EC,BI-1245.110-BRA_SITE01-0010,259,EMPAGLIFLOZIN,SCHEDULED,Y,,NOT DONE,SUBJECT NON-COMPLIANCE,,,mg,TABLET,QD,ORAL,259.0,,TREATMENT,2024-12-03,2024-12-03,259,259
BI-1245.110,EC,BI-1245.110-BRA_SITE01-0010,260,EMPAGLIFLOZIN,PERFORMED,Y,Y,,,10.0,,mg,TABLET,QD,ORAL,260.0,,TREATMENT,2024-12-04,2024-12-04,260,260
BI-1245.110,EC,BI-1245.110-BRA_SITE01-0010,261,EMPAGLIFLOZIN,PERFORMED,Y,Y,,,10.0,,mg,TABLET,QD,ORAL,261.0,,TREATMENT,2024-12-05,2024-12-05,261,261
BI-1245.110,EC,BI-1245.110-BRA_SITE01-0010,262,EMPAGLIFLOZIN,PERFORMED,Y,Y,,,10.0,,mg,TABLET,QD,ORAL,262.0,,TREATMENT,2024-12-06,2024-12-06,262,262
BI-1245.110,EC,BI-1245.110-BRA_SITE01-0010,263,EMPAGLIFLOZIN,PERFORMED,Y,Y,,,10.0,,mg,TABLET,QD,ORAL,263.0,,TREATMENT,2024-12-07,2024-12-07,263,263
BI-1245.110,EC,BI-1245.110-BRA_SITE01-0010,264,EMPAGLIFLOZIN,PERFORMED,Y,Y,,,10.0,,mg,TABLET,QD,ORAL,264.0,,TREATMENT,2024-12-08,2024-12-08,264,264
BI-1245.110,EC,BI-1245.110-BRA_SITE01-0010,265,EMPAGLIFLOZIN,PERFORMED,Y,Y,,,10.0,,mg,TABLET,QD,ORAL,265.0,,TREATMENT,2024-12-09,2024-12-09,265,265
BI-1245.110,EC,BI-1245.110-BRA_SITE01-0010,266,EMPAGLIFLOZIN,PERFORMED,Y,Y,,,10.0,,mg,TABLET,QD,ORAL,266.0,,TREATMENT,2024-12-10,2024-12-10,266,266
BI-1245.110,EC,BI-1245.110-BRA_SITE01-0010,267,EMPAGLIFLOZIN,PERFORMED,Y,Y,,,10.0,,mg,TABLET,QD,ORAL,267.0,,TREATMENT,2024-12-11,2024-12-11,267,267
BI-1245.110,EC,BI-1245.110-BRA_SITE01-0010,268,EMPAGLIFLOZIN,PERFORMED,Y,Y,,,10.0,,mg,TABLET,QD,ORAL,268.0,,TREATMENT,2024-12-12,2024-12-12,268,268
BI-1245.110,EC,BI-1245.110-BRA_SITE01-0010,269,EMPAGLIFLOZIN,PERFORMED,Y,Y,,,10.0,,mg,TABLET,QD,ORAL,269.0,,TREATMENT,2024-12-13,2024-12-13,269,269
BI-1245.110,EC,BI-1245.110-BRA_SITE01-0010,270,EMPAGLIFLOZIN,PERFORMED,Y,Y,,,10.0,,mg,TABLET,QD,ORAL,270.0,,TREATMENT,2024-12-14,2024-12-14,270,270
BI-1245.110,EC,BI-1245.110-BRA_SITE01-0010,271,EMPAGLIFLOZIN,PERFORMED,Y,Y,,,10.0,,mg,TABLET,QD,ORAL,271.0,,TREATMENT,2024-12-15,2024-12-15,271,271
BI-1245.110,EC,BI-1245.110-BRA_SITE01-0010,272,EMPAGLIFLOZIN,PERFORMED,Y,Y,,,10.0,,mg,TABLET,QD,ORAL,272.0,,TREATMENT,2024-12-16,2024-12-16,272,272
BI-1245.110,EC,BI-1245.110-BRA_SITE01-0010,273,EMPAGLIFLOZIN,PERFORMED,Y,Y,,,10.0,,mg,TABLET,QD,ORAL,273.0,,TREATMENT,2024-12-17,2024-12-17,273,273
BI-1245.110,EC,BI-1245.110-BRA_SITE01-0010,274,EMPAGLIFLOZIN,PERFORMED,Y,Y,,,10.0,,mg,TABLET,QD,ORAL,274.0,,TREATMENT,2024-12-18,2024-12-18,274,274
BI-1245.110,EC,BI-1245.110-BRA_SITE01-0010,275,EMPAGLIFLOZIN,PERFORMED,Y,Y,,,10.0,,mg,TABLET,QD,ORAL,275.0,,TREATMENT,2024-12-19,2024-12-19,275,275
BI-1245.110,EC,BI-1245.110-BRA_SITE01-0010,276,EMPAGLIFLOZIN,PERFORMED,Y,Y,,,10.0,,mg,TABLET,QD,ORAL,276.0,,TREATMENT,2024-12-20,2024-12-20,276,276
BI-1245.110,EC,BI-1245.110-BRA_SITE01-0010,277,EMPAGLIFLOZIN,PERFORMED,Y,Y,,,10.0,,mg,TABLET,QD,ORAL,277.0,,TREATMENT,2024-12-21,2024-12-21,277,277
BI-1245.110,EC,BI-1245.110-BRA_SITE01-0010,278,EMPAGLIFLOZIN,PERFORMED,Y,Y,,,10.0,,mg,TABLET,QD,ORAL,278.0,,TREATMENT,2024-12-22,2024-12-22,278,278
BI-1245.110,EC,BI-1245.110-BRA_SITE01-0010,279,EMPAGLIFLOZIN,PERFORMED,Y,Y,,,10.0,,mg,TABLET,QD,ORAL,279.0,,TREATMENT,2024-12-23,2024-12-23,279,279
BI-1245.110,EC,BI-1245.110-BRA_SITE01-0010,280,EMPAGLIFLOZIN,PERFORMED,Y,Y,,,10.0,,mg,TABLET,QD,ORAL,280.0,,TREATMENT,2024-12-24,2024-12-24,280,280
BI-1245.110,EC,BI-1245.110-BRA_SITE01-0010,281,EMPAGLIFLOZIN,PERFORMED,Y,Y,,,10.0,,mg,TABLET,QD,ORAL,281.0,,TREATMENT,2024-12-25,2024-12-25,281,281
BI-1245.110,EC,BI-1245.110-BRA_SITE01-0010,282,EMPAGLIFLOZIN,PERFORMED,Y,Y,,,10.0,,mg,TABLET,QD,ORAL,282.0,,TREATMENT,2024-12-26,2024-12-26,282,282
BI-1245.110,EC,BI-1245.110-BRA_SITE01-0010,283,EMPAGLIFLOZIN,PERFORMED,Y,Y,,,10.0,,mg,TABLET,QD,ORAL,283.0,,TREATMENT,2024-12-27,2024-12-27,283,283
BI-1245.110,EC,BI-1245.110-BRA_SITE01-0010,284,EMPAGLIFLOZIN,PERFORMED,Y,Y,,,10.0,,mg,TABLET,QD,ORAL,284.0,,TREATMENT,2024-12-28,2024-12-28,284,284
BI-1245.110,EC,BI-1245.110-BRA_SITE01-0010,285,EMPAGLIFLOZIN,SCHEDULED,Y,,NOT DONE,SUBJECT NON-COMPLIANCE,,,mg,TABLET,QD,ORAL,285.0,,TREATMENT,2024-12-29,2024-12-29,285,285
BI-1245.110,EC,BI-1245.110-BRA_SITE01-0010,286,EMPAGLIFLOZIN,PERFORMED,Y,Y,,,10.0,,mg,TABLET,QD,ORAL,286.0,,TREATMENT,2024-12-30,2024-12-30,286,286
BI-1245.110,EC,BI-1245.110-BRA_SITE01-0010,287,EMPAGLIFLOZIN,PERFORMED,Y,Y,,,10.0,,mg,TABLET,QD,ORAL,287.0,,TREATMENT,2024-12-31,2024-12-31,287,287
BI-1245.110,EC,BI-1245.110-BRA_SITE01-0010,288,EMPAGLIFLOZIN,PERFORMED,Y,Y,,,10.0,,mg,TABLET,QD,ORAL,288.0,,TREATMENT,2025-01-01,2025-01-01,288,288
BI-1245.110,EC,BI-1245.110-BRA_SITE01-0010,289,EMPAGLIFLOZIN,PERFORMED,Y,Y,,,10.0,,mg,TABLET,QD,ORAL,289.0,,TREATMENT,2025-01-02,2025-01-02,289,289
BI-1245.110,EC,BI-1245.110-BRA_SITE01-0010,290,EMPAGLIFLOZIN,PERFORMED,Y,Y,,,10.0,,mg,TABLET,QD,ORAL,290.0,,TREATMENT,2025-01-03,2025-01-03,290,290
BI-1245.110,EC,BI-1245.110-BRA_SITE01-0010,291,EMPAGLIFLOZIN,PERFORMED,Y,Y,,,10.0,,mg,TABLET,QD,ORAL,291.0,,TREATMENT,2025-01-04,2025-01-04,291,291
BI-1245.110,EC,BI-1245.110-BRA_SITE01-0010,292,EMPAGLIFLOZIN,PERFORMED,Y,Y,,,10.0,,mg,TABLET,QD,ORAL,292.0,,TREATMENT,2025-01-05,2025-01-05,292,292
BI-1245.110,EC,BI-1245.110-BRA_SITE01-0010,293,EMPAGLIFLOZIN,SCHEDULED,Y,,NOT DONE,SUBJECT NON-COMPLIANCE,,,mg,TABLET,QD,ORAL,293.0,,TREATMENT,2025-01-06,2025-01-06,293,293
BI-1245.110,EC,BI-1245.110-BRA_SITE01-0010,294,EMPAGLIFLOZIN,PERFORMED,Y,Y,,,10.0,,mg,TABLET,QD,ORAL,294.0,,TREATMENT,2025-01-07,2025-01-07,294,294
BI-1245.110,EC,BI-1245.110-BRA_SITE01-0010,295,EMPAGLIFLOZIN,PERFORMED,Y,Y,,,10.0,,mg,TABLET,QD,ORAL,295.0,,TREATMENT,2025-01-08,2025-01-08,295,295
BI-1245.110,EC,BI-1245.110-BRA_SITE01-0010,296,EMPAGLIFLOZIN,PERFORMED,Y,Y,,,10.0,,mg,TABLET,QD,ORAL,296.0,,TREATMENT,2025-01-09,2025-01-09,296,296
BI-1245.110,EC,BI-1245.110-BRA_SITE01-0010,297,EMPAGLIFLOZIN,SCHEDULED,Y,,NOT DONE,SUBJECT NON-COMPLIANCE,,,mg,TABLET,QD,ORAL,297.0,,TREATMENT,2025-01-10,2025-01-10,297,297
BI-1245.110,EC,BI-1245.110-BRA_SITE01-0010,298,EMPAGLIFLOZIN,PERFORMED,Y,Y,,,10.0,,mg,TABLET,QD,ORAL,298.0,,TREATMENT,2025-01-11,2025-01-11,298,298
BI-1245.110,EC,BI-1245.110-BRA_SITE01-0010,299,EMPAGLIFLOZIN,PERFORMED,Y,Y,,,10.0,,mg,TABLET,QD,ORAL,299.0,,TREATMENT,2025-01-12,2025-01-12,299,299
BI-1245.110,EC,BI-1245.110-BRA_SITE01-0010,300,EMPAGLIFLOZIN,PERFORMED,Y,Y,,,10.0,,mg,TABLET,QD,ORAL,300.0,,TREATMENT,2025-01-13,2025-01-13,300,300
BI-1245.110,EC,BI-1245.110-BRA_SITE01-0020,1,EMPAGLIFLOZIN,PERFORMED,Y,Y,,,10.0,,mg,TABLET,QD,ORAL,2.0,BASELINE,TREATMENT,2024-03-17,2024-03-17,1,1
BI-1245.110,EC,BI-1245.110-BRA_SITE01-0020,2,EMPAGLIFLOZIN,PERFORMED,Y,Y,,,10.0,,mg,TABLET,QD,ORAL,2.0,BASELINE,TREATMENT,2024-03-18,2024-03-18,2,2
BI-1245.110,EC,BI-1245.110-BRA_SITE01-0020,3,EMPAGLIFLOZIN,PERFORMED,Y,Y,,,10.0,,mg,TABLET,QD,ORAL,2.0,BASELINE,TREATMENT,2024-03-19,2024-03-19,3,3
BI-1245.110,EC,BI-1245.110-BRA_SITE01-0020,4,EMPAGLIFLOZIN,SCHEDULED,Y,,NOT DONE,SUBJECT NON-COMPLIANCE,,,mg,TABLET,QD,ORAL,2.0,BASELINE,TREATMENT,2024-03-20,2024-03-20,4,4
BI-1245.110,EC,BI-1245.110-BRA_SITE01-0020,5,EMPAGLIFLOZIN,PERFORMED,Y,Y,,,10.0,,mg,TABLET,QD,ORAL,5.0,,TREATMENT,2024-03-21,2024-03-21,5,5
BI-1245.110,EC,BI-1245.110-BRA_SITE01-0020,6,EMPAGLIFLOZIN,PERFORMED,Y,Y,,,10.0,,mg,TABLET,QD,ORAL,6.0,,TREATMENT,2024-03-22,2024-03-22,6,6
BI-1245.110,EC,BI-1245.110-BRA_SITE01-0020,7,EMPAGLIFLOZIN,PERFORMED,Y,Y,,,10.0,,mg,TABLET,QD,ORAL,7.0,,TREATMENT,2024-03-23,2024-03-23,7,7
BI-1245.110,EC,BI-1245.110-BRA_SITE01-0020,8,EMPAGLIFLOZIN,PERFORMED,Y,Y,,,10.0,,mg,TABLET,QD,ORAL,8.0,,TREATMENT,2024-03-24,2024-03-24,8,8
BI-1245.110,EC,BI-1245.110-BRA_SITE01-0020,9,EMPAGLIFLOZIN,PERFORMED,Y,Y,,,10.0,,mg,TABLET,QD,ORAL,9.0,,TREATMENT,2024-03-25,2024-03-25,9,9
BI-1245.110,EC,BI-1245.110-BRA_SITE01-0020,10,EMPAGLIFLOZIN,PERFORMED,Y,Y,,,10.0,,mg,TABLET,QD,ORAL,10.0,,TREATMENT,2024-03-26,2024-03-26,10,10
BI-1245.110,EC,BI-1245.110-BRA_SITE01-0020,11,EMPAGLIFLOZIN,PERFORMED,Y,Y,,,10.0,,mg,TABLET,QD,ORAL,11.0,,TREATMENT,2024-03-27,2024-03-27,11,11
BI-1245.110,EC,BI-1245.110-BRA_SITE01-0020,12,EMPAGLIFLOZIN,PERFORMED,Y,Y,,,10.0,,mg,TABLET,QD,ORAL,12.0,,TREATMENT,2024-03-28,2024-03-28,12,12
BI-1245.110,EC,BI-1245.110-BRA_SITE01-0020,13,EMPAGLIFLOZIN,PERFORMED,Y,Y,,,10.0,,mg,TABLET,QD,ORAL,13.0,,TREATMENT,2024-03-29,2024-03-29,13,13
BI-1245.110,EC,BI-1245.110-BRA_SITE01-0020,14,EMPAGLIFLOZIN,PERFORMED,Y,Y,,,10.0,,mg,TABLET,QD,ORAL,14.0,,TREATMENT,2024-03-30,2024-03-30,14,14
BI-1245.110,EC,BI-1245.110-BRA_SITE01-0020,15,EMPAGLIFLOZIN,SCHEDULED,Y,,NOT DONE,SUBJECT NON-COMPLIANCE,,,mg,TABLET,QD,ORAL,15.0,,TREATMENT,2024-03-31,2024-03-31,15,15
BI-1245.110,EC,BI-1245.110-BRA_SITE01-0020,16,EMPAGLIFLOZIN,PERFORMED,Y,Y,,,10.0,,mg,TABLET,QD,ORAL,16.0,,TREATMENT,2024-04-01,2024-04-01,16,16
BI-1245.110,EC,BI-1245.110-BRA_SITE01-0020,17,EMPAGLIFLOZIN,PERFORMED,Y,Y,,,10.0,,mg,TABLET,QD,ORAL,17.0,,TREATMENT,2024-04-02,2024-04-02,17,17
BI-1245.110,EC,BI-1245.110-BRA_SITE01-0020,18,EMPAGLIFLOZIN,PERFORMED,Y,Y,,,10.0,,mg,TABLET,QD,ORAL,18.0,,TREATMENT,2024-04-03,2024-04-03,18,18
BI-1245.110,EC,BI-1245.110-BRA_SITE01-0020,19,EMPAGLIFLOZIN,PERFORMED,Y,Y,,,10.0,,mg,TABLET,QD,ORAL,19.0,,TREATMENT,2024-04-04,2024-04-04,19,19
BI-1245.110,EC,BI-1245.110-BRA_SITE01-0020,20,EMPAGLIFLOZIN,PERFORMED,Y,Y,,,10.0,,mg,TABLET,QD,ORAL,20.0,,TREATMENT,2024-04-05,2024-04-05,20,20
BI-1245.110,EC,BI-1245.110-BRA_SITE01-0020,21,EMPAGLIFLOZIN,PERFORMED,Y,Y,,,10.0,,mg,TABLET,QD,ORAL,21.0,,TREATMENT,2024-04-06,2024-04-06,21,21
BI-1245.110,EC,BI-1245.110-BRA_SITE01-0020,22,EMPAGLIFLOZIN,PERFORMED,Y,Y,,,10.0,,mg,TABLET,QD,ORAL,22.0,,TREATMENT,2024-04-07,2024-04-07,22,22
BI-1245.110,EC,BI-1245.110-BRA_SITE01-0020,23,EMPAGLIFLOZIN,PERFORMED,Y,Y,,,10.0,,mg,TABLET,QD,ORAL,23.0,,TREATMENT,2024-04-08,2024-04-08,23,23
BI-1245.110,EC,BI-1245.110-BRA_SITE01-0020,24,EMPAGLIFLOZIN,SCHEDULED,Y,,NOT DONE,SUBJECT NON-COMPLIANCE,,,mg,TABLET,QD,ORAL,24.0,,TREATMENT,2024-04-09,2024-04-09,24,24
BI-1245.110,EC,BI-1245.110-BRA_SITE01-0020,25,EMPAGLIFLOZIN,SCHEDULED,Y,,NOT DONE,SUBJECT NON-COMPLIANCE,,,mg,TABLET,QD,ORAL,25.0,,TREATMENT,2024-04-10,2024-04-10,25,25
BI-1245.110,EC,BI-1245.110-BRA_SITE01-0020,26,EMPAGLIFLOZIN,PERFORMED,Y,Y,,,10.0,,mg,TABLET,QD,ORAL,3.0,WEEK 4,TREATMENT,2024-04-11,2024-04-11,26,26
BI-1245.110,EC,BI-1245.110-BRA_SITE01-0020,27,EMPAGLIFLOZIN,PERFORMED,Y,Y,,,10.0,,mg,TABLET,QD,ORAL,3.0,WEEK 4,TREATMENT,2024-04-12,2024-04-12,27,27
BI-1245.110,EC,BI-1245.110-BRA_SITE01-0020,28,EMPAGLIFLOZIN,PERFORMED,Y,Y,,,10.0,,mg,TABLET,QD,ORAL,3.0,WEEK 4,TREATMENT,2024-04-13,2024-04-13,28,28
BI-1245.110,EC,BI-1245.110-BRA_SITE01-0020,29,EMPAGLIFLOZIN,PERFORMED,Y,Y,,,10.0,,mg,TABLET,QD,ORAL,3.0,WEEK 4,TREATMENT,2024-04-14,2024-04-14,29,29
BI-1245.110,EC,BI-1245.110-BRA_SITE01-0020,30,EMPAGLIFLOZIN,PERFORMED,Y,Y,,,10.0,,mg,TABLET,QD,ORAL,3.0,WEEK 4,TREATMENT,2024-04-15,2024-04-15,30,30
BI-1245.110,EC,BI-1245.110-BRA_SITE01-0020,31,EMPAGLIFLOZIN,PERFORMED,Y,Y,,,10.0,,mg,TABLET,QD,ORAL,3.0,WEEK 4,TREATMENT,2024-04-16,2024-04-16,31,31
BI-1245.110,EC,BI-1245.110-BRA_SITE01-0020,32,EMPAGLIFLOZIN,SCHEDULED,Y,,NOT DONE,SUBJECT NON-COMPLIANCE,,,mg,TABLET,QD,ORAL,3.0,WEEK 4,TREATMENT,2024-04-17,2024-04-17,32,32
BI-1245.110,EC,BI-1245.110-BRA_SITE01-0020,33,EMPAGLIFLOZIN,SCHEDULED,Y,,NOT DONE,SUBJECT NON-COMPLIANCE,,,mg,TABLET,QD,ORAL,33.0,,TREATMENT,2024-04-18,2024-04-18,33,33
BI-1245.110,EC,BI-1245.110-BRA_SITE01-0020,34,EMPAGLIFLOZIN,PERFORMED,Y,Y,,,10.0,,mg,TABLET,QD,ORAL,34.0,,TREATMENT,2024-04-19,2024-04-19,34,34
BI-1245.110,EC,BI-1245.110-BRA_SITE01-0020,35,EMPAGLIFLOZIN,PERFORMED,Y,Y,,,10.0,,mg,TABLET,QD,ORAL,35.0,,TREATMENT,2024-04-20,2024-04-20,35,35
BI-1245.110,EC,BI-1245.110-BRA_SITE01-0020,36,EMPAGLIFLOZIN,PERFORMED,Y,Y,,,10.0,,mg,TABLET,QD,ORAL,36.0,,TREATMENT,2024-04-21,2024-04-21,36,36
BI-1245.110,EC,BI-1245.110-BRA_SITE01-0020,37,EMPAGLIFLOZIN,PERFORMED,Y,Y,,,10.0,,mg,TABLET,QD,ORAL,37.0,,TREATMENT,2024-04-22,2024-04-22,37,37
BI-1245.110,EC,BI-1245.110-BRA_SITE01-0020,38,EMPAGLIFLOZIN,SCHEDULED,Y,,NOT DONE,SUBJECT NON-COMPLIANCE,,,mg,TABLET,QD,ORAL,38.0,,TREATMENT,2024-04-23,2024-04-23,38,38
BI-1245.110,EC,BI-1245.110-BRA_SITE01-0020,39,EMPAGLIFLOZIN,PERFORMED,Y,Y,,,10.0,,mg,TABLET,QD,ORAL,39.0,,TREATMENT,2024-04-24,2024-04-24,39,39
BI-1245.110,EC,BI-1245.110-BRA_SITE01-0020,40,EMPAGLIFLOZIN,PERFORMED,Y,Y,,,10.0,,mg,TABLET,QD,ORAL,40.0,,TREATMENT,2024-04-25,2024-04-25,40,40
BI-1245.110,EC,BI-1245.110-BRA_SITE01-0020,41,EMPAGLIFLOZIN,PERFORMED,Y,Y,,,10.0,,mg,TABLET,QD,ORAL,41.0,,TREATMENT,2024-04-26,2024-04-26,41,41
BI-1245.110,EC,BI-1245.110-BRA_SITE01-0020,42,EMPAGLIFLOZIN,PERFORMED,Y,Y,,,10.0,,mg,TABLET,QD,ORAL,42.0,,TREATMENT,2024-04-27,2024-04-27,42,42
BI-1245.110,EC,BI-1245.110-BRA_SITE01-0020,43,EMPAGLIFLOZIN,PERFORMED,Y,Y,,,10.0,,mg,TABLET,QD,ORAL,43.0,,TREATMENT,2024-04-28,2024-04-28,43,43
BI-1245.110,EC,BI-1245.110-BRA_SITE01-0020,44,EMPAGLIFLOZIN,PERFORMED,Y,Y,,,10.0,,mg,TABLET,QD,ORAL,44.0,,TREATMENT,2024-04-29,2024-04-29,44,44
BI-1245.110,EC,BI-1245.110-BRA_SITE01-0020,45,EMPAGLIFLOZIN,PERFORMED,Y,Y,,,10.0,,mg,TABLET,QD,ORAL,45.0,,TREATMENT,2024-04-30,2024-04-30,45,45
BI-1245.110,EC,BI-1245.110-BRA_SITE01-0020,46,EMPAGLIFLOZIN,PERFORMED,Y,Y,,,10.0,,mg,TABLET,QD,ORAL,46.0,,TREATMENT,2024-05-01,2024-05-01,46,46
BI-1245.110,EC,BI-1245.110-BRA_SITE01-0020,47,EMPAGLIFLOZIN,PERFORMED,Y,Y,,,10.0,,mg,TABLET,QD,ORAL,47.0,,TREATMENT,2024-05-02,2024-05-02,47,47
BI-1245.110,EC,BI-1245.110-BRA_SITE01-0020,48,EMPAGLIFLOZIN,PERFORMED,Y,Y,,,10.0,,mg,TABLET,QD,ORAL,48.0,,TREATMENT,2024-05-03,2024-05-03,48,48
BI-1245.110,EC,BI-1245.110-BRA_SITE01-0020,49,EMPAGLIFLOZIN,PERFORMED,Y,Y,,,10.0,,mg,TABLET,QD,ORAL,49.0,,TREATMENT,2024-05-04,2024-05-04,49,49
BI-1245.110,EC,BI-1245.110-BRA_SITE01-0020,50,EMPAGLIFLOZIN,PERFORMED,Y,Y,,,10.0,,mg,TABLET,QD,ORAL,50.0,,TREATMENT,2024-05-05,2024-05-05,50,50
BI-1245.110,EC,BI-1245.110-BRA_SITE01-0020,51,EMPAGLIFLOZIN,PERFORMED,Y,Y,,,10.0,,mg,TABLET,QD,ORAL,51.0,,TREATMENT,2024-05-06,2024-05-06,51,51
BI-1245.110,EC,BI-1245.110-BRA_SITE01-0020,52,EMPAGLIFLOZIN,SCHEDULED,Y,,NOT DONE,SUBJECT NON-COMPLIANCE,,,mg,TABLET,QD,ORAL,52.0,,TREATMENT,2024-05-07,2024-05-07,52,52
BI-1245.110,EC,BI-1245.110-BRA_SITE01-0020,53,EMPAGLIFLOZIN,PERFORMED,Y,Y,,,10.0,,mg,TABLET,QD,ORAL,53.0,,TREATMENT,2024-05-08,2024-05-08,53,53
BI-1245.110,EC,BI-1245.110-BRA_SITE01-0020,54,EMPAGLIFLOZIN,PERFORMED,Y,Y,,,10.0,,mg,TABLET,QD,ORAL,54.0,,TREATMENT,2024-05-09,2024-05-09,54,54
BI-1245.110,EC,BI-1245.110-BRA_SITE01-0020,55,EMPAGLIFLOZIN,PERFORMED,Y,Y,,,10.0,,mg,TABLET,QD,ORAL,55.0,,TREATMENT,2024-05-10,2024-05-10,55,55
BI-1245.110,EC,BI-1245.110-BRA_SITE01-0020,56,EMPAGLIFLOZIN,PERFORMED,Y,Y,,,10.0,,mg,TABLET,QD,ORAL,56.0,,TREATMENT,2024-05-11,2024-05-11,56,56
BI-1245.110,EC,BI-1245.110-BRA_SITE01-0020,57,EMPAGLIFLOZIN,PERFORMED,Y,Y,,,10.0,,mg,TABLET,QD,ORAL,57.0,,TREATMENT,2024-05-12,2024-05-12,57,57
BI-1245.110,EC,BI-1245.110-BRA_SITE01-0020,58,EMPAGLIFLOZIN,PERFORMED,Y,Y,,,10.0,,mg,TABLET,QD,ORAL,58.0,,TREATMENT,2024-05-13,2024-05-13,58,58
BI-1245.110,EC,BI-1245.110-BRA_SITE01-0020,59,EMPAGLIFLOZIN,PERFORMED,Y,Y,,,10.0,,mg,TABLET,QD,ORAL,59.0,,TREATMENT,2024-05-14,2024-05-14,59,59
BI-1245.110,EC,BI-1245.110-BRA_SITE01-0020,60,EMPAGLIFLOZIN,PERFORMED,Y,Y,,,10.0,,mg,TABLET,QD,ORAL,60.0,,TREATMENT,2024-05-15,2024-05-15,60,60
BI-1245.110,EC,BI-1245.110-BRA_SITE01-0020,61,EMPAGLIFLOZIN,PERFORMED,Y,Y,,,10.0,,mg,TABLET,QD,ORAL,61.0,,TREATMENT,2024-05-16,2024-05-16,61,61
BI-1245.110,EC,BI-1245.110-BRA_SITE01-0020,62,EMPAGLIFLOZIN,PERFORMED,Y,Y,,,10.0,,mg,TABLET,QD,ORAL,62.0,,TREATMENT,2024-05-17,2024-05-17,62,62
BI-1245.110,EC,BI-1245.110-BRA_SITE01-0020,63,EMPAGLIFLOZIN,SCHEDULED,Y,,NOT DONE,SUBJECT NON-COMPLIANCE,,,mg,TABLET,QD,ORAL,63.0,,TREATMENT,2024-05-18,2024-05-18,63,63
BI-1245.110,EC,BI-1245.110-BRA_SITE01-0020,64,EMPAGLIFLOZIN,PERFORMED,Y,Y,,,10.0,,mg,TABLET,QD,ORAL,64.0,,TREATMENT,2024-05-19,2024-05-19,64,64
BI-1245.110,EC,BI-1245.110-BRA_SITE01-0020,65,EMPAGLIFLOZIN,PERFORMED,Y,Y,,,10.0,,mg,TABLET,QD,ORAL,65.0,,TREATMENT,2024-05-20,2024-05-20,65,65
BI-1245.110,EC,BI-1245.110-BRA_SITE01-0020,66,EMPAGLIFLOZIN,PERFORMED,Y,Y,,,10.0,,mg,TABLET,QD,ORAL,66.0,,TREATMENT,2024-05-21,2024-05-21,66,66
BI-1245.110,EC,BI-1245.110-BRA_SITE01-0020,67,EMPAGLIFLOZIN,PERFORMED,Y,Y,,,10.0,,mg,TABLET,QD,ORAL,67.0,,TREATMENT,2024-05-22,2024-05-22,67,67
BI-1245.110,EC,BI-1245.110-BRA_SITE01-0020,68,EMPAGLIFLOZIN,PERFORMED,Y,Y,,,10.0,,mg,TABLET,QD,ORAL,68.0,,TREATMENT,2024-05-23,2024-05-23,68,68
BI-1245.110,EC,BI-1245.110-BRA_SITE01-0020,69,EMPAGLIFLOZIN,PERFORMED,Y,Y,,,10.0,,mg,TABLET,QD,ORAL,69.0,,TREATMENT,2024-05-24,2024-05-24,69,69
BI-1245.110,EC,BI-1245.110-BRA_SITE01-0020,70,EMPAGLIFLOZIN,PERFORMED,Y,Y,,,10.0,,mg,TABLET,QD,ORAL,70.0,,TREATMENT,2024-05-25,2024-05-25,70,70
BI-1245.110,EC,BI-1245.110-BRA_SITE01-0020,71,EMPAGLIFLOZIN,PERFORMED,Y,Y,,,10.0,,mg,TABLET,QD,ORAL,71.0,,TREATMENT,2024-05-26,2024-05-26,71,71
BI-1245.110,EC,BI-1245.110-BRA_SITE01-0020,72,EMPAGLIFLOZIN,SCHEDULED,Y,,NOT DONE,SUBJECT NON-COMPLIANCE,,,mg,TABLET,QD,ORAL,72.0,,TREATMENT,2024-05-27,2024-05-27,72,72
BI-1245.110,EC,BI-1245.110-BRA_SITE01-0020,73,EMPAGLIFLOZIN,PERFORMED,Y,Y,,,10.0,,mg,TABLET,QD,ORAL,73.0,,TREATMENT,2024-05-28,2024-05-28,73,73
BI-1245.110,EC,BI-1245.110-BRA_SITE01-0020,74,EMPAGLIFLOZIN,PERFORMED,Y,Y,,,10.0,,mg,TABLET,QD,ORAL,74.0,,TREATMENT,2024-05-29,2024-05-29,74,74
BI-1245.110,EC,BI-1245.110-BRA_SITE01-0020,75,EMPAGLIFLOZIN,PERFORMED,Y,Y,,,10.0,,mg,TABLET,QD,ORAL,75.0,,TREATMENT,2024-05-30,2024-05-30,75,75
BI-1245.110,EC,BI-1245.110-BRA_SITE01-0020,76,EMPAGLIFLOZIN,PERFORMED,Y,Y,,,10.0,,mg,TABLET,QD,ORAL,76.0,,TREATMENT,2024-05-31,2024-05-31,76,76
BI-1245.110,EC,BI-1245.110-BRA_SITE01-0020,77,EMPAGLIFLOZIN,PERFORMED,Y,Y,,,10.0,,mg,TABLET,QD,ORAL,77.0,,TREATMENT,2024-06-01,2024-06-01,77,77
BI-1245.110,EC,BI-1245.110-BRA_SITE01-0020,78,EMPAGLIFLOZIN,PERFORMED,Y,Y,,,10.0,,mg,TABLET,QD,ORAL,78.0,,TREATMENT,2024-06-02,2024-06-02,78,78
BI-1245.110,EC,BI-1245.110-BRA_SITE01-0020,79,EMPAGLIFLOZIN,PERFORMED,Y,Y,,,10.0,,mg,TABLET,QD,ORAL,79.0,,TREATMENT,2024-06-03,2024-06-03,79,79
BI-1245.110,EC,BI-1245.110-BRA_SITE01-0020,80,EMPAGLIFLOZIN,PERFORMED,Y,Y,,,10.0,,mg,TABLET,QD,ORAL,80.0,,TREATMENT,2024-06-04,2024-06-04,80,80
BI-1245.110,EC,BI-1245.110-BRA_SITE01-0020,81,EMPAGLIFLOZIN,PERFORMED,Y,Y,,,10.0,,mg,TABLET,QD,ORAL,81.0,,TREATMENT,2024-06-05,2024-06-05,81,81
BI-1245.110,EC,BI-1245.110-BRA_SITE01-0020,82,EMPAGLIFLOZIN,PERFORMED,Y,Y,,,10.0,,mg,TABLET,QD,ORAL,4.0,WEEK 12,TREATMENT,2024-06-06,2024-06-06,82,82
BI-1245.110,EC,BI-1245.110-BRA_SITE01-0020,83,EMPAGLIFLOZIN,PERFORMED,Y,Y,,,10.0,,mg,TABLET,QD,ORAL,4.0,WEEK 12,TREATMENT,2024-06-07,2024-06-07,83,83
BI-1245.110,EC,BI-1245.110-BRA_SITE01-0020,84,EMPAGLIFLOZIN,PERFORMED,Y,Y,,,10.0,,mg,TABLET,QD,ORAL,4.0,WEEK 12,TREATMENT,2024-06-08,2024-06-08,84,84
BI-1245.110,EC,BI-1245.110-BRA_SITE01-0020,85,EMPAGLIFLOZIN,PERFORMED,Y,Y,,,10.0,,mg,TABLET,QD,ORAL,4.0,WEEK 12,TREATMENT,2024-06-09,2024-06-09,85,85
BI-1245.110,EC,BI-1245.110-BRA_SITE01-0020,86,EMPAGLIFLOZIN,PERFORMED,Y,Y,,,10.0,,mg,TABLET,QD,ORAL,4.0,WEEK 12,TREATMENT,2024-06-10,2024-06-10,86,86
BI-1245.110,EC,BI-1245.110-BRA_SITE01-0020,87,EMPAGLIFLOZIN,PERFORMED,Y,Y,,,10.0,,mg,TABLET,QD,ORAL,4.0,WEEK 12,TREATMENT,2024-06-11,2024-06-11,87,87
BI-1245.110,EC,BI-1245.110-BRA_SITE01-0020,88,EMPAGLIFLOZIN,PERFORMED,Y,Y,,,10.0,,mg,TABLET,QD,ORAL,4.0,WEEK 12,TREATMENT,2024-06-12,2024-06-12,88,88
BI-1245.110,EC,BI-1245.110-BRA_SITE01-0020,89,EMPAGLIFLOZIN,PERFORMED,Y,Y,,,10.0,,mg,TABLET,QD,ORAL,89.0,,TREATMENT,2024-06-13,2024-06-13,89,89
BI-1245.110,EC,BI-1245.110-BRA_SITE01-0020,90,EMPAGLIFLOZIN,PERFORMED,Y,Y,,,10.0,,mg,TABLET,QD,ORAL,90.0,,TREATMENT,2024-06-14,2024-06-14,90,90
BI-1245.110,EC,BI-1245.110-BRA_SITE01-0020,91,EMPAGLIFLOZIN,PERFORMED,Y,Y,,,10.0,,mg,TABLET,QD,ORAL,91.0,,TREATMENT,2024-06-15,2024-06-15,91,91
BI-1245.110,EC,BI-1245.110-BRA_SITE01-0020,92,EMPAGLIFLOZIN,SCHEDULED,Y,,NOT DONE,SUBJECT NON-COMPLIANCE,,,mg,TABLET,QD,ORAL,92.0,,TREATMENT,2024-06-16,2024-06-16,92,92
BI-1245.110,EC,BI-1245.110-BRA_SITE01-0020,93,EMPAGLIFLOZIN,PERFORMED,Y,Y,,,10.0,,mg,TABLET,QD,ORAL,93.0,,TREATMENT,2024-06-17,2024-06-17,93,93
BI-1245.110,EC,BI-1245.110-BRA_SITE01-0020,94,EMPAGLIFLOZIN,PERFORMED,Y,Y,,,10.0,,mg,TABLET,QD,ORAL,94.0,,TREATMENT,2024-06-18,2024-06-18,94,94
BI-1245.110,EC,BI-1245.110-BRA_SITE01-0020,95,EMPAGLIFLOZIN,PERFORMED,Y,Y,,,10.0,,mg,TABLET,QD,ORAL,95.0,,TREATMENT,2024-06-19,2024-06-19,95,95
BI-1245.110,EC,BI-1245.110-BRA_SITE01-0020,96,EMPAGLIFLOZIN,PERFORMED,Y,Y,,,10.0,,mg,TABLET,QD,ORAL,96.0,,TREATMENT,2024-06-20,2024-06-20,96,96
BI-1245.110,EC,BI-1245.110-BRA_SITE01-0020,97,EMPAGLIFLOZIN,PERFORMED,Y,Y,,,10.0,,mg,TABLET,QD,ORAL,97.0,,TREATMENT,2024-06-21,2024-06-21,97,97
BI-1245.110,EC,BI-1245.110-BRA_SITE01-0020,98,EMPAGLIFLOZIN,PERFORMED,Y,Y,,,10.0,,mg,TABLET,QD,ORAL,98.0,,TREATMENT,2024-06-22,2024-06-22,98,98
BI-1245.110,EC,BI-1245.110-BRA_SITE01-0020,99,EMPAGLIFLOZIN,PERFORMED,Y,Y,,,10.0,,mg,TABLET,QD,ORAL,99.0,,TREATMENT,2024-06-23,2024-06-23,99,99
BI-1245.110,EC,BI-1245.110-BRA_SITE01-0020,100,EMPAGLIFLOZIN,PERFORMED,Y,Y,,,10.0,,mg,TABLET,QD,ORAL,100.0,,TREATMENT,2024-06-24,2024-06-24,100,100
BI-1245.110,EC,BI-1245.110-BRA_SITE01-0020,101,EMPAGLIFLOZIN,PERFORMED,Y,Y,,,10.0,,mg,TABLET,QD,ORAL,101.0,,TREATMENT,2024-06-25,2024-06-25,101,101
BI-1245.110,EC,BI-1245.110-BRA_SITE01-0020,102,EMPAGLIFLOZIN,PERFORMED,Y,Y,,,10.0,,mg,TABLET,QD,ORAL,102.0,,TREATMENT,2024-06-26,2024-06-26,102,102
BI-1245.110,EC,BI-1245.110-BRA_SITE01-0020,103,EMPAGLIFLOZIN,PERFORMED,Y,Y,,,10.0,,mg,TABLET,QD,ORAL,103.0,,TREATMENT,2024-06-27,2024-06-27,103,103
BI-1245.110,EC,BI-1245.110-BRA_SITE01-0020,104,EMPAGLIFLOZIN,PERFORMED,Y,Y,,,10.0,,mg,TABLET,QD,ORAL,104.0,,TREATMENT,2024-06-28,2024-06-28,104,104
BI-1245.110,EC,BI-1245.110-BRA_SITE01-0020,105,EMPAGLIFLOZIN,PERFORMED,Y,Y,,,10.0,,mg,TABLET,QD,ORAL,105.0,,TREATMENT,2024-06-29,2024-06-29,105,105
BI-1245.110,EC,BI-1245.110-BRA_SITE01-0020,106,EMPAGLIFLOZIN,PERFORMED,Y,Y,,,10.0,,mg,TABLET,QD,ORAL,106.0,,TREATMENT,2024-06-30,2024-06-30,106,106
BI-1245.110,EC,BI-1245.110-BRA_SITE01-0020,107,EMPAGLIFLOZIN,PERFORMED,Y,Y,,,10.0,,mg,TABLET,QD,ORAL,107.0,,TREATMENT,2024-07-01,2024-07-01,107,107
BI-1245.110,EC,BI-1245.110-BRA_SITE01-0020,108,EMPAGLIFLOZIN,PERFORMED,Y,Y,,,10.0,,mg,TABLET,QD,ORAL,108.0,,TREATMENT,2024-07-02,2024-07-02,108,108
BI-1245.110,EC,BI-1245.110-BRA_SITE01-0020,109,EMPAGLIFLOZIN,PERFORMED,Y,Y,,,10.0,,mg,TABLET,QD,ORAL,109.0,,TREATMENT,2024-07-03,2024-07-03,109,109
BI-1245.110,EC,BI-1245.110-BRA_SITE01-0020,110,EMPAGLIFLOZIN,PERFORMED,Y,Y,,,10.0,,mg,TABLET,QD,ORAL,110.0,,TREATMENT,2024-07-04,2024-07-04,110,110
BI-1245.110,EC,BI-1245.110-BRA_SITE01-0020,111,EMPAGLIFLOZIN,PERFORMED,Y,Y,,,10.0,,mg,TABLET,QD,ORAL,111.0,,TREATMENT,2024-07-05,2024-07-05,111,111
BI-1245.110,EC,BI-1245.110-BRA_SITE01-0020,112,EMPAGLIFLOZIN,PERFORMED,Y,Y,,,10.0,,mg,TABLET,QD,ORAL,112.0,,TREATMENT,2024-07-06,2024-07-06,112,112
BI-1245.110,EC,BI-1245.110-BRA_SITE01-0020,113,EMPAGLIFLOZIN,PERFORMED,Y,Y,,,10.0,,mg,TABLET,QD,ORAL,113.0,,TREATMENT,2024-07-07,2024-07-07,113,113
BI-1245.110,EC,BI-1245.110-BRA_SITE01-0020,114,EMPAGLIFLOZIN,PERFORMED,Y,Y,,,10.0,,mg,TABLET,QD,ORAL,114.0,,TREATMENT,2024-07-08,2024-07-08,114,114
BI-1245.110,EC,BI-1245.110-BRA_SITE01-0020,115,EMPAGLIFLOZIN,PERFORMED,Y,Y,,,10.0,,mg,TABLET,QD,ORAL,115.0,,TREATMENT,2024-07-09,2024-07-09,115,115
BI-1245.110,EC,BI-1245.110-BRA_SITE01-0020,116,EMPAGLIFLOZIN,SCHEDULED,Y,,NOT DONE,SUBJECT NON-COMPLIANCE,,,mg,TABLET,QD,ORAL,116.0,,TREATMENT,2024-07-10,2024-07-10,116,116
BI-1245.110,EC,BI-1245.110-BRA_SITE01-0020,117,EMPAGLIFLOZIN,PERFORMED,Y,Y,,,10.0,,mg,TABLET,QD,ORAL,117.0,,TREATMENT,2024-07-11,2024-07-11,117,117
BI-1245.110,EC,BI-1245.110-BRA_SITE01-0020,118,EMPAGLIFLOZIN,PERFORMED,Y,Y,,,10.0,,mg,TABLET,QD,ORAL,118.0,,TREATMENT,2024-07-12,2024-07-12,118,118
BI-1245.110,EC,BI-1245.110-BRA_SITE01-0020,119,EMPAGLIFLOZIN,PERFORMED,Y,Y,,,10.0,,mg,TABLET,QD,ORAL,119.0,,TREATMENT,2024-07-13,2024-07-13,119,119
BI-1245.110,EC,BI-1245.110-BRA_SITE01-0020,120,EMPAGLIFLOZIN,PERFORMED,Y,Y,,,10.0,,mg,TABLET,QD,ORAL,120.0,,TREATMENT,2024-07-14,2024-07-14,120,120
BI-1245.110,EC,BI-1245.110-BRA_SITE01-0020,121,EMPAGLIFLOZIN,PERFORMED,Y,Y,,,10.0,,mg,TABLET,QD,ORAL,121.0,,TREATMENT,2024-07-15,2024-07-15,121,121
BI-1245.110,EC,BI-1245.110-BRA_SITE01-0020,122,EMPAGLIFLOZIN,PERFORMED,Y,Y,,,10.0,,mg,TABLET,QD,ORAL,122.0,,TREATMENT,2024-07-16,2024-07-16,122,122
BI-1245.110,EC,BI-1245.110-BRA_SITE01-0020,123,EMPAGLIFLOZIN,PERFORMED,Y,Y,,,10.0,,mg,TABLET,QD,ORAL,123.0,,TREATMENT,2024-07-17,2024-07-17,123,123
BI-1245.110,EC,BI-1245.110-BRA_SITE01-0020,124,EMPAGLIFLOZIN,PERFORMED,Y,Y,,,10.0,,mg,TABLET,QD,ORAL,124.0,,TREATMENT,2024-07-18,2024-07-18,124,124
BI-1245.110,EC,BI-1245.110-BRA_SITE01-0020,125,EMPAGLIFLOZIN,SCHEDULED,Y,,NOT DONE,SUBJECT NON-COMPLIANCE,,,mg,TABLET,QD,ORAL,125.0,,TREATMENT,2024-07-19,2024-07-19,125,125
BI-1245.110,EC,BI-1245.110-BRA_SITE01-0020,126,EMPAGLIFLOZIN,PERFORMED,Y,Y,,,10.0,,mg,TABLET,QD,ORAL,126.0,,TREATMENT,2024-07-20,2024-07-20,126,126
BI-1245.110,EC,BI-1245.110-BRA_SITE01-0020,127,EMPAGLIFLOZIN,PERFORMED,Y,Y,,,10.0,,mg,TABLET,QD,ORAL,127.0,,TREATMENT,2024-07-21,2024-07-21,127,127
BI-1245.110,EC,BI-1245.110-BRA_SITE01-0020,128,EMPAGLIFLOZIN,PERFORMED,Y,Y,,,10.0,,mg,TABLET,QD,ORAL,128.0,,TREATMENT,2024-07-22,2024-07-22,128,128
BI-1245.110,EC,BI-1245.110-BRA_SITE01-0020,129,EMPAGLIFLOZIN,PERFORMED,Y,Y,,,10.0,,mg,TABLET,QD,ORAL,129.0,,TREATMENT,2024-07-23,2024-07-23,129,129
BI-1245.110,EC,BI-1245.110-BRA_SITE01-0020,130,EMPAGLIFLOZIN,PERFORMED,Y,Y,,,10.0,,mg,TABLET,QD,ORAL,130.0,,TREATMENT,2024-07-24,2024-07-24,130,130
BI-1245.110,EC,BI-1245.110-BRA_SITE01-0020,131,EMPAGLIFLOZIN,PERFORMED,Y,Y,,,10.0,,mg,TABLET,QD,ORAL,131.0,,TREATMENT,2024-07-25,2024-07-25,131,131
BI-1245.110,EC,BI-1245.110-BRA_SITE01-0020,132,EMPAGLIFLOZIN,PERFORMED,Y,Y,,,10.0,,mg,TABLET,QD,ORAL,132.0,,TREATMENT,2024-07-26,2024-07-26,132,132
BI-1245.110,EC,BI-1245.110-BRA_SITE01-0020,133,EMPAGLIFLOZIN,PERFORMED,Y,Y,,,10.0,,mg,TABLET,QD,ORAL,133.0,,TREATMENT,2024-07-27,2024-07-27,133,133
BI-1245.110,EC,BI-1245.110-BRA_SITE01-0020,134,EMPAGLIFLOZIN,PERFORMED,Y,Y,,,10.0,,mg,TABLET,QD,ORAL,134.0,,TREATMENT,2024-07-28,2024-07-28,134,134
BI-1245.110,EC,BI-1245.110-BRA_SITE01-0020,135,EMPAGLIFLOZIN,PERFORMED,Y,Y,,,10.0,,mg,TABLET,QD,ORAL,135.0,,TREATMENT,2024-07-29,2024-07-29,135,135
BI-1245.110,EC,BI-1245.110-BRA_SITE01-0020,136,EMPAGLIFLOZIN,PERFORMED,Y,Y,,,10.0,,mg,TABLET,QD,ORAL,136.0,,TREATMENT,2024-07-30,2024-07-30,136,136
BI-1245.110,EC,BI-1245.110-BRA_SITE01-0020,137,EMPAGLIFLOZIN,PERFORMED,Y,Y,,,10.0,,mg,TABLET,QD,ORAL,137.0,,TREATMENT,2024-07-31,2024-07-31,137,137
BI-1245.110,EC,BI-1245.110-BRA_SITE01-0020,138,EMPAGLIFLOZIN,PERFORMED,Y,Y,,,10.0,,mg,TABLET,QD,ORAL,138.0,,TREATMENT,2024-08-01,2024-08-01,138,138
BI-1245.110,EC,BI-1245.110-BRA_SITE01-0020,139,EMPAGLIFLOZIN,PERFORMED,Y,Y,,,10.0,,mg,TABLET,QD,ORAL,139.0,,TREATMENT,2024-08-02,2024-08-02,139,139
BI-1245.110,EC,BI-1245.110-BRA_SITE01-0020,140,EMPAGLIFLOZIN,PERFORMED,Y,Y,,,10.0,,mg,TABLET,QD,ORAL,140.0,,TREATMENT,2024-08-03,2024-08-03,140,140
BI-1245.110,EC,BI-1245.110-BRA_SITE01-0020,141,EMPAGLIFLOZIN,PERFORMED,Y,Y,,,10.0,,mg,TABLET,QD,ORAL,141.0,,TREATMENT,2024-08-04,2024-08-04,141,141
BI-1245.110,EC,BI-1245.110-BRA_SITE01-0020,142,EMPAGLIFLOZIN,PERFORMED,Y,Y,,,10.0,,mg,TABLET,QD,ORAL,142.0,,TREATMENT,2024-08-05,2024-08-05,142,142
BI-1245.110,EC,BI-1245.110-BRA_SITE01-0020,143,EMPAGLIFLOZIN,PERFORMED,Y,Y,,,10.0,,mg,TABLET,QD,ORAL,143.0,,TREATMENT,2024-08-06,2024-08-06,143,143
BI-1245.110,EC,BI-1245.110-BRA_SITE01-0020,144,EMPAGLIFLOZIN,PERFORMED,Y,Y,,,10.0,,mg,TABLET,QD,ORAL,144.0,,TREATMENT,2024-08-07,2024-08-07,144,144
BI-1245.110,EC,BI-1245.110-BRA_SITE01-0020,145,EMPAGLIFLOZIN,PERFORMED,Y,Y,,,10.0,,mg,TABLET,QD,ORAL,145.0,,TREATMENT,2024-08-08,2024-08-08,145,145
BI-1245.110,EC,BI-1245.110-BRA_SITE01-0020,146,EMPAGLIFLOZIN,PERFORMED,Y,Y,,,10.0,,mg,TABLET,QD,ORAL,146.0,,TREATMENT,2024-08-09,2024-08-09,146,146
BI-1245.110,EC,BI-1245.110-BRA_SITE01-0020,147,EMPAGLIFLOZIN,PERFORMED,Y,Y,,,10.0,,mg,TABLET,QD,ORAL,147.0,,TREATMENT,2024-08-10,2024-08-10,147,147
BI-1245.110,EC,BI-1245.110-BRA_SITE01-0020,148,EMPAGLIFLOZIN,PERFORMED,Y,Y,,,10.0,,mg,TABLET,QD,ORAL,148.0,,TREATMENT,2024-08-11,2024-08-11,148,148
BI-1245.110,EC,BI-1245.110-BRA_SITE01-0020,149,EMPAGLIFLOZIN,PERFORMED,Y,Y,,,10.0,,mg,TABLET,QD,ORAL,149.0,,TREATMENT,2024-08-12,2024-08-12,149,149
BI-1245.110,EC,BI-1245.110-BRA_SITE01-0020,150,EMPAGLIFLOZIN,SCHEDULED,Y,,NOT DONE,SUBJECT NON-COMPLIANCE,,,mg,TABLET,QD,ORAL,150.0,,TREATMENT,2024-08-13,2024-08-13,150,150
BI-1245.110,EC,BI-1245.110-BRA_SITE01-0020,151,EMPAGLIFLOZIN,PERFORMED,Y,Y,,,10.0,,mg,TABLET,QD,ORAL,151.0,,TREATMENT,2024-08-14,2024-08-14,151,151
BI-1245.110,EC,BI-1245.110-BRA_SITE01-0020,152,EMPAGLIFLOZIN,PERFORMED,Y,Y,,,10.0,,mg,TABLET,QD,ORAL,152.0,,TREATMENT,2024-08-15,2024-08-15,152,152
BI-1245.110,EC,BI-1245.110-BRA_SITE01-0020,153,EMPAGLIFLOZIN,PERFORMED,Y,Y,,,10.0,,mg,TABLET,QD,ORAL,153.0,,TREATMENT,2024-08-16,2024-08-16,153,153
BI-1245.110,EC,BI-1245.110-BRA_SITE01-0020,154,EMPAGLIFLOZIN,PERFORMED,Y,Y,,,10.0,,mg,TABLET,QD,ORAL,154.0,,TREATMENT,2024-08-17,2024-08-17,154,154
BI-1245.110,EC,BI-1245.110-BRA_SITE01-0020,155,EMPAGLIFLOZIN,PERFORMED,Y,Y,,,10.0,,mg,TABLET,QD,ORAL,155.0,,TREATMENT,2024-08-18,2024-08-18,155,155
BI-1245.110,EC,BI-1245.110-BRA_SITE01-0020,156,EMPAGLIFLOZIN,PERFORMED,Y,Y,,,10.0,,mg,TABLET,QD,ORAL,156.0,,TREATMENT,2024-08-19,2024-08-19,156,156
BI-1245.110,EC,BI-1245.110-BRA_SITE01-0020,157,EMPAGLIFLOZIN,PERFORMED,Y,Y,,,10.0,,mg,TABLET,QD,ORAL,157.0,,TREATMENT,2024-08-20,2024-08-20,157,157
BI-1245.110,EC,BI-1245.110-BRA_SITE01-0020,158,EMPAGLIFLOZIN,SCHEDULED,Y,,NOT DONE,SUBJECT NON-COMPLIANCE,,,mg,TABLET,QD,ORAL,158.0,,TREATMENT,2024-08-21,2024-08-21,158,158
BI-1245.110,EC,BI-1245.110-BRA_SITE01-0020,159,EMPAGLIFLOZIN,PERFORMED,Y,Y,,,10.0,,mg,TABLET,QD,ORAL,159.0,,TREATMENT,2024-08-22,2024-08-22,159,159
BI-1245.110,EC,BI-1245.110-BRA_SITE01-0020,160,EMPAGLIFLOZIN,SCHEDULED,Y,,NOT DONE,SUBJECT NON-COMPLIANCE,,,mg,TABLET,QD,ORAL,160.0,,TREATMENT,2024-08-23,2024-08-23,160,160
BI-1245.110,EC,BI-1245.110-BRA_SITE01-0020,161,EMPAGLIFLOZIN,PERFORMED,Y,Y,,,10.0,,mg,TABLET,QD,ORAL,161.0,,TREATMENT,2024-08-24,2024-08-24,161,161
BI-1245.110,EC,BI-1245.110-BRA_SITE01-0020,162,EMPAGLIFLOZIN,PERFORMED,Y,Y,,,10.0,,mg,TABLET,QD,ORAL,162.0,,TREATMENT,2024-08-25,2024-08-25,162,162
BI-1245.110,EC,BI-1245.110-BRA_SITE01-0020,163,EMPAGLIFLOZIN,PERFORMED,Y,Y,,,10.0,,mg,TABLET,QD,ORAL,163.0,,TREATMENT,2024-08-26,2024-08-26,163,163
BI-1245.110,EC,BI-1245.110-BRA_SITE01-0020,164,EMPAGLIFLOZIN,PERFORMED,Y,Y,,,10.0,,mg,TABLET,QD,ORAL,164.0,,TREATMENT,2024-08-27,2024-08-27,164,164
BI-1245.110,EC,BI-1245.110-BRA_SITE01-0020,165,EMPAGLIFLOZIN,PERFORMED,Y,Y,,,10.0,,mg,TABLET,QD,ORAL,165.0,,TREATMENT,2024-08-28,2024-08-28,165,165
BI-1245.110,EC,BI-1245.110-BRA_SITE01-0020,166,EMPAGLIFLOZIN,PERFORMED,Y,Y,,,10.0,,mg,TABLET,QD,ORAL,166.0,,TREATMENT,2024-08-29,2024-08-29,166,166
BI-1245.110,EC,BI-1245.110-BRA_SITE01-0020,167,EMPAGLIFLOZIN,PERFORMED,Y,Y,,,10.0,,mg,TABLET,QD,ORAL,167.0,,TREATMENT,2024-08-30,2024-08-30,167,167
BI-1245.110,EC,BI-1245.110-BRA_SITE01-0020,168,EMPAGLIFLOZIN,SCHEDULED,Y,,NOT DONE,SUBJECT NON-COMPLIANCE,,,mg,TABLET,QD,ORAL,168.0,,TREATMENT,2024-08-31,2024-08-31,168,168
BI-1245.110,EC,BI-1245.110-BRA_SITE01-0020,169,EMPAGLIFLOZIN,PERFORMED,Y,Y,,,10.0,,mg,TABLET,QD,ORAL,169.0,,TREATMENT,2024-09-01,2024-09-01,169,169
BI-1245.110,EC,BI-1245.110-BRA_SITE01-0020,170,EMPAGLIFLOZIN,PERFORMED,Y,Y,,,10.0,,mg,TABLET,QD,ORAL,170.0,,TREATMENT,2024-09-02,2024-09-02,170,170
BI-1245.110,EC,BI-1245.110-BRA_SITE01-0020,171,EMPAGLIFLOZIN,SCHEDULED,Y,,NOT DONE,SUBJECT NON-COMPLIANCE,,,mg,TABLET,QD,ORAL,171.0,,TREATMENT,2024-09-03,2024-09-03,171,171
BI-1245.110,EC,BI-1245.110-BRA_SITE01-0020,172,EMPAGLIFLOZIN,PERFORMED,Y,Y,,,10.0,,mg,TABLET,QD,ORAL,172.0,,TREATMENT,2024-09-04,2024-09-04,172,172
BI-1245.110,EC,BI-1245.110-BRA_SITE01-0020,173,EMPAGLIFLOZIN,PERFORMED,Y,Y,,,10.0,,mg,TABLET,QD,ORAL,173.0,,TREATMENT,2024-09-05,2024-09-05,173,173
BI-1245.110,EC,BI-1245.110-BRA_SITE01-0020,174,EMPAGLIFLOZIN,PERFORMED,Y,Y,,,10.0,,mg,TABLET,QD,ORAL,174.0,,TREATMENT,2024-09-06,2024-09-06,174,174
BI-1245.110,EC,BI-1245.110-BRA_SITE01-0020,175,EMPAGLIFLOZIN,SCHEDULED,Y,,NOT DONE,SUBJECT NON-COMPLIANCE,,,mg,TABLET,QD,ORAL,175.0,,TREATMENT,2024-09-07,2024-09-07,175,175
BI-1245.110,EC,BI-1245.110-BRA_SITE01-0020,176,EMPAGLIFLOZIN,PERFORMED,Y,Y,,,10.0,,mg,TABLET,QD,ORAL,176.0,,TREATMENT,2024-09-08,2024-09-08,176,176
BI-1245.110,EC,BI-1245.110-BRA_SITE01-0020,177,EMPAGLIFLOZIN,PERFORMED,Y,Y,,,10.0,,mg,TABLET,QD,ORAL,177.0,,TREATMENT,2024-09-09,2024-09-09,177,177
BI-1245.110,EC,BI-1245.110-BRA_SITE01-0020,178,EMPAGLIFLOZIN,PERFORMED,Y,Y,,,10.0,,mg,TABLET,QD,ORAL,178.0,,TREATMENT,2024-09-10,2024-09-10,178,178
BI-1245.110,EC,BI-1245.110-BRA_SITE01-0020,179,EMPAGLIFLOZIN,PERFORMED,Y,Y,,,10.0,,mg,TABLET,QD,ORAL,179.0,,TREATMENT,2024-09-11,2024-09-11,179,179
BI-1245.110,EC,BI-1245.110-BRA_SITE01-0020,180,EMPAGLIFLOZIN,PERFORMED,Y,Y,,,10.0,,mg,TABLET,QD,ORAL,5.0,MONTH 6,TREATMENT,2024-09-12,2024-09-12,180,180
BI-1245.110,EC,BI-1245.110-BRA_SITE01-0020,181,EMPAGLIFLOZIN,PERFORMED,Y,Y,,,10.0,,mg,TABLET,QD,ORAL,5.0,MONTH 6,TREATMENT,2024-09-13,2024-09-13,181,181
BI-1245.110,EC,BI-1245.110-BRA_SITE01-0020,182,EMPAGLIFLOZIN,PERFORMED,Y,Y,,,10.0,,mg,TABLET,QD,ORAL,5.0,MONTH 6,TREATMENT,2024-09-14,2024-09-14,182,182
BI-1245.110,EC,BI-1245.110-BRA_SITE01-0020,183,EMPAGLIFLOZIN,PERFORMED,Y,Y,,,10.0,,mg,TABLET,QD,ORAL,5.0,MONTH 6,TREATMENT,2024-09-15,2024-09-15,183,183
BI-1245.110,EC,BI-1245.110-BRA_SITE01-0020,184,EMPAGLIFLOZIN,PERFORMED,Y,Y,,,10.0,,mg,TABLET,QD,ORAL,5.0,MONTH 6,TREATMENT,2024-09-16,2024-09-16,184,184
BI-1245.110,EC,BI-1245.110-BRA_SITE01-0020,185,EMPAGLIFLOZIN,PERFORMED,Y,Y,,,10.0,,mg,TABLET,QD,ORAL,5.0,MONTH 6,TREATMENT,2024-09-17,2024-09-17,185,185
BI-1245.110,EC,BI-1245.110-BRA_SITE01-0020,186,EMPAGLIFLOZIN,PERFORMED,Y,Y,,,10.0,,mg,TABLET,QD,ORAL,5.0,MONTH 6,TREATMENT,2024-09-18,2024-09-18,186,186
BI-1245.110,EC,BI-1245.110-BRA_SITE01-0020,187,EMPAGLIFLOZIN,PERFORMED,Y,Y,,,10.0,,mg,TABLET,QD,ORAL,187.0,,TREATMENT,2024-09-19,2024-09-19,187,187
BI-1245.110,EC,BI-1245.110-BRA_SITE01-0020,188,EMPAGLIFLOZIN,PERFORMED,Y,Y,,,10.0,,mg,TABLET,QD,ORAL,188.0,,TREATMENT,2024-09-20,2024-09-20,188,188
BI-1245.110,EC,BI-1245.110-BRA_SITE01-0020,189,EMPAGLIFLOZIN,PERFORMED,Y,Y,,,10.0,,mg,TABLET,QD,ORAL,189.0,,TREATMENT,2024-09-21,2024-09-21,189,189
BI-1245.110,EC,BI-1245.110-BRA_SITE01-0020,190,EMPAGLIFLOZIN,PERFORMED,Y,Y,,,10.0,,mg,TABLET,QD,ORAL,190.0,,TREATMENT,2024-09-22,2024-09-22,190,190
BI-1245.110,EC,BI-1245.110-BRA_SITE01-0020,191,EMPAGLIFLOZIN,PERFORMED,Y,Y,,,10.0,,mg,TABLET,QD,ORAL,191.0,,TREATMENT,2024-09-23,2024-09-23,191,191
BI-1245.110,EC,BI-1245.110-BRA_SITE01-0020,192,EMPAGLIFLOZIN,PERFORMED,Y,Y,,,10.0,,mg,TABLET,QD,ORAL,192.0,,TREATMENT,2024-09-24,2024-09-24,192,192
BI-1245.110,EC,BI-1245.110-BRA_SITE01-0020,193,EMPAGLIFLOZIN,PERFORMED,Y,Y,,,10.0,,mg,TABLET,QD,ORAL,193.0,,TREATMENT,2024-09-25,2024-09-25,193,193
BI-1245.110,EC,BI-1245.110-BRA_SITE01-0020,194,EMPAGLIFLOZIN,PERFORMED,Y,Y,,,10.0,,mg,TABLET,QD,ORAL,194.0,,TREATMENT,2024-09-26,2024-09-26,194,194
BI-1245.110,EC,BI-1245.110-BRA_SITE01-0020,195,EMPAGLIFLOZIN,PERFORMED,Y,Y,,,10.0,,mg,TABLET,QD,ORAL,195.0,,TREATMENT,2024-09-27,2024-09-27,195,195
BI-1245.110,EC,BI-1245.110-BRA_SITE01-0020,196,EMPAGLIFLOZIN,SCHEDULED,Y,,NOT DONE,SUBJECT NON-COMPLIANCE,,,mg,TABLET,QD,ORAL,196.0,,TREATMENT,2024-09-28,2024-09-28,196,196
BI-1245.110,EC,BI-1245.110-BRA_SITE01-0020,197,EMPAGLIFLOZIN,PERFORMED,Y,Y,,,10.0,,mg,TABLET,QD,ORAL,197.0,,TREATMENT,2024-09-29,2024-09-29,197,197
BI-1245.110,EC,BI-1245.110-BRA_SITE01-0020,198,EMPAGLIFLOZIN,PERFORMED,Y,Y,,,10.0,,mg,TABLET,QD,ORAL,198.0,,TREATMENT,2024-09-30,2024-09-30,198,198
BI-1245.110,EC,BI-1245.110-BRA_SITE01-0020,199,EMPAGLIFLOZIN,PERFORMED,Y,Y,,,10.0,,mg,TABLET,QD,ORAL,199.0,,TREATMENT,2024-10-01,2024-10-01,199,199
BI-1245.110,EC,BI-1245.110-BRA_SITE01-0020,200,EMPAGLIFLOZIN,PERFORMED,Y,Y,,,10.0,,mg,TABLET,QD,ORAL,200.0,,TREATMENT,2024-10-02,2024-10-02,200,200
BI-1245.110,EC,BI-1245.110-BRA_SITE01-0020,201,EMPAGLIFLOZIN,SCHEDULED,Y,,NOT DONE,SUBJECT NON-COMPLIANCE,,,mg,TABLET,QD,ORAL,201.0,,TREATMENT,2024-10-03,2024-10-03,201,201
BI-1245.110,EC,BI-1245.110-BRA_SITE01-0020,202,EMPAGLIFLOZIN,PERFORMED,Y,Y,,,10.0,,mg,TABLET,QD,ORAL,202.0,,TREATMENT,2024-10-04,2024-10-04,202,202
BI-1245.110,EC,BI-1245.110-BRA_SITE01-0020,203,EMPAGLIFLOZIN,PERFORMED,Y,Y,,,10.0,,mg,TABLET,QD,ORAL,203.0,,TREATMENT,2024-10-05,2024-10-05,203,203
BI-1245.110,EC,BI-1245.110-BRA_SITE01-0020,204,EMPAGLIFLOZIN,PERFORMED,Y,Y,,,10.0,,mg,TABLET,QD,ORAL,204.0,,TREATMENT,2024-10-06,2024-10-06,204,204
BI-1245.110,EC,BI-1245.110-BRA_SITE01-0020,205,EMPAGLIFLOZIN,PERFORMED,Y,Y,,,10.0,,mg,TABLET,QD,ORAL,205.0,,TREATMENT,2024-10-07,2024-10-07,205,205
BI-1245.110,EC,BI-1245.110-BRA_SITE01-0020,206,EMPAGLIFLOZIN,PERFORMED,Y,Y,,,10.0,,mg,TABLET,QD,ORAL,206.0,,TREATMENT,2024-10-08,2024-10-08,206,206
BI-1245.110,EC,BI-1245.110-BRA_SITE01-0020,207,EMPAGLIFLOZIN,PERFORMED,Y,Y,,,10.0,,mg,TABLET,QD,ORAL,207.0,,TREATMENT,2024-10-09,2024-10-09,207,207
BI-1245.110,EC,BI-1245.110-BRA_SITE01-0020,208,EMPAGLIFLOZIN,PERFORMED,Y,Y,,,10.0,,mg,TABLET,QD,ORAL,208.0,,TREATMENT,2024-10-10,2024-10-10,208,208
BI-1245.110,EC,BI-1245.110-BRA_SITE01-0020,209,EMPAGLIFLOZIN,PERFORMED,Y,Y,,,10.0,,mg,TABLET,QD,ORAL,209.0,,TREATMENT,2024-10-11,2024-10-11,209,209
BI-1245.110,EC,BI-1245.110-BRA_SITE01-0020,210,EMPAGLIFLOZIN,PERFORMED,Y,Y,,,10.0,,mg,TABLET,QD,ORAL,210.0,,TREATMENT,2024-10-12,2024-10-12,210,210
BI-1245.110,EC,BI-1245.110-BRA_SITE01-0020,211,EMPAGLIFLOZIN,PERFORMED,Y,Y,,,10.0,,mg,TABLET,QD,ORAL,211.0,,TREATMENT,2024-10-13,2024-10-13,211,211
BI-1245.110,EC,BI-1245.110-BRA_SITE01-0020,212,EMPAGLIFLOZIN,PERFORMED,Y,Y,,,10.0,,mg,TABLET,QD,ORAL,212.0,,TREATMENT,2024-10-14,2024-10-14,212,212
BI-1245.110,EC,BI-1245.110-BRA_SITE01-0020,213,EMPAGLIFLOZIN,PERFORMED,Y,Y,,,10.0,,mg,TABLET,QD,ORAL,213.0,,TREATMENT,2024-10-15,2024-10-15,213,213
BI-1245.110,EC,BI-1245.110-BRA_SITE01-0020,214,EMPAGLIFLOZIN,PERFORMED,Y,Y,,,10.0,,mg,TABLET,QD,ORAL,214.0,,TREATMENT,2024-10-16,2024-10-16,214,214
BI-1245.110,EC,BI-1245.110-BRA_SITE01-0020,215,EMPAGLIFLOZIN,PERFORMED,Y,Y,,,10.0,,mg,TABLET,QD,ORAL,215.0,,TREATMENT,2024-10-17,2024-10-17,215,215
BI-1245.110,EC,BI-1245.110-BRA_SITE01-0020,216,EMPAGLIFLOZIN,PERFORMED,Y,Y,,,10.0,,mg,TABLET,QD,ORAL,216.0,,TREATMENT,2024-10-18,2024-10-18,216,216
BI-1245.110,EC,BI-1245.110-BRA_SITE01-0020,217,EMPAGLIFLOZIN,PERFORMED,Y,Y,,,10.0,,mg,TABLET,QD,ORAL,217.0,,TREATMENT,2024-10-19,2024-10-19,217,217
BI-1245.110,EC,BI-1245.110-BRA_SITE01-0020,218,EMPAGLIFLOZIN,PERFORMED,Y,Y,,,10.0,,mg,TABLET,QD,ORAL,218.0,,TREATMENT,2024-10-20,2024-10-20,218,218
BI-1245.110,EC,BI-1245.110-BRA_SITE01-0020,219,EMPAGLIFLOZIN,PERFORMED,Y,Y,,,10.0,,mg,TABLET,QD,ORAL,219.0,,TREATMENT,2024-10-21,2024-10-21,219,219
BI-1245.110,EC,BI-1245.110-BRA_SITE01-0020,220,EMPAGLIFLOZIN,PERFORMED,Y,Y,,,10.0,,mg,TABLET,QD,ORAL,220.0,,TREATMENT,2024-10-22,2024-10-22,220,220
BI-1245.110,EC,BI-1245.110-BRA_SITE01-0020,221,EMPAGLIFLOZIN,PERFORMED,Y,Y,,,10.0,,mg,TABLET,QD,ORAL,221.0,,TREATMENT,2024-10-23,2024-10-23,221,221
BI-1245.110,EC,BI-1245.110-BRA_SITE01-0020,222,EMPAGLIFLOZIN,PERFORMED,Y,Y,,,10.0,,mg,TABLET,QD,ORAL,222.0,,TREATMENT,2024-10-24,2024-10-24,222,222
BI-1245.110,EC,BI-1245.110-BRA_SITE01-0020,223,EMPAGLIFLOZIN,PERFORMED,Y,Y,,,10.0,,mg,TABLET,QD,ORAL,223.0,,TREATMENT,2024-10-25,2024-10-25,223,223
BI-1245.110,EC,BI-1245.110-BRA_SITE01-0020,224,EMPAGLIFLOZIN,PERFORMED,Y,Y,,,10.0,,mg,TABLET,QD,ORAL,224.0,,TREATMENT,2024-10-26,2024-10-26,224,224
BI-1245.110,EC,BI-1245.110-BRA_SITE01-0020,225,EMPAGLIFLOZIN,PERFORMED,Y,Y,,,10.0,,mg,TABLET,QD,ORAL,225.0,,TREATMENT,2024-10-27,2024-10-27,225,225
BI-1245.110,EC,BI-1245.110-BRA_SITE01-0020,226,EMPAGLIFLOZIN,PERFORMED,Y,Y,,,10.0,,mg,TABLET,QD,ORAL,226.0,,TREATMENT,2024-10-28,2024-10-28,226,226
BI-1245.110,EC,BI-1245.110-BRA_SITE01-0020,227,EMPAGLIFLOZIN,PERFORMED,Y,Y,,,10.0,,mg,TABLET,QD,ORAL,227.0,,TREATMENT,2024-10-29,2024-10-29,227,227
BI-1245.110,EC,BI-1245.110-BRA_SITE01-0020,228,EMPAGLIFLOZIN,PERFORMED,Y,Y,,,10.0,,mg,TABLET,QD,ORAL,228.0,,TREATMENT,2024-10-30,2024-10-30,228,228
BI-1245.110,EC,BI-1245.110-BRA_SITE01-0020,229,EMPAGLIFLOZIN,PERFORMED,Y,Y,,,10.0,,mg,TABLET,QD,ORAL,229.0,,TREATMENT,2024-10-31,2024-10-31,229,229
BI-1245.110,EC,BI-1245.110-BRA_SITE01-0020,230,EMPAGLIFLOZIN,PERFORMED,Y,Y,,,10.0,,mg,TABLET,QD,ORAL,230.0,,TREATMENT,2024-11-01,2024-11-01,230,230
BI-1245.110,EC,BI-1245.110-BRA_SITE01-0020,231,EMPAGLIFLOZIN,PERFORMED,Y,Y,,,10.0,,mg,TABLET,QD,ORAL,231.0,,TREATMENT,2024-11-02,2024-11-02,231,231
BI-1245.110,EC,BI-1245.110-BRA_SITE01-0020,232,EMPAGLIFLOZIN,PERFORMED,Y,Y,,,10.0,,mg,TABLET,QD,ORAL,232.0,,TREATMENT,2024-11-03,2024-11-03,232,232
BI-1245.110,EC,BI-1245.110-BRA_SITE01-0020,233,EMPAGLIFLOZIN,PERFORMED,Y,Y,,,10.0,,mg,TABLET,QD,ORAL,233.0,,TREATMENT,2024-11-04,2024-11-04,233,233
BI-1245.110,EC,BI-1245.110-BRA_SITE01-0020,234,EMPAGLIFLOZIN,SCHEDULED,Y,,NOT DONE,SUBJECT NON-COMPLIANCE,,,mg,TABLET,QD,ORAL,234.0,,TREATMENT,2024-11-05,2024-11-05,234,234
BI-1245.110,EC,BI-1245.110-BRA_SITE01-0020,235,EMPAGLIFLOZIN,PERFORMED,Y,Y,,,10.0,,mg,TABLET,QD,ORAL,235.0,,TREATMENT,2024-11-06,2024-11-06,235,235
BI-1245.110,EC,BI-1245.110-BRA_SITE01-0020,236,EMPAGLIFLOZIN,PERFORMED,Y,Y,,,10.0,,mg,TABLET,QD,ORAL,236.0,,TREATMENT,2024-11-07,2024-11-07,236,236
BI-1245.110,EC,BI-1245.110-BRA_SITE01-0020,237,EMPAGLIFLOZIN,PERFORMED,Y,Y,,,10.0,,mg,TABLET,QD,ORAL,237.0,,TREATMENT,2024-11-08,2024-11-08,237,237
BI-1245.110,EC,BI-1245.110-BRA_SITE01-0020,238,EMPAGLIFLOZIN,PERFORMED,Y,Y,,,10.0,,mg,TABLET,QD,ORAL,238.0,,TREATMENT,2024-11-09,2024-11-09,238,238
BI-1245.110,EC,BI-1245.110-BRA_SITE01-0020,239,EMPAGLIFLOZIN,PERFORMED,Y,Y,,,10.0,,mg,TABLET,QD,ORAL,239.0,,TREATMENT,2024-11-10,2024-11-10,239,239
BI-1245.110,EC,BI-1245.110-BRA_SITE01-0020,240,EMPAGLIFLOZIN,PERFORMED,Y,Y,,,10.0,,mg,TABLET,QD,ORAL,240.0,,TREATMENT,2024-11-11,2024-11-11,240,240
BI-1245.110,EC,BI-1245.110-BRA_SITE01-0020,241,EMPAGLIFLOZIN,PERFORMED,Y,Y,,,10.0,,mg,TABLET,QD,ORAL,241.0,,TREATMENT,2024-11-12,2024-11-12,241,241
BI-1245.110,EC,BI-1245.110-BRA_SITE01-0020,242,EMPAGLIFLOZIN,PERFORMED,Y,Y,,,10.0,,mg,TABLET,QD,ORAL,242.0,,TREATMENT,2024-11-13,2024-11-13,242,242
BI-1245.110,EC,BI-1245.110-BRA_SITE01-0020,243,EMPAGLIFLOZIN,PERFORMED,Y,Y,,,10.0,,mg,TABLET,QD,ORAL,243.0,,TREATMENT,2024-11-14,2024-11-14,243,243
BI-1245.110,EC,BI-1245.110-BRA_SITE01-0020,244,EMPAGLIFLOZIN,PERFORMED,Y,Y,,,10.0,,mg,TABLET,QD,ORAL,244.0,,TREATMENT,2024-11-15,2024-11-15,244,244
BI-1245.110,EC,BI-1245.110-BRA_SITE01-0020,245,EMPAGLIFLOZIN,PERFORMED,Y,Y,,,10.0,,mg,TABLET,QD,ORAL,245.0,,TREATMENT,2024-11-16,2024-11-16,245,245
BI-1245.110,EC,BI-1245.110-BRA_SITE01-0020,246,EMPAGLIFLOZIN,PERFORMED,Y,Y,,,10.0,,mg,TABLET,QD,ORAL,246.0,,TREATMENT,2024-11-17,2024-11-17,246,246
BI-1245.110,EC,BI-1245.110-BRA_SITE01-0020,247,EMPAGLIFLOZIN,PERFORMED,Y,Y,,,10.0,,mg,TABLET,QD,ORAL,247.0,,TREATMENT,2024-11-18,2024-11-18,247,247
BI-1245.110,EC,BI-1245.110-BRA_SITE01-0020,248,EMPAGLIFLOZIN,PERFORMED,Y,Y,,,10.0,,mg,TABLET,QD,ORAL,248.0,,TREATMENT,2024-11-19,2024-11-19,248,248
BI-1245.110,EC,BI-1245.110-BRA_SITE01-0020,249,EMPAGLIFLOZIN,PERFORMED,Y,Y,,,10.0,,mg,TABLET,QD,ORAL,249.0,,TREATMENT,2024-11-20,2024-11-20,249,249
BI-1245.110,EC,BI-1245.110-BRA_SITE01-0020,250,EMPAGLIFLOZIN,PERFORMED,Y,Y,,,10.0,,mg,TABLET,QD,ORAL,250.0,,TREATMENT,2024-11-21,2024-11-21,250,250
BI-1245.110,EC,BI-1245.110-BRA_SITE01-0020,251,EMPAGLIFLOZIN,PERFORMED,Y,Y,,,10.0,,mg,TABLET,QD,ORAL,251.0,,TREATMENT,2024-11-22,2024-11-22,251,251
BI-1245.110,EC,BI-1245.110-BRA_SITE01-0020,252,EMPAGLIFLOZIN,PERFORMED,Y,Y,,,10.0,,mg,TABLET,QD,ORAL,252.0,,TREATMENT,2024-11-23,2024-11-23,252,252
BI-1245.110,EC,BI-1245.110-BRA_SITE01-0020,253,EMPAGLIFLOZIN,SCHEDULED,Y,,NOT DONE,SUBJECT NON-COMPLIANCE,,,mg,TABLET,QD,ORAL,253.0,,TREATMENT,2024-11-24,2024-11-24,253,253
BI-1245.110,EC,BI-1245.110-BRA_SITE01-0020,254,EMPAGLIFLOZIN,SCHEDULED,Y,,NOT DONE,SUBJECT NON-COMPLIANCE,,,mg,TABLET,QD,ORAL,254.0,,TREATMENT,2024-11-25,2024-11-25,254,254
BI-1245.110,EC,BI-1245.110-BRA_SITE01-0020,255,EMPAGLIFLOZIN,PERFORMED,Y,Y,,,10.0,,mg,TABLET,QD,ORAL,255.0,,TREATMENT,2024-11-26,2024-11-26,255,255
BI-1245.110,EC,BI-1245.110-BRA_SITE01-0020,256,EMPAGLIFLOZIN,PERFORMED,Y,Y,,,10.0,,mg,TABLET,QD,ORAL,256.0,,TREATMENT,2024-11-27,2024-11-27,256,256
BI-1245.110,EC,BI-1245.110-BRA_SITE01-0020,257,EMPAGLIFLOZIN,PERFORMED,Y,Y,,,10.0,,mg,TABLET,QD,ORAL,257.0,,TREATMENT,2024-11-28,2024-11-28,257,257
BI-1245.110,EC,BI-1245.110-BRA_SITE01-0020,258,EMPAGLIFLOZIN,PERFORMED,Y,Y,,,10.0,,mg,TABLET,QD,ORAL,258.0,,TREATMENT,2024-11-29,2024-11-29,258,258
BI-1245.110,EC,BI-1245.110-BRA_SITE01-0020,259,EMPAGLIFLOZIN,PERFORMED,Y,Y,,,10.0,,mg,TABLET,QD,ORAL,259.0,,TREATMENT,2024-11-30,2024-11-30,259,259
BI-1245.110,EC,BI-1245.110-BRA_SITE01-0020,260,EMPAGLIFLOZIN,PERFORMED,Y,Y,,,10.0,,mg,TABLET,QD,ORAL,260.0,,TREATMENT,2024-12-01,2024-12-01,260,260
BI-1245.110,EC,BI-1245.110-BRA_SITE01-0020,261,EMPAGLIFLOZIN,PERFORMED,Y,Y,,,10.0,,mg,TABLET,QD,ORAL,261.0,,TREATMENT,2024-12-02,2024-12-02,261,261
BI-1245.110,EC,BI-1245.110-BRA_SITE01-0020,262,EMPAGLIFLOZIN,PERFORMED,Y,Y,,,10.0,,mg,TABLET,QD,ORAL,262.0,,TREATMENT,2024-12-03,2024-12-03,262,262
BI-1245.110,EC,BI-1245.110-BRA_SITE01-0020,263,EMPAGLIFLOZIN,SCHEDULED,Y,,NOT DONE,SUBJECT NON-COMPLIANCE,,,mg,TABLET,QD,ORAL,263.0,,TREATMENT,2024-12-04,2024-12-04,263,263
BI-1245.110,EC,BI-1245.110-BRA_SITE01-0020,264,EMPAGLIFLOZIN,PERFORMED,Y,Y,,,10.0,,mg,TABLET,QD,ORAL,264.0,,TREATMENT,2024-12-05,2024-12-05,264,264
BI-1245.110,EC,BI-1245.110-BRA_SITE01-0020,265,EMPAGLIFLOZIN,SCHEDULED,Y,,NOT DONE,SUBJECT NON-COMPLIANCE,,,mg,TABLET,QD,ORAL,265.0,,TREATMENT,2024-12-06,2024-12-06,265,265
BI-1245.110,EC,BI-1245.110-BRA_SITE01-0020,266,EMPAGLIFLOZIN,PERFORMED,Y,Y,,,10.0,,mg,TABLET,QD,ORAL,266.0,,TREATMENT,2024-12-07,2024-12-07,266,266
BI-1245.110,EC,BI-1245.110-BRA_SITE01-0020,267,EMPAGLIFLOZIN,PERFORMED,Y,Y,,,10.0,,mg,TABLET,QD,ORAL,267.0,,TREATMENT,2024-12-08,2024-12-08,267,267
BI-1245.110,EC,BI-1245.110-BRA_SITE01-0020,268,EMPAGLIFLOZIN,PERFORMED,Y,Y,,,10.0,,mg,TABLET,QD,ORAL,268.0,,TREATMENT,2024-12-09,2024-12-09,268,268
BI-1245.110,EC,BI-1245.110-BRA_SITE01-0020,269,EMPAGLIFLOZIN,PERFORMED,Y,Y,,,10.0,,mg,TABLET,QD,ORAL,269.0,,TREATMENT,2024-12-10,2024-12-10,269,269
BI-1245.110,EC,BI-1245.110-BRA_SITE01-0020,270,EMPAGLIFLOZIN,PERFORMED,Y,Y,,,10.0,,mg,TABLET,QD,ORAL,270.0,,TREATMENT,2024-12-11,2024-12-11,270,270
BI-1245.110,EC,BI-1245.110-BRA_SITE01-0020,271,EMPAGLIFLOZIN,PERFORMED,Y,Y,,,10.0,,mg,TABLET,QD,ORAL,271.0,,TREATMENT,2024-12-12,2024-12-12,271,271
BI-1245.110,EC,BI-1245.110-BRA_SITE01-0020,272,EMPAGLIFLOZIN,PERFORMED,Y,Y,,,10.0,,mg,TABLET,QD,ORAL,272.0,,TREATMENT,2024-12-13,2024-12-13,272,272
BI-1245.110,EC,BI-1245.110-BRA_SITE01-0020,273,EMPAGLIFLOZIN,PERFORMED,Y,Y,,,10.0,,mg,TABLET,QD,ORAL,273.0,,TREATMENT,2024-12-14,2024-12-14,273,273
BI-1245.110,EC,BI-1245.110-BRA_SITE01-0020,274,EMPAGLIFLOZIN,PERFORMED,Y,Y,,,10.0,,mg,TABLET,QD,ORAL,274.0,,TREATMENT,2024-12-15,2024-12-15,274,274
BI-1245.110,EC,BI-1245.110-BRA_SITE01-0020,275,EMPAGLIFLOZIN,PERFORMED,Y,Y,,,10.0,,mg,TABLET,QD,ORAL,275.0,,TREATMENT,2024-12-16,2024-12-16,275,275
BI-1245.110,EC,BI-1245.110-BRA_SITE01-0020,276,EMPAGLIFLOZIN,SCHEDULED,Y,,NOT DONE,SUBJECT NON-COMPLIANCE,,,mg,TABLET,QD,ORAL,276.0,,TREATMENT,2024-12-17,2024-12-17,276,276
BI-1245.110,EC,BI-1245.110-BRA_SITE01-0020,277,EMPAGLIFLOZIN,PERFORMED,Y,Y,,,10.0,,mg,TABLET,QD,ORAL,277.0,,TREATMENT,2024-12-18,2024-12-18,277,277
BI-1245.110,EC,BI-1245.110-BRA_SITE01-0020,278,EMPAGLIFLOZIN,PERFORMED,Y,Y,,,10.0,,mg,TABLET,QD,ORAL,278.0,,TREATMENT,2024-12-19,2024-12-19,278,278
BI-1245.110,EC,BI-1245.110-BRA_SITE01-0020,279,EMPAGLIFLOZIN,PERFORMED,Y,Y,,,10.0,,mg,TABLET,QD,ORAL,279.0,,TREATMENT,2024-12-20,2024-12-20,279,279
BI-1245.110,EC,BI-1245.110-BRA_SITE01-0020,280,EMPAGLIFLOZIN,PERFORMED,Y,Y,,,10.0,,mg,TABLET,QD,ORAL,280.0,,TREATMENT,2024-12-21,2024-12-21,280,280
BI-1245.110,EC,BI-1245.110-BRA_SITE01-0020,281,EMPAGLIFLOZIN,PERFORMED,Y,Y,,,10.0,,mg,TABLET,QD,ORAL,281.0,,TREATMENT,2024-12-22,2024-12-22,281,281
BI-1245.110,EC,BI-1245.110-BRA_SITE01-0020,282,EMPAGLIFLOZIN,PERFORMED,Y,Y,,,10.0,,mg,TABLET,QD,ORAL,282.0,,TREATMENT,2024-12-23,2024-12-23,282,282
BI-1245.110,EC,BI-1245.110-BRA_SITE01-0020,283,EMPAGLIFLOZIN,PERFORMED,Y,Y,,,10.0,,mg,TABLET,QD,ORAL,283.0,,TREATMENT,2024-12-24,2024-12-24,283,283
BI-1245.110,EC,BI-1245.110-BRA_SITE01-0020,284,EMPAGLIFLOZIN,PERFORMED,Y,Y,,,10.0,,mg,TABLET,QD,ORAL,284.0,,TREATMENT,2024-12-25,2024-12-25,284,284
BI-1245.110,EC,BI-1245.110-BRA_SITE01-0020,285,EMPAGLIFLOZIN,PERFORMED,Y,Y,,,10.0,,mg,TABLET,QD,ORAL,285.0,,TREATMENT,2024-12-26,2024-12-26,285,285
BI-1245.110,EC,BI-1245.110-BRA_SITE01-0020,286,EMPAGLIFLOZIN,PERFORMED,Y,Y,,,10.0,,mg,TABLET,QD,ORAL,286.0,,TREATMENT,2024-12-27,2024-12-27,286,286
BI-1245.110,EC,BI-1245.110-BRA_SITE01-0020,287,EMPAGLIFLOZIN,PERFORMED,Y,Y,,,10.0,,mg,TABLET,QD,ORAL,287.0,,TREATMENT,2024-12-28,2024-12-28,287,287
BI-1245.110,EC,BI-1245.110-BRA_SITE01-0020,288,EMPAGLIFLOZIN,SCHEDULED,Y,,NOT DONE,SUBJECT NON-COMPLIANCE,,,mg,TABLET,QD,ORAL,288.0,,TREATMENT,2024-12-29,2024-12-29,288,288
BI-1245.110,EC,BI-1245.110-BRA_SITE01-0020,289,EMPAGLIFLOZIN,PERFORMED,Y,Y,,,10.0,,mg,TABLET,QD,ORAL,289.0,,TREATMENT,2024-12-30,2024-12-30,289,289
BI-1245.110,EC,BI-1245.110-BRA_SITE01-0020,290,EMPAGLIFLOZIN,PERFORMED,Y,Y,,,10.0,,mg,TABLET,QD,ORAL,290.0,,TREATMENT,2024-12-31,2024-12-31,290,290
BI-1245.110,EC,BI-1245.110-BRA_SITE01-0020,291,EMPAGLIFLOZIN,PERFORMED,Y,Y,,,10.0,,mg,TABLET,QD,ORAL,291.0,,TREATMENT,2025-01-01,2025-01-01,291,291
BI-1245.110,EC,BI-1245.110-BRA_SITE01-0020,292,EMPAGLIFLOZIN,PERFORMED,Y,Y,,,10.0,,mg,TABLET,QD,ORAL,292.0,,TREATMENT,2025-01-02,2025-01-02,292,292
BI-1245.110,EC,BI-1245.110-BRA_SITE01-0020,293,EMPAGLIFLOZIN,PERFORMED,Y,Y,,,10.0,,mg,TABLET,QD,ORAL,293.0,,TREATMENT,2025-01-03,2025-01-03,293,293
BI-1245.110,EC,BI-1245.110-BRA_SITE01-0020,294,EMPAGLIFLOZIN,SCHEDULED,Y,,NOT DONE,SUBJECT NON-COMPLIANCE,,,mg,TABLET,QD,ORAL,294.0,,TREATMENT,2025-01-04,2025-01-04,294,294
BI-1245.110,EC,BI-1245.110-BRA_SITE01-0020,295,EMPAGLIFLOZIN,SCHEDULED,Y,,NOT DONE,SUBJECT NON-COMPLIANCE,,,mg,TABLET,QD,ORAL,295.0,,TREATMENT,2025-01-05,2025-01-05,295,295
BI-1245.110,EC,BI-1245.110-BRA_SITE01-0020,296,EMPAGLIFLOZIN,PERFORMED,Y,Y,,,10.0,,mg,TABLET,QD,ORAL,296.0,,TREATMENT,2025-01-06,2025-01-06,296,296
BI-1245.110,EC,BI-1245.110-BRA_SITE01-0020,297,EMPAGLIFLOZIN,PERFORMED,Y,Y,,,10.0,,mg,TABLET,QD,ORAL,297.0,,TREATMENT,2025-01-07,2025-01-07,297,297
BI-1245.110,EC,BI-1245.110-BRA_SITE01-0020,298,EMPAGLIFLOZIN,PERFORMED,Y,Y,,,10.0,,mg,TABLET,QD,ORAL,298.0,,TREATMENT,2025-01-08,2025-01-08,298,298
BI-1245.110,EC,BI-1245.110-BRA_SITE01-0020,299,EMPAGLIFLOZIN,SCHEDULED,Y,,NOT DONE,SUBJECT NON-COMPLIANCE,,,mg,TABLET,QD,ORAL,299.0,,TREATMENT,2025-01-09,2025-01-09,299,299
BI-1245.110,EC,BI-1245.110-BRA_SITE01-0020,300,EMPAGLIFLOZIN,PERFORMED,Y,Y,,,10.0,,mg,TABLET,QD,ORAL,300.0,,TREATMENT,2025-01-10,2025-01-10,300,300
BI-1245.110,EC,BI-1245.110-BRA_SITE01-0020,301,EMPAGLIFLOZIN,PERFORMED,Y,Y,,,10.0,,mg,TABLET,QD,ORAL,301.0,,TREATMENT,2025-01-11,2025-01-11,301,301
BI-1245.110,EC,BI-1245.110-BRA_SITE01-0020,302,EMPAGLIFLOZIN,PERFORMED,Y,Y,,,10.0,,mg,TABLET,QD,ORAL,302.0,,TREATMENT,2025-01-12,2025-01-12,302,302
BI-1245.110,EC,BI-1245.110-BRA_SITE01-0020,303,EMPAGLIFLOZIN,PERFORMED,Y,Y,,,10.0,,mg,TABLET,QD,ORAL,303.0,,TREATMENT,2025-01-13,2025-01-13,303,303
BI-1245.110,EC,BI-1245.110-BRA_SITE01-0020,304,EMPAGLIFLOZIN,PERFORMED,Y,Y,,,10.0,,mg,TABLET,QD,ORAL,304.0,,TREATMENT,2025-01-14,2025-01-14,304,304
BI-1245.110,EC,BI-1245.110-BRA_SITE01-0020,305,EMPAGLIFLOZIN,PERFORMED,Y,Y,,,10.0,,mg,TABLET,QD,ORAL,305.0,,TREATMENT,2025-01-15,2025-01-15,305,305
BI-1245.110,EC,BI-1245.110-BRA_SITE01-0020,306,EMPAGLIFLOZIN,PERFORMED,Y,Y,,,10.0,,mg,TABLET,QD,ORAL,306.0,,TREATMENT,2025-01-16,2025-01-16,306,306
