STUDYID,DOMAIN,USUBJID,EXSEQ,EXTRT,EXDOSE,EXDOSU,EXDOSFRM,EXDOSFRQ,EXROUTE,EPOCH,EXSTDTC,EXENDTC,EXSTDY,EXENDY
BI-1245.110,EX,BI-1245.110-ARG_SITE01-0017,1,PLACEBO,0.0,mg,TABLET,QD,ORAL,TREATMENT,2024-03-22,2026-04-10,1,750
BI-1245.110,EX,BI-1245.110-BRA_SITE01-0010,1,EMPAGLIFLOZIN,10.0,mg,TABLET,QD,ORAL,TREATMENT,2024-03-20,2024-07-11,1,114
BI-1245.110,EX,BI-1245.110-BRA_SITE01-0010,2,EMPAGLIFLOZIN,5.0,mg,TABLET,QD,ORAL,TREATMENT,2024-07-12,2024-09-06,115,171
BI-1245.110,EX,BI-1245.110-BRA_SITE01-0010,3,EMPAGLIFLOZIN,5.0,mg,TABLET,QD,ORAL,TREATMENT,2024-10-29,2025-01-13,224,300
BI-1245.110,EX,BI-1245.110-BRA_SITE01-0020,1,EMPAGLIFLOZIN,10.0,mg,TABLET,QD,ORAL,TREATMENT,2024-03-17,2024-06-01,1,77
BI-1245.110,EX,BI-1245.110-BRA_SITE01-0020,2,EMPAGLIFLOZIN,10.0,mg,TABLET,QD,ORAL,TREATMENT,2024-06-14,2024-06-29,90,105
BI-1245.110,EX,BI-1245.110-BRA_SITE01-0020,3,EMPAGLIFLOZIN,10.0,mg,TABLET,QD,ORAL,TREATMENT,2024-07-08,2024-07-10,114,116
BI-1245.110,EX,BI-1245.110-BRA_SITE01-0020,4,EMPAGLIFLOZIN,5.0,mg,TABLET,QD,ORAL,TREATMENT,2024-07-11,2024-07-21,117,127
BI-1245.110,EX,BI-1245.110-BRA_SITE01-0020,5,EMPAGLIFLOZIN,5.0,mg,TABLET,QD,ORAL,TREATMENT,2024-07-22,2024-09-10,128,178
BI-1245.110,EX,BI-1245.110-BRA_SITE01-0020,6,EMPAGLIFLOZIN,5.0,mg,TABLET,QD,ORAL,TREATMENT,2024-09-27,2024-10-29,195,227
BI-1245.110,EX,BI-1245.110-BRA_SITE01-0020,7,EMPAGLIFLOZIN,5.0,mg,TABLET,QD,ORAL,TREATMENT,2024-11-11,2025-02-24,240,345
BI-1245.110,EX,BI-1245.110-BRA_SITE01-0020,8,EMPAGLIFLOZIN,5.0,mg,TABLET,QD,ORAL,TREATMENT,2025-02-25,2025-04-13,346,393
BI-1245.110,EX,BI-1245.110-BRA_SITE01-0020,9,EMPAGLIFLOZIN,5.0,mg,TABLET,QD,ORAL,TREATMENT,2025-04-19,2025-07-15,399,486
BI-1245.110,EX,BI-1245.110-BRA_SITE01-0020,10,EMPAGLIFLOZIN,5.0,mg,TABLET,QD,ORAL,TREATMENT,2025-07-16,2025-09-05,487,538
BI-1245.110,EX,BI-1245.110-CAN_SITE01-0008,1,EMPAGLIFLOZIN,10.0,mg,TABLET,QD,ORAL,TREATMENT,2024-03-18,2024-05-11,1,55
BI-1245.110,EX,BI-1245.110-CAN_SITE01-0008,2,EMPAGLIFLOZIN,5.0,mg,TABLET,QD,ORAL,TREATMENT,2024-05-12,2024-07-20,56,125
BI-1245.110,EX,BI-1245.110-CAN_SITE01-0008,3,EMPAGLIFLOZIN,5.0,mg,TABLET,QD,ORAL,TREATMENT,2024-07-21,2024-10-10,126,207
BI-1245.110,EX,BI-1245.110-CAN_SITE01-0008,4,EMPAGLIFLOZIN,5.0,mg,TABLET,QD,ORAL,TREATMENT,2024-10-11,2024-11-22,208,250
BI-1245.110,EX,BI-1245.110-CAN_SITE01-0008,5,EMPAGLIFLOZIN,5.0,mg,TABLET,QD,ORAL,TREATMENT,2024-11-23,2025-03-10,251,358
BI-1245.110,EX,BI-1245.110-CAN_SITE01-0015,1,EMPAGLIFLOZIN,10.0,mg,TABLET,QD,ORAL,TREATMENT,2024-04-25,2025-02-02,1,284
BI-1245.110,EX,BI-1245.110-CAN_SITE01-0015,2,EMPAGLIFLOZIN,10.0,mg,TABLET,QD,ORAL,TREATMENT,2025-03-07,2025-04-19,317,360
BI-1245.110,EX,BI-1245.110-JPN_SITE01-0003,1,PLACEBO,0.0,mg,TABLET,QD,ORAL,TREATMENT,2024-03-12,2026-01-10,1,670
BI-1245.110,EX,BI-1245.110-JPN_SITE01-0013,1,PLACEBO,0.0,mg,TABLET,QD,ORAL,TREATMENT,2024-03-28,2025-03-31,1,369
BI-1245.110,EX,BI-1245.110-JPN_SITE02-0007,1,EMPAGLIFLOZIN,10.0,mg,TABLET,QD,ORAL,TREATMENT,2024-03-21,2025-03-30,1,375
BI-1245.110,EX,BI-1245.110-JPN_SITE02-0014,1,EMPAGLIFLOZIN,10.0,mg,TABLET,QD,ORAL,TREATMENT,2024-03-21,2024-10-13,1,207
BI-1245.110,EX,BI-1245.110-JPN_SITE02-0014,2,EMPAGLIFLOZIN,10.0,mg,TABLET,QD,ORAL,TREATMENT,2024-10-22,2024-12-13,216,268
BI-1245.110,EX,BI-1245.110-JPN_SITE02-0014,3,EMPAGLIFLOZIN,5.0,mg,TABLET,QD,ORAL,TREATMENT,2024-12-14,2025-01-25,269,311
BI-1245.110,EX,BI-1245.110-JPN_SITE02-0014,4,EMPAGLIFLOZIN,5.0,mg,TABLET,QD,ORAL,TREATMENT,2025-01-26,2025-05-09,312,415
BI-1245.110,EX,BI-1245.110-JPN_SITE02-0014,5,EMPAGLIFLOZIN,5.0,mg,TABLET,QD,ORAL,TREATMENT,2025-06-30,2025-09-19,467,548
BI-1245.110,EX,BI-1245.110-JPN_SITE02-0014,6,EMPAGLIFLOZIN,5.0,mg,TABLET,QD,ORAL,TREATMENT,2025-09-20,2026-02-12,549,694
BI-1245.110,EX,BI-1245.110-JPN_SITE02-0014,7,EMPAGLIFLOZIN,5.0,mg,TABLET,QD,ORAL,TREATMENT,2026-03-02,2026-04-29,712,770
BI-1245.110,EX,BI-1245.110-JPN_SITE02-0014,8,EMPAGLIFLOZIN,5.0,mg,TABLET,QD,ORAL,TREATMENT,2026-05-09,2026-05-09,780,780
BI-1245.110,EX,BI-1245.110-KOR_SITE01-0012,1,PLACEBO,0.0,mg,TABLET,QD,ORAL,TREATMENT,2024-05-03,2024-05-16,1,14
BI-1245.110,EX,BI-1245.110-MEX_SITE01-0016,1,EMPAGLIFLOZIN,10.0,mg,TABLET,QD,ORAL,TREATMENT,2024-03-10,2024-03-20,1,11
BI-1245.110,EX,BI-1245.110-MEX_SITE01-0016,2,EMPAGLIFLOZIN,10.0,mg,TABLET,QD,ORAL,TREATMENT,2024-04-10,2024-09-03,32,178
BI-1245.110,EX,BI-1245.110-MEX_SITE01-0016,3,EMPAGLIFLOZIN,5.0,mg,TABLET,QD,ORAL,TREATMENT,2024-09-04,2024-10-18,179,223
BI-1245.110,EX,BI-1245.110-MEX_SITE01-0016,4,EMPAGLIFLOZIN,5.0,mg,TABLET,QD,ORAL,TREATMENT,2024-10-19,2024-11-14,224,250
BI-1245.110,EX,BI-1245.110-MEX_SITE01-0016,5,EMPAGLIFLOZIN,5.0,mg,TABLET,QD,ORAL,TREATMENT,2024-12-25,2025-04-17,291,404
BI-1245.110,EX,BI-1245.110-MEX_SITE01-0016,6,EMPAGLIFLOZIN,5.0,mg,TABLET,QD,ORAL,TREATMENT,2025-04-20,2025-05-03,407,420
BI-1245.110,EX,BI-1245.110-MEX_SITE01-0019,1,PLACEBO,0.0,mg,TABLET,QD,ORAL,TREATMENT,2024-02-29,2025-01-24,1,331
BI-1245.110,EX,BI-1245.110-POL_SITE01-0004,1,PLACEBO,0.0,mg,TABLET,QD,ORAL,TREATMENT,2024-02-12,2024-12-14,1,307
BI-1245.110,EX,BI-1245.110-POL_SITE01-0006,1,PLACEBO,0.0,mg,TABLET,QD,ORAL,TREATMENT,2024-04-12,2025-11-29,1,597
BI-1245.110,EX,BI-1245.110-RUS_SITE01-0011,1,PLACEBO,0.0,mg,TABLET,QD,ORAL,TREATMENT,2024-04-15,2025-10-21,1,555
BI-1245.110,EX,BI-1245.110-USA_SITE01-0005,1,PLACEBO,0.0,mg,TABLET,QD,ORAL,TREATMENT,2024-03-17,2025-10-16,1,579
BI-1245.110,EX,BI-1245.110-USA_SITE01-0018,1,PLACEBO,0.0,mg,TABLET,QD,ORAL,TREATMENT,2024-02-01,2024-02-20,1,20
BI-1245.110,EX,BI-1245.110-USA_SITE02-0002,1,EMPAGLIFLOZIN,10.0,mg,TABLET,QD,ORAL,TREATMENT,2024-04-10,2024-07-23,1,105
BI-1245.110,EX,BI-1245.110-USA_SITE02-0002,2,EMPAGLIFLOZIN,10.0,mg,TABLET,QD,ORAL,TREATMENT,2024-08-04,2025-02-11,117,308
BI-1245.110,EX,BI-1245.110-USA_SITE02-0002,3,EMPAGLIFLOZIN,5.0,mg,TABLET,QD,ORAL,TREATMENT,2025-02-12,2025-05-22,309,408
