STUDYID,DOMAIN,USUBJID,IESEQ,IETESTCD,IETEST,IECAT,IEORRES,IESTRESC,VISITNUM,VISIT,EPOCH,IEDTC,IEDY
BI-1245.110,IE,BI-1245.110-GBR_SITE01-0009,1,EXCL05,Subject has participated in another clinical trial within 30 days,EXCLUSION,Y,Y,1.0,SCREENING,SCREENING,2024-02-27,
BI-1245.110,IE,BI-1245.110-USA_SITE01-0001,1,INCL03,Subject meets diagnosis criteria for the study indication,INCLUSION,N,N,1.0,SCREENING,SCREENING,2024-02-23,
