STUDYID,DOMAIN,USUBJID,IESEQ,IETESTCD,IETEST,IECAT,IEORRES,IESTRESC,VISITNUM,VISIT,EPOCH,IEDTC,IEDY
NBI-1065846-MDD2020-TERPSIS,IE,NBI-1065846-MDD2020-TERPSIS-USA_SITE02-0015,1,EXCL04,Subject has uncontrolled concurrent illness,EXCLUSION,Y,Y,1.0,SCREENING,SCREENING,2024-02-23,
NBI-1065846-MDD2020-TERPSIS,IE,NBI-1065846-MDD2020-TERPSIS-USA_SITE04-0018,1,EXCL01,Subject has a known hypersensitivity to study drug or excipients,EXCLUSION,Y,Y,1.0,SCREENING,SCREENING,2024-03-04,
NBI-1065846-MDD2020-TERPSIS,IE,NBI-1065846-MDD2020-TERPSIS-USA_SITE09-0014,1,EXCL04,Subject has uncontrolled concurrent illness,EXCLUSION,Y,Y,1.0,SCREENING,SCREENING,2024-02-14,
NBI-1065846-MDD2020-TERPSIS,IE,NBI-1065846-MDD2020-TERPSIS-USA_SITE10-0020,1,EXCL01,Subject has a known hypersensitivity to study drug or excipients,EXCLUSION,Y,Y,1.0,SCREENING,SCREENING,2024-03-09,
