STUDYID,DOMAIN,USUBJID,DASEQ,DATESTCD,DATEST,DAORRES,DAORRESU,DASTRESC,DASTRESN,DASTRESU,VISITNUM,VISIT,EPOCH,DADTC,DADY
MS200095-0022-VISION,DA,MS200095-0022-VISION-CHN_SITE01-0001,1,DISPAMT,Dispensed Amount,1,TABLET,1,1.0,TABLET,2.0,C1D1,TREATMENT,2024-02-25,1
MS200095-0022-VISION,DA,MS200095-0022-VISION-CHN_SITE01-0001,2,DISPAMT,Dispensed Amount,1,TABLET,1,1.0,TABLET,2.0,C1D1,TREATMENT,2024-02-26,2
MS200095-0022-VISION,DA,MS200095-0022-VISION-CHN_SITE01-0001,3,DISPAMT,Dispensed Amount,1,TABLET,1,1.0,TABLET,2.0,C1D1,TREATMENT,2024-02-27,3
MS200095-0022-VISION,DA,MS200095-0022-VISION-CHN_SITE01-0001,4,DISPAMT,Dispensed Amount,1,TABLET,1,1.0,TABLET,2.0,C1D1,TREATMENT,2024-02-28,4
MS200095-0022-VISION,DA,MS200095-0022-VISION-CHN_SITE01-0001,5,REMAMT,Remaining Amount,1,TABLET,1,1.0,TABLET,2.0,C1D1,TREATMENT,2024-02-25,1
MS200095-0022-VISION,DA,MS200095-0022-VISION-CHN_SITE01-0001,6,REMAMT,Remaining Amount,0.1,TABLET,0.1,0.1,TABLET,2.0,C1D1,TREATMENT,2024-02-26,2
MS200095-0022-VISION,DA,MS200095-0022-VISION-CHN_SITE01-0001,7,REMAMT,Remaining Amount,1,TABLET,1,1.0,TABLET,2.0,C1D1,TREATMENT,2024-02-27,3
MS200095-0022-VISION,DA,MS200095-0022-VISION-CHN_SITE01-0001,8,REMAMT,Remaining Amount,0.1,TABLET,0.1,0.1,TABLET,2.0,C1D1,TREATMENT,2024-02-28,4
MS200095-0022-VISION,DA,MS200095-0022-VISION-CHN_SITE01-0001,9,RETAMT,Returned Amount,1,TABLET,1,1.0,TABLET,2.0,C1D1,TREATMENT,2024-02-25,1
MS200095-0022-VISION,DA,MS200095-0022-VISION-CHN_SITE01-0001,10,RETAMT,Returned Amount,0.1,TABLET,0.1,0.1,TABLET,2.0,C1D1,TREATMENT,2024-02-26,2
MS200095-0022-VISION,DA,MS200095-0022-VISION-CHN_SITE01-0001,11,RETAMT,Returned Amount,1,TABLET,1,1.0,TABLET,2.0,C1D1,TREATMENT,2024-02-27,3
MS200095-0022-VISION,DA,MS200095-0022-VISION-CHN_SITE01-0001,12,RETAMT,Returned Amount,0.1,TABLET,0.1,0.1,TABLET,2.0,C1D1,TREATMENT,2024-02-28,4
MS200095-0022-VISION,DA,MS200095-0022-VISION-CHN_SITE01-0001,13,DISPAMT,Dispensed Amount,1,TABLET,1,1.0,TABLET,5.0,,TREATMENT,2024-02-29,5
MS200095-0022-VISION,DA,MS200095-0022-VISION-CHN_SITE01-0001,14,REMAMT,Remaining Amount,0.1,TABLET,0.1,0.1,TABLET,5.0,,TREATMENT,2024-02-29,5
MS200095-0022-VISION,DA,MS200095-0022-VISION-CHN_SITE01-0001,15,RETAMT,Returned Amount,0.1,TABLET,0.1,0.1,TABLET,5.0,,TREATMENT,2024-02-29,5
MS200095-0022-VISION,DA,MS200095-0022-VISION-CHN_SITE01-0001,16,DISPAMT,Dispensed Amount,1,TABLET,1,1.0,TABLET,6.0,,TREATMENT,2024-03-01,6
MS200095-0022-VISION,DA,MS200095-0022-VISION-CHN_SITE01-0001,17,REMAMT,Remaining Amount,0.0,TABLET,0.0,0.0,TABLET,6.0,,TREATMENT,2024-03-01,6
MS200095-0022-VISION,DA,MS200095-0022-VISION-CHN_SITE01-0001,18,RETAMT,Returned Amount,0.0,TABLET,0.0,0.0,TABLET,6.0,,TREATMENT,2024-03-01,6
MS200095-0022-VISION,DA,MS200095-0022-VISION-CHN_SITE01-0001,19,DISPAMT,Dispensed Amount,1,TABLET,1,1.0,TABLET,7.0,,TREATMENT,2024-03-02,7
MS200095-0022-VISION,DA,MS200095-0022-VISION-CHN_SITE01-0001,20,REMAMT,Remaining Amount,0.1,TABLET,0.1,0.1,TABLET,7.0,,TREATMENT,2024-03-02,7
MS200095-0022-VISION,DA,MS200095-0022-VISION-CHN_SITE01-0001,21,RETAMT,Returned Amount,0.1,TABLET,0.1,0.1,TABLET,7.0,,TREATMENT,2024-03-02,7
MS200095-0022-VISION,DA,MS200095-0022-VISION-CHN_SITE01-0001,22,DISPAMT,Dispensed Amount,1,TABLET,1,1.0,TABLET,8.0,,TREATMENT,2024-03-03,8
MS200095-0022-VISION,DA,MS200095-0022-VISION-CHN_SITE01-0001,23,REMAMT,Remaining Amount,0.1,TABLET,0.1,0.1,TABLET,8.0,,TREATMENT,2024-03-03,8
MS200095-0022-VISION,DA,MS200095-0022-VISION-CHN_SITE01-0001,24,RETAMT,Returned Amount,0.1,TABLET,0.1,0.1,TABLET,8.0,,TREATMENT,2024-03-03,8
MS200095-0022-VISION,DA,MS200095-0022-VISION-CHN_SITE01-0001,25,DISPAMT,Dispensed Amount,1,TABLET,1,1.0,TABLET,9.0,,TREATMENT,2024-03-04,9
MS200095-0022-VISION,DA,MS200095-0022-VISION-CHN_SITE01-0001,26,REMAMT,Remaining Amount,0.1,TABLET,0.1,0.1,TABLET,9.0,,TREATMENT,2024-03-04,9
MS200095-0022-VISION,DA,MS200095-0022-VISION-CHN_SITE01-0001,27,RETAMT,Returned Amount,0.1,TABLET,0.1,0.1,TABLET,9.0,,TREATMENT,2024-03-04,9
MS200095-0022-VISION,DA,MS200095-0022-VISION-CHN_SITE01-0001,28,DISPAMT,Dispensed Amount,14,TABLET,14,14.0,TABLET,10.0,,TREATMENT,2024-03-05,10
MS200095-0022-VISION,DA,MS200095-0022-VISION-CHN_SITE01-0001,29,REMAMT,Remaining Amount,1.4,TABLET,1.4,1.4,TABLET,10.0,,TREATMENT,2024-03-05,10
MS200095-0022-VISION,DA,MS200095-0022-VISION-CHN_SITE01-0001,30,RETAMT,Returned Amount,1.4,TABLET,1.4,1.4,TABLET,10.0,,TREATMENT,2024-03-05,10
MS200095-0022-VISION,DA,MS200095-0022-VISION-CHN_SITE01-0015,1,DISPAMT,Dispensed Amount,1,TABLET,1,1.0,TABLET,2.0,C1D1,TREATMENT,2024-05-03,1
MS200095-0022-VISION,DA,MS200095-0022-VISION-CHN_SITE01-0015,2,DISPAMT,Dispensed Amount,1,TABLET,1,1.0,TABLET,2.0,C1D1,TREATMENT,2024-05-04,2
MS200095-0022-VISION,DA,MS200095-0022-VISION-CHN_SITE01-0015,3,DISPAMT,Dispensed Amount,1,TABLET,1,1.0,TABLET,2.0,C1D1,TREATMENT,2024-05-05,3
MS200095-0022-VISION,DA,MS200095-0022-VISION-CHN_SITE01-0015,4,DISPAMT,Dispensed Amount,1,TABLET,1,1.0,TABLET,2.0,C1D1,TREATMENT,2024-05-06,4
MS200095-0022-VISION,DA,MS200095-0022-VISION-CHN_SITE01-0015,5,REMAMT,Remaining Amount,0.0,TABLET,0.0,0.0,TABLET,2.0,C1D1,TREATMENT,2024-05-03,1
MS200095-0022-VISION,DA,MS200095-0022-VISION-CHN_SITE01-0015,6,REMAMT,Remaining Amount,0.1,TABLET,0.1,0.1,TABLET,2.0,C1D1,TREATMENT,2024-05-04,2
MS200095-0022-VISION,DA,MS200095-0022-VISION-CHN_SITE01-0015,7,REMAMT,Remaining Amount,0.1,TABLET,0.1,0.1,TABLET,2.0,C1D1,TREATMENT,2024-05-05,3
MS200095-0022-VISION,DA,MS200095-0022-VISION-CHN_SITE01-0015,8,REMAMT,Remaining Amount,0.0,TABLET,0.0,0.0,TABLET,2.0,C1D1,TREATMENT,2024-05-06,4
MS200095-0022-VISION,DA,MS200095-0022-VISION-CHN_SITE01-0015,9,RETAMT,Returned Amount,0.0,TABLET,0.0,0.0,TABLET,2.0,C1D1,TREATMENT,2024-05-03,1
MS200095-0022-VISION,DA,MS200095-0022-VISION-CHN_SITE01-0015,10,RETAMT,Returned Amount,0.1,TABLET,0.1,0.1,TABLET,2.0,C1D1,TREATMENT,2024-05-04,2
MS200095-0022-VISION,DA,MS200095-0022-VISION-CHN_SITE01-0015,11,RETAMT,Returned Amount,0.1,TABLET,0.1,0.1,TABLET,2.0,C1D1,TREATMENT,2024-05-05,3
MS200095-0022-VISION,DA,MS200095-0022-VISION-CHN_SITE01-0015,12,RETAMT,Returned Amount,0.0,TABLET,0.0,0.0,TABLET,2.0,C1D1,TREATMENT,2024-05-06,4
MS200095-0022-VISION,DA,MS200095-0022-VISION-CHN_SITE01-0015,13,DISPAMT,Dispensed Amount,1,TABLET,1,1.0,TABLET,3.0,C1D15,TREATMENT,2024-05-14,12
MS200095-0022-VISION,DA,MS200095-0022-VISION-CHN_SITE01-0015,14,DISPAMT,Dispensed Amount,1,TABLET,1,1.0,TABLET,3.0,C1D15,TREATMENT,2024-05-15,13
MS200095-0022-VISION,DA,MS200095-0022-VISION-CHN_SITE01-0015,15,DISPAMT,Dispensed Amount,1,TABLET,1,1.0,TABLET,3.0,C1D15,TREATMENT,2024-05-16,14
MS200095-0022-VISION,DA,MS200095-0022-VISION-CHN_SITE01-0015,16,DISPAMT,Dispensed Amount,1,TABLET,1,1.0,TABLET,3.0,C1D15,TREATMENT,2024-05-17,15
MS200095-0022-VISION,DA,MS200095-0022-VISION-CHN_SITE01-0015,17,DISPAMT,Dispensed Amount,1,TABLET,1,1.0,TABLET,3.0,C1D15,TREATMENT,2024-05-18,16
MS200095-0022-VISION,DA,MS200095-0022-VISION-CHN_SITE01-0015,18,DISPAMT,Dispensed Amount,1,TABLET,1,1.0,TABLET,3.0,C1D15,TREATMENT,2024-05-19,17
MS200095-0022-VISION,DA,MS200095-0022-VISION-CHN_SITE01-0015,19,DISPAMT,Dispensed Amount,1,TABLET,1,1.0,TABLET,3.0,C1D15,TREATMENT,2024-05-20,18
MS200095-0022-VISION,DA,MS200095-0022-VISION-CHN_SITE01-0015,20,REMAMT,Remaining Amount,0.1,TABLET,0.1,0.1,TABLET,3.0,C1D15,TREATMENT,2024-05-14,12
MS200095-0022-VISION,DA,MS200095-0022-VISION-CHN_SITE01-0015,21,REMAMT,Remaining Amount,0.1,TABLET,0.1,0.1,TABLET,3.0,C1D15,TREATMENT,2024-05-15,13
MS200095-0022-VISION,DA,MS200095-0022-VISION-CHN_SITE01-0015,22,REMAMT,Remaining Amount,0.1,TABLET,0.1,0.1,TABLET,3.0,C1D15,TREATMENT,2024-05-16,14
MS200095-0022-VISION,DA,MS200095-0022-VISION-CHN_SITE01-0015,23,REMAMT,Remaining Amount,0.1,TABLET,0.1,0.1,TABLET,3.0,C1D15,TREATMENT,2024-05-17,15
MS200095-0022-VISION,DA,MS200095-0022-VISION-CHN_SITE01-0015,24,REMAMT,Remaining Amount,0.1,TABLET,0.1,0.1,TABLET,3.0,C1D15,TREATMENT,2024-05-18,16
MS200095-0022-VISION,DA,MS200095-0022-VISION-CHN_SITE01-0015,25,REMAMT,Remaining Amount,0.1,TABLET,0.1,0.1,TABLET,3.0,C1D15,TREATMENT,2024-05-19,17
MS200095-0022-VISION,DA,MS200095-0022-VISION-CHN_SITE01-0015,26,REMAMT,Remaining Amount,0.1,TABLET,0.1,0.1,TABLET,3.0,C1D15,TREATMENT,2024-05-20,18
MS200095-0022-VISION,DA,MS200095-0022-VISION-CHN_SITE01-0015,27,RETAMT,Returned Amount,0.1,TABLET,0.1,0.1,TABLET,3.0,C1D15,TREATMENT,2024-05-14,12
MS200095-0022-VISION,DA,MS200095-0022-VISION-CHN_SITE01-0015,28,RETAMT,Returned Amount,0.1,TABLET,0.1,0.1,TABLET,3.0,C1D15,TREATMENT,2024-05-15,13
MS200095-0022-VISION,DA,MS200095-0022-VISION-CHN_SITE01-0015,29,RETAMT,Returned Amount,0.1,TABLET,0.1,0.1,TABLET,3.0,C1D15,TREATMENT,2024-05-16,14
MS200095-0022-VISION,DA,MS200095-0022-VISION-CHN_SITE01-0015,30,RETAMT,Returned Amount,0.1,TABLET,0.1,0.1,TABLET,3.0,C1D15,TREATMENT,2024-05-17,15
MS200095-0022-VISION,DA,MS200095-0022-VISION-CHN_SITE01-0015,31,RETAMT,Returned Amount,0.1,TABLET,0.1,0.1,TABLET,3.0,C1D15,TREATMENT,2024-05-18,16
MS200095-0022-VISION,DA,MS200095-0022-VISION-CHN_SITE01-0015,32,RETAMT,Returned Amount,0.1,TABLET,0.1,0.1,TABLET,3.0,C1D15,TREATMENT,2024-05-19,17
MS200095-0022-VISION,DA,MS200095-0022-VISION-CHN_SITE01-0015,33,RETAMT,Returned Amount,0.1,TABLET,0.1,0.1,TABLET,3.0,C1D15,TREATMENT,2024-05-20,18
MS200095-0022-VISION,DA,MS200095-0022-VISION-CHN_SITE01-0015,34,DISPAMT,Dispensed Amount,1,TABLET,1,1.0,TABLET,4.0,C2D1,TREATMENT,2024-05-21,19
MS200095-0022-VISION,DA,MS200095-0022-VISION-CHN_SITE01-0015,35,DISPAMT,Dispensed Amount,1,TABLET,1,1.0,TABLET,4.0,C2D1,TREATMENT,2024-05-22,20
MS200095-0022-VISION,DA,MS200095-0022-VISION-CHN_SITE01-0015,36,DISPAMT,Dispensed Amount,1,TABLET,1,1.0,TABLET,4.0,C2D1,TREATMENT,2024-05-23,21
MS200095-0022-VISION,DA,MS200095-0022-VISION-CHN_SITE01-0015,37,DISPAMT,Dispensed Amount,1,TABLET,1,1.0,TABLET,4.0,C2D1,TREATMENT,2024-05-24,22
MS200095-0022-VISION,DA,MS200095-0022-VISION-CHN_SITE01-0015,38,DISPAMT,Dispensed Amount,1,TABLET,1,1.0,TABLET,4.0,C2D1,TREATMENT,2024-05-25,23
MS200095-0022-VISION,DA,MS200095-0022-VISION-CHN_SITE01-0015,39,DISPAMT,Dispensed Amount,1,TABLET,1,1.0,TABLET,4.0,C2D1,TREATMENT,2024-05-26,24
MS200095-0022-VISION,DA,MS200095-0022-VISION-CHN_SITE01-0015,40,DISPAMT,Dispensed Amount,1,TABLET,1,1.0,TABLET,4.0,C2D1,TREATMENT,2024-05-27,25
MS200095-0022-VISION,DA,MS200095-0022-VISION-CHN_SITE01-0015,41,REMAMT,Remaining Amount,0.1,TABLET,0.1,0.1,TABLET,4.0,C2D1,TREATMENT,2024-05-21,19
MS200095-0022-VISION,DA,MS200095-0022-VISION-CHN_SITE01-0015,42,REMAMT,Remaining Amount,0.1,TABLET,0.1,0.1,TABLET,4.0,C2D1,TREATMENT,2024-05-22,20
MS200095-0022-VISION,DA,MS200095-0022-VISION-CHN_SITE01-0015,43,REMAMT,Remaining Amount,0.1,TABLET,0.1,0.1,TABLET,4.0,C2D1,TREATMENT,2024-05-23,21
MS200095-0022-VISION,DA,MS200095-0022-VISION-CHN_SITE01-0015,44,REMAMT,Remaining Amount,1,TABLET,1,1.0,TABLET,4.0,C2D1,TREATMENT,2024-05-24,22
MS200095-0022-VISION,DA,MS200095-0022-VISION-CHN_SITE01-0015,45,REMAMT,Remaining Amount,0.0,TABLET,0.0,0.0,TABLET,4.0,C2D1,TREATMENT,2024-05-25,23
MS200095-0022-VISION,DA,MS200095-0022-VISION-CHN_SITE01-0015,46,REMAMT,Remaining Amount,0.1,TABLET,0.1,0.1,TABLET,4.0,C2D1,TREATMENT,2024-05-26,24
MS200095-0022-VISION,DA,MS200095-0022-VISION-CHN_SITE01-0015,47,REMAMT,Remaining Amount,1,TABLET,1,1.0,TABLET,4.0,C2D1,TREATMENT,2024-05-27,25
MS200095-0022-VISION,DA,MS200095-0022-VISION-CHN_SITE01-0015,48,RETAMT,Returned Amount,0.1,TABLET,0.1,0.1,TABLET,4.0,C2D1,TREATMENT,2024-05-21,19
MS200095-0022-VISION,DA,MS200095-0022-VISION-CHN_SITE01-0015,49,RETAMT,Returned Amount,0.1,TABLET,0.1,0.1,TABLET,4.0,C2D1,TREATMENT,2024-05-22,20
MS200095-0022-VISION,DA,MS200095-0022-VISION-CHN_SITE01-0015,50,RETAMT,Returned Amount,0.1,TABLET,0.1,0.1,TABLET,4.0,C2D1,TREATMENT,2024-05-23,21
MS200095-0022-VISION,DA,MS200095-0022-VISION-CHN_SITE01-0015,51,RETAMT,Returned Amount,1,TABLET,1,1.0,TABLET,4.0,C2D1,TREATMENT,2024-05-24,22
MS200095-0022-VISION,DA,MS200095-0022-VISION-CHN_SITE01-0015,52,RETAMT,Returned Amount,0.0,TABLET,0.0,0.0,TABLET,4.0,C2D1,TREATMENT,2024-05-25,23
MS200095-0022-VISION,DA,MS200095-0022-VISION-CHN_SITE01-0015,53,RETAMT,Returned Amount,0.1,TABLET,0.1,0.1,TABLET,4.0,C2D1,TREATMENT,2024-05-26,24
MS200095-0022-VISION,DA,MS200095-0022-VISION-CHN_SITE01-0015,54,RETAMT,Returned Amount,1,TABLET,1,1.0,TABLET,4.0,C2D1,TREATMENT,2024-05-27,25
MS200095-0022-VISION,DA,MS200095-0022-VISION-CHN_SITE01-0015,55,DISPAMT,Dispensed Amount,1,TABLET,1,1.0,TABLET,5.0,,TREATMENT,2024-05-07,5
MS200095-0022-VISION,DA,MS200095-0022-VISION-CHN_SITE01-0015,56,DISPAMT,Dispensed Amount,1,TABLET,1,1.0,TABLET,5.0,C3D1,TREATMENT,2024-06-11,40
MS200095-0022-VISION,DA,MS200095-0022-VISION-CHN_SITE01-0015,57,DISPAMT,Dispensed Amount,1,TABLET,1,1.0,TABLET,5.0,C3D1,TREATMENT,2024-06-12,41
MS200095-0022-VISION,DA,MS200095-0022-VISION-CHN_SITE01-0015,58,DISPAMT,Dispensed Amount,1,TABLET,1,1.0,TABLET,5.0,C3D1,TREATMENT,2024-06-13,42
MS200095-0022-VISION,DA,MS200095-0022-VISION-CHN_SITE01-0015,59,DISPAMT,Dispensed Amount,1,TABLET,1,1.0,TABLET,5.0,C3D1,TREATMENT,2024-06-14,43
MS200095-0022-VISION,DA,MS200095-0022-VISION-CHN_SITE01-0015,60,DISPAMT,Dispensed Amount,1,TABLET,1,1.0,TABLET,5.0,C3D1,TREATMENT,2024-06-15,44
MS200095-0022-VISION,DA,MS200095-0022-VISION-CHN_SITE01-0015,61,DISPAMT,Dispensed Amount,1,TABLET,1,1.0,TABLET,5.0,C3D1,TREATMENT,2024-06-16,45
MS200095-0022-VISION,DA,MS200095-0022-VISION-CHN_SITE01-0015,62,DISPAMT,Dispensed Amount,1,TABLET,1,1.0,TABLET,5.0,C3D1,TREATMENT,2024-06-17,46
MS200095-0022-VISION,DA,MS200095-0022-VISION-CHN_SITE01-0015,63,REMAMT,Remaining Amount,1,TABLET,1,1.0,TABLET,5.0,,TREATMENT,2024-05-07,5
MS200095-0022-VISION,DA,MS200095-0022-VISION-CHN_SITE01-0015,64,REMAMT,Remaining Amount,0.1,TABLET,0.1,0.1,TABLET,5.0,C3D1,TREATMENT,2024-06-11,40
MS200095-0022-VISION,DA,MS200095-0022-VISION-CHN_SITE01-0015,65,REMAMT,Remaining Amount,0.1,TABLET,0.1,0.1,TABLET,5.0,C3D1,TREATMENT,2024-06-12,41
MS200095-0022-VISION,DA,MS200095-0022-VISION-CHN_SITE01-0015,66,REMAMT,Remaining Amount,1,TABLET,1,1.0,TABLET,5.0,C3D1,TREATMENT,2024-06-13,42
MS200095-0022-VISION,DA,MS200095-0022-VISION-CHN_SITE01-0015,67,REMAMT,Remaining Amount,0.0,TABLET,0.0,0.0,TABLET,5.0,C3D1,TREATMENT,2024-06-14,43
MS200095-0022-VISION,DA,MS200095-0022-VISION-CHN_SITE01-0015,68,REMAMT,Remaining Amount,0.1,TABLET,0.1,0.1,TABLET,5.0,C3D1,TREATMENT,2024-06-15,44
MS200095-0022-VISION,DA,MS200095-0022-VISION-CHN_SITE01-0015,69,REMAMT,Remaining Amount,1,TABLET,1,1.0,TABLET,5.0,C3D1,TREATMENT,2024-06-16,45
MS200095-0022-VISION,DA,MS200095-0022-VISION-CHN_SITE01-0015,70,REMAMT,Remaining Amount,0.1,TABLET,0.1,0.1,TABLET,5.0,C3D1,TREATMENT,2024-06-17,46
MS200095-0022-VISION,DA,MS200095-0022-VISION-CHN_SITE01-0015,71,RETAMT,Returned Amount,1,TABLET,1,1.0,TABLET,5.0,,TREATMENT,2024-05-07,5
MS200095-0022-VISION,DA,MS200095-0022-VISION-CHN_SITE01-0015,72,RETAMT,Returned Amount,0.1,TABLET,0.1,0.1,TABLET,5.0,C3D1,TREATMENT,2024-06-11,40
MS200095-0022-VISION,DA,MS200095-0022-VISION-CHN_SITE01-0015,73,RETAMT,Returned Amount,0.1,TABLET,0.1,0.1,TABLET,5.0,C3D1,TREATMENT,2024-06-12,41
MS200095-0022-VISION,DA,MS200095-0022-VISION-CHN_SITE01-0015,74,RETAMT,Returned Amount,1,TABLET,1,1.0,TABLET,5.0,C3D1,TREATMENT,2024-06-13,42
MS200095-0022-VISION,DA,MS200095-0022-VISION-CHN_SITE01-0015,75,RETAMT,Returned Amount,0.0,TABLET,0.0,0.0,TABLET,5.0,C3D1,TREATMENT,2024-06-14,43
MS200095-0022-VISION,DA,MS200095-0022-VISION-CHN_SITE01-0015,76,RETAMT,Returned Amount,0.1,TABLET,0.1,0.1,TABLET,5.0,C3D1,TREATMENT,2024-06-15,44
MS200095-0022-VISION,DA,MS200095-0022-VISION-CHN_SITE01-0015,77,RETAMT,Returned Amount,1,TABLET,1,1.0,TABLET,5.0,C3D1,TREATMENT,2024-06-16,45
MS200095-0022-VISION,DA,MS200095-0022-VISION-CHN_SITE01-0015,78,RETAMT,Returned Amount,0.1,TABLET,0.1,0.1,TABLET,5.0,C3D1,TREATMENT,2024-06-17,46
MS200095-0022-VISION,DA,MS200095-0022-VISION-CHN_SITE01-0015,79,DISPAMT,Dispensed Amount,1,TABLET,1,1.0,TABLET,6.0,,TREATMENT,2024-05-08,6
MS200095-0022-VISION,DA,MS200095-0022-VISION-CHN_SITE01-0015,80,DISPAMT,Dispensed Amount,1,TABLET,1,1.0,TABLET,6.0,C4D1,TREATMENT,2024-07-02,61
MS200095-0022-VISION,DA,MS200095-0022-VISION-CHN_SITE01-0015,81,DISPAMT,Dispensed Amount,1,TABLET,1,1.0,TABLET,6.0,C4D1,TREATMENT,2024-07-03,62
MS200095-0022-VISION,DA,MS200095-0022-VISION-CHN_SITE01-0015,82,DISPAMT,Dispensed Amount,1,TABLET,1,1.0,TABLET,6.0,C4D1,TREATMENT,2024-07-04,63
MS200095-0022-VISION,DA,MS200095-0022-VISION-CHN_SITE01-0015,83,DISPAMT,Dispensed Amount,1,TABLET,1,1.0,TABLET,6.0,C4D1,TREATMENT,2024-07-05,64
MS200095-0022-VISION,DA,MS200095-0022-VISION-CHN_SITE01-0015,84,DISPAMT,Dispensed Amount,1,TABLET,1,1.0,TABLET,6.0,C4D1,TREATMENT,2024-07-06,65
MS200095-0022-VISION,DA,MS200095-0022-VISION-CHN_SITE01-0015,85,DISPAMT,Dispensed Amount,1,TABLET,1,1.0,TABLET,6.0,C4D1,TREATMENT,2024-07-07,66
MS200095-0022-VISION,DA,MS200095-0022-VISION-CHN_SITE01-0015,86,DISPAMT,Dispensed Amount,1,TABLET,1,1.0,TABLET,6.0,C4D1,TREATMENT,2024-07-08,67
MS200095-0022-VISION,DA,MS200095-0022-VISION-CHN_SITE01-0015,87,REMAMT,Remaining Amount,0.1,TABLET,0.1,0.1,TABLET,6.0,,TREATMENT,2024-05-08,6
MS200095-0022-VISION,DA,MS200095-0022-VISION-CHN_SITE01-0015,88,REMAMT,Remaining Amount,0.1,TABLET,0.1,0.1,TABLET,6.0,C4D1,TREATMENT,2024-07-02,61
MS200095-0022-VISION,DA,MS200095-0022-VISION-CHN_SITE01-0015,89,REMAMT,Remaining Amount,0.2,TABLET,0.2,0.2,TABLET,6.0,C4D1,TREATMENT,2024-07-03,62
MS200095-0022-VISION,DA,MS200095-0022-VISION-CHN_SITE01-0015,90,REMAMT,Remaining Amount,0.1,TABLET,0.1,0.1,TABLET,6.0,C4D1,TREATMENT,2024-07-04,63
MS200095-0022-VISION,DA,MS200095-0022-VISION-CHN_SITE01-0015,91,REMAMT,Remaining Amount,0.1,TABLET,0.1,0.1,TABLET,6.0,C4D1,TREATMENT,2024-07-05,64
MS200095-0022-VISION,DA,MS200095-0022-VISION-CHN_SITE01-0015,92,REMAMT,Remaining Amount,0.1,TABLET,0.1,0.1,TABLET,6.0,C4D1,TREATMENT,2024-07-06,65
MS200095-0022-VISION,DA,MS200095-0022-VISION-CHN_SITE01-0015,93,REMAMT,Remaining Amount,0.0,TABLET,0.0,0.0,TABLET,6.0,C4D1,TREATMENT,2024-07-07,66
MS200095-0022-VISION,DA,MS200095-0022-VISION-CHN_SITE01-0015,94,REMAMT,Remaining Amount,0.1,TABLET,0.1,0.1,TABLET,6.0,C4D1,TREATMENT,2024-07-08,67
MS200095-0022-VISION,DA,MS200095-0022-VISION-CHN_SITE01-0015,95,RETAMT,Returned Amount,0.1,TABLET,0.1,0.1,TABLET,6.0,,TREATMENT,2024-05-08,6
MS200095-0022-VISION,DA,MS200095-0022-VISION-CHN_SITE01-0015,96,RETAMT,Returned Amount,0.1,TABLET,0.1,0.1,TABLET,6.0,C4D1,TREATMENT,2024-07-02,61
MS200095-0022-VISION,DA,MS200095-0022-VISION-CHN_SITE01-0015,97,RETAMT,Returned Amount,0.2,TABLET,0.2,0.2,TABLET,6.0,C4D1,TREATMENT,2024-07-03,62
MS200095-0022-VISION,DA,MS200095-0022-VISION-CHN_SITE01-0015,98,RETAMT,Returned Amount,0.1,TABLET,0.1,0.1,TABLET,6.0,C4D1,TREATMENT,2024-07-04,63
MS200095-0022-VISION,DA,MS200095-0022-VISION-CHN_SITE01-0015,99,RETAMT,Returned Amount,0.1,TABLET,0.1,0.1,TABLET,6.0,C4D1,TREATMENT,2024-07-05,64
MS200095-0022-VISION,DA,MS200095-0022-VISION-CHN_SITE01-0015,100,RETAMT,Returned Amount,0.1,TABLET,0.1,0.1,TABLET,6.0,C4D1,TREATMENT,2024-07-06,65
MS200095-0022-VISION,DA,MS200095-0022-VISION-CHN_SITE01-0015,101,RETAMT,Returned Amount,0.0,TABLET,0.0,0.0,TABLET,6.0,C4D1,TREATMENT,2024-07-07,66
MS200095-0022-VISION,DA,MS200095-0022-VISION-CHN_SITE01-0015,102,RETAMT,Returned Amount,0.1,TABLET,0.1,0.1,TABLET,6.0,C4D1,TREATMENT,2024-07-08,67
MS200095-0022-VISION,DA,MS200095-0022-VISION-CHN_SITE01-0015,103,DISPAMT,Dispensed Amount,1,TABLET,1,1.0,TABLET,7.0,,TREATMENT,2024-05-09,7
MS200095-0022-VISION,DA,MS200095-0022-VISION-CHN_SITE01-0015,104,DISPAMT,Dispensed Amount,1,TABLET,1,1.0,TABLET,7.0,C6D1,TREATMENT,2024-08-13,103
MS200095-0022-VISION,DA,MS200095-0022-VISION-CHN_SITE01-0015,105,DISPAMT,Dispensed Amount,1,TABLET,1,1.0,TABLET,7.0,C6D1,TREATMENT,2024-08-14,104
MS200095-0022-VISION,DA,MS200095-0022-VISION-CHN_SITE01-0015,106,DISPAMT,Dispensed Amount,1,TABLET,1,1.0,TABLET,7.0,C6D1,TREATMENT,2024-08-15,105
MS200095-0022-VISION,DA,MS200095-0022-VISION-CHN_SITE01-0015,107,DISPAMT,Dispensed Amount,1,TABLET,1,1.0,TABLET,7.0,C6D1,TREATMENT,2024-08-16,106
MS200095-0022-VISION,DA,MS200095-0022-VISION-CHN_SITE01-0015,108,DISPAMT,Dispensed Amount,1,TABLET,1,1.0,TABLET,7.0,C6D1,TREATMENT,2024-08-17,107
MS200095-0022-VISION,DA,MS200095-0022-VISION-CHN_SITE01-0015,109,DISPAMT,Dispensed Amount,1,TABLET,1,1.0,TABLET,7.0,C6D1,TREATMENT,2024-08-18,108
MS200095-0022-VISION,DA,MS200095-0022-VISION-CHN_SITE01-0015,110,DISPAMT,Dispensed Amount,1,TABLET,1,1.0,TABLET,7.0,C6D1,TREATMENT,2024-08-19,109
MS200095-0022-VISION,DA,MS200095-0022-VISION-CHN_SITE01-0015,111,REMAMT,Remaining Amount,0.1,TABLET,0.1,0.1,TABLET,7.0,,TREATMENT,2024-05-09,7
MS200095-0022-VISION,DA,MS200095-0022-VISION-CHN_SITE01-0015,112,REMAMT,Remaining Amount,0.1,TABLET,0.1,0.1,TABLET,7.0,C6D1,TREATMENT,2024-08-13,103
MS200095-0022-VISION,DA,MS200095-0022-VISION-CHN_SITE01-0015,113,REMAMT,Remaining Amount,0.0,TABLET,0.0,0.0,TABLET,7.0,C6D1,TREATMENT,2024-08-14,104
MS200095-0022-VISION,DA,MS200095-0022-VISION-CHN_SITE01-0015,114,REMAMT,Remaining Amount,0.1,TABLET,0.1,0.1,TABLET,7.0,C6D1,TREATMENT,2024-08-15,105
MS200095-0022-VISION,DA,MS200095-0022-VISION-CHN_SITE01-0015,115,REMAMT,Remaining Amount,0.0,TABLET,0.0,0.0,TABLET,7.0,C6D1,TREATMENT,2024-08-16,106
MS200095-0022-VISION,DA,MS200095-0022-VISION-CHN_SITE01-0015,116,REMAMT,Remaining Amount,0.1,TABLET,0.1,0.1,TABLET,7.0,C6D1,TREATMENT,2024-08-17,107
MS200095-0022-VISION,DA,MS200095-0022-VISION-CHN_SITE01-0015,117,REMAMT,Remaining Amount,0.0,TABLET,0.0,0.0,TABLET,7.0,C6D1,TREATMENT,2024-08-18,108
MS200095-0022-VISION,DA,MS200095-0022-VISION-CHN_SITE01-0015,118,REMAMT,Remaining Amount,0.0,TABLET,0.0,0.0,TABLET,7.0,C6D1,TREATMENT,2024-08-19,109
MS200095-0022-VISION,DA,MS200095-0022-VISION-CHN_SITE01-0015,119,RETAMT,Returned Amount,0.1,TABLET,0.1,0.1,TABLET,7.0,,TREATMENT,2024-05-09,7
MS200095-0022-VISION,DA,MS200095-0022-VISION-CHN_SITE01-0015,120,RETAMT,Returned Amount,0.1,TABLET,0.1,0.1,TABLET,7.0,C6D1,TREATMENT,2024-08-13,103
MS200095-0022-VISION,DA,MS200095-0022-VISION-CHN_SITE01-0015,121,RETAMT,Returned Amount,0.0,TABLET,0.0,0.0,TABLET,7.0,C6D1,TREATMENT,2024-08-14,104
MS200095-0022-VISION,DA,MS200095-0022-VISION-CHN_SITE01-0015,122,RETAMT,Returned Amount,0.1,TABLET,0.1,0.1,TABLET,7.0,C6D1,TREATMENT,2024-08-15,105
MS200095-0022-VISION,DA,MS200095-0022-VISION-CHN_SITE01-0015,123,RETAMT,Returned Amount,0.0,TABLET,0.0,0.0,TABLET,7.0,C6D1,TREATMENT,2024-08-16,106
MS200095-0022-VISION,DA,MS200095-0022-VISION-CHN_SITE01-0015,124,RETAMT,Returned Amount,0.1,TABLET,0.1,0.1,TABLET,7.0,C6D1,TREATMENT,2024-08-17,107
MS200095-0022-VISION,DA,MS200095-0022-VISION-CHN_SITE01-0015,125,RETAMT,Returned Amount,0.0,TABLET,0.0,0.0,TABLET,7.0,C6D1,TREATMENT,2024-08-18,108
MS200095-0022-VISION,DA,MS200095-0022-VISION-CHN_SITE01-0015,126,RETAMT,Returned Amount,0.0,TABLET,0.0,0.0,TABLET,7.0,C6D1,TREATMENT,2024-08-19,109
MS200095-0022-VISION,DA,MS200095-0022-VISION-CHN_SITE01-0015,127,DISPAMT,Dispensed Amount,1,TABLET,1,1.0,TABLET,8.0,,TREATMENT,2024-05-10,8
MS200095-0022-VISION,DA,MS200095-0022-VISION-CHN_SITE01-0015,128,DISPAMT,Dispensed Amount,1,TABLET,1,1.0,TABLET,8.0,C8D1,TREATMENT,2024-09-24,145
MS200095-0022-VISION,DA,MS200095-0022-VISION-CHN_SITE01-0015,129,DISPAMT,Dispensed Amount,1,TABLET,1,1.0,TABLET,8.0,C8D1,TREATMENT,2024-09-25,146
MS200095-0022-VISION,DA,MS200095-0022-VISION-CHN_SITE01-0015,130,DISPAMT,Dispensed Amount,1,TABLET,1,1.0,TABLET,8.0,C8D1,TREATMENT,2024-09-26,147
MS200095-0022-VISION,DA,MS200095-0022-VISION-CHN_SITE01-0015,131,DISPAMT,Dispensed Amount,1,TABLET,1,1.0,TABLET,8.0,C8D1,TREATMENT,2024-09-27,148
MS200095-0022-VISION,DA,MS200095-0022-VISION-CHN_SITE01-0015,132,DISPAMT,Dispensed Amount,1,TABLET,1,1.0,TABLET,8.0,C8D1,TREATMENT,2024-09-28,149
MS200095-0022-VISION,DA,MS200095-0022-VISION-CHN_SITE01-0015,133,DISPAMT,Dispensed Amount,1,TABLET,1,1.0,TABLET,8.0,C8D1,TREATMENT,2024-09-29,150
MS200095-0022-VISION,DA,MS200095-0022-VISION-CHN_SITE01-0015,134,DISPAMT,Dispensed Amount,1,TABLET,1,1.0,TABLET,8.0,C8D1,TREATMENT,2024-09-30,151
MS200095-0022-VISION,DA,MS200095-0022-VISION-CHN_SITE01-0015,135,REMAMT,Remaining Amount,1,TABLET,1,1.0,TABLET,8.0,,TREATMENT,2024-05-10,8
MS200095-0022-VISION,DA,MS200095-0022-VISION-CHN_SITE01-0015,136,REMAMT,Remaining Amount,0.1,TABLET,0.1,0.1,TABLET,8.0,C8D1,TREATMENT,2024-09-24,145
MS200095-0022-VISION,DA,MS200095-0022-VISION-CHN_SITE01-0015,137,REMAMT,Remaining Amount,0.1,TABLET,0.1,0.1,TABLET,8.0,C8D1,TREATMENT,2024-09-25,146
MS200095-0022-VISION,DA,MS200095-0022-VISION-CHN_SITE01-0015,138,REMAMT,Remaining Amount,0.1,TABLET,0.1,0.1,TABLET,8.0,C8D1,TREATMENT,2024-09-26,147
MS200095-0022-VISION,DA,MS200095-0022-VISION-CHN_SITE01-0015,139,REMAMT,Remaining Amount,0.0,TABLET,0.0,0.0,TABLET,8.0,C8D1,TREATMENT,2024-09-27,148
MS200095-0022-VISION,DA,MS200095-0022-VISION-CHN_SITE01-0015,140,REMAMT,Remaining Amount,0.0,TABLET,0.0,0.0,TABLET,8.0,C8D1,TREATMENT,2024-09-28,149
MS200095-0022-VISION,DA,MS200095-0022-VISION-CHN_SITE01-0015,141,REMAMT,Remaining Amount,0.0,TABLET,0.0,0.0,TABLET,8.0,C8D1,TREATMENT,2024-09-29,150
MS200095-0022-VISION,DA,MS200095-0022-VISION-CHN_SITE01-0015,142,REMAMT,Remaining Amount,0.1,TABLET,0.1,0.1,TABLET,8.0,C8D1,TREATMENT,2024-09-30,151
MS200095-0022-VISION,DA,MS200095-0022-VISION-CHN_SITE01-0015,143,RETAMT,Returned Amount,1,TABLET,1,1.0,TABLET,8.0,,TREATMENT,2024-05-10,8
MS200095-0022-VISION,DA,MS200095-0022-VISION-CHN_SITE01-0015,144,RETAMT,Returned Amount,0.1,TABLET,0.1,0.1,TABLET,8.0,C8D1,TREATMENT,2024-09-24,145
MS200095-0022-VISION,DA,MS200095-0022-VISION-CHN_SITE01-0015,145,RETAMT,Returned Amount,0.1,TABLET,0.1,0.1,TABLET,8.0,C8D1,TREATMENT,2024-09-25,146
MS200095-0022-VISION,DA,MS200095-0022-VISION-CHN_SITE01-0015,146,RETAMT,Returned Amount,0.1,TABLET,0.1,0.1,TABLET,8.0,C8D1,TREATMENT,2024-09-26,147
MS200095-0022-VISION,DA,MS200095-0022-VISION-CHN_SITE01-0015,147,RETAMT,Returned Amount,0.0,TABLET,0.0,0.0,TABLET,8.0,C8D1,TREATMENT,2024-09-27,148
MS200095-0022-VISION,DA,MS200095-0022-VISION-CHN_SITE01-0015,148,RETAMT,Returned Amount,0.0,TABLET,0.0,0.0,TABLET,8.0,C8D1,TREATMENT,2024-09-28,149
MS200095-0022-VISION,DA,MS200095-0022-VISION-CHN_SITE01-0015,149,RETAMT,Returned Amount,0.0,TABLET,0.0,0.0,TABLET,8.0,C8D1,TREATMENT,2024-09-29,150
MS200095-0022-VISION,DA,MS200095-0022-VISION-CHN_SITE01-0015,150,RETAMT,Returned Amount,0.1,TABLET,0.1,0.1,TABLET,8.0,C8D1,TREATMENT,2024-09-30,151
MS200095-0022-VISION,DA,MS200095-0022-VISION-CHN_SITE01-0015,151,DISPAMT,Dispensed Amount,1,TABLET,1,1.0,TABLET,9.0,,TREATMENT,2024-05-11,9
MS200095-0022-VISION,DA,MS200095-0022-VISION-CHN_SITE01-0015,152,DISPAMT,Dispensed Amount,1,TABLET,1,1.0,TABLET,9.0,C12D1,TREATMENT,2024-12-17,229
MS200095-0022-VISION,DA,MS200095-0022-VISION-CHN_SITE01-0015,153,DISPAMT,Dispensed Amount,1,TABLET,1,1.0,TABLET,9.0,C12D1,TREATMENT,2024-12-18,230
MS200095-0022-VISION,DA,MS200095-0022-VISION-CHN_SITE01-0015,154,DISPAMT,Dispensed Amount,1,TABLET,1,1.0,TABLET,9.0,C12D1,TREATMENT,2024-12-19,231
MS200095-0022-VISION,DA,MS200095-0022-VISION-CHN_SITE01-0015,155,DISPAMT,Dispensed Amount,1,TABLET,1,1.0,TABLET,9.0,C12D1,TREATMENT,2024-12-20,232
MS200095-0022-VISION,DA,MS200095-0022-VISION-CHN_SITE01-0015,156,DISPAMT,Dispensed Amount,1,TABLET,1,1.0,TABLET,9.0,C12D1,TREATMENT,2024-12-21,233
MS200095-0022-VISION,DA,MS200095-0022-VISION-CHN_SITE01-0015,157,DISPAMT,Dispensed Amount,1,TABLET,1,1.0,TABLET,9.0,C12D1,TREATMENT,2024-12-22,234
MS200095-0022-VISION,DA,MS200095-0022-VISION-CHN_SITE01-0015,158,DISPAMT,Dispensed Amount,1,TABLET,1,1.0,TABLET,9.0,C12D1,TREATMENT,2024-12-23,235
MS200095-0022-VISION,DA,MS200095-0022-VISION-CHN_SITE01-0015,159,REMAMT,Remaining Amount,0.0,TABLET,0.0,0.0,TABLET,9.0,,TREATMENT,2024-05-11,9
MS200095-0022-VISION,DA,MS200095-0022-VISION-CHN_SITE01-0015,160,REMAMT,Remaining Amount,0.0,TABLET,0.0,0.0,TABLET,9.0,C12D1,TREATMENT,2024-12-17,229
MS200095-0022-VISION,DA,MS200095-0022-VISION-CHN_SITE01-0015,161,REMAMT,Remaining Amount,0.1,TABLET,0.1,0.1,TABLET,9.0,C12D1,TREATMENT,2024-12-18,230
MS200095-0022-VISION,DA,MS200095-0022-VISION-CHN_SITE01-0015,162,REMAMT,Remaining Amount,0.1,TABLET,0.1,0.1,TABLET,9.0,C12D1,TREATMENT,2024-12-19,231
MS200095-0022-VISION,DA,MS200095-0022-VISION-CHN_SITE01-0015,163,REMAMT,Remaining Amount,0.2,TABLET,0.2,0.2,TABLET,9.0,C12D1,TREATMENT,2024-12-20,232
MS200095-0022-VISION,DA,MS200095-0022-VISION-CHN_SITE01-0015,164,REMAMT,Remaining Amount,0.2,TABLET,0.2,0.2,TABLET,9.0,C12D1,TREATMENT,2024-12-21,233
MS200095-0022-VISION,DA,MS200095-0022-VISION-CHN_SITE01-0015,165,REMAMT,Remaining Amount,0.0,TABLET,0.0,0.0,TABLET,9.0,C12D1,TREATMENT,2024-12-22,234
MS200095-0022-VISION,DA,MS200095-0022-VISION-CHN_SITE01-0015,166,REMAMT,Remaining Amount,0.1,TABLET,0.1,0.1,TABLET,9.0,C12D1,TREATMENT,2024-12-23,235
MS200095-0022-VISION,DA,MS200095-0022-VISION-CHN_SITE01-0015,167,RETAMT,Returned Amount,0.0,TABLET,0.0,0.0,TABLET,9.0,,TREATMENT,2024-05-11,9
MS200095-0022-VISION,DA,MS200095-0022-VISION-CHN_SITE01-0015,168,RETAMT,Returned Amount,0.0,TABLET,0.0,0.0,TABLET,9.0,C12D1,TREATMENT,2024-12-17,229
MS200095-0022-VISION,DA,MS200095-0022-VISION-CHN_SITE01-0015,169,RETAMT,Returned Amount,0.1,TABLET,0.1,0.1,TABLET,9.0,C12D1,TREATMENT,2024-12-18,230
MS200095-0022-VISION,DA,MS200095-0022-VISION-CHN_SITE01-0015,170,RETAMT,Returned Amount,0.1,TABLET,0.1,0.1,TABLET,9.0,C12D1,TREATMENT,2024-12-19,231
MS200095-0022-VISION,DA,MS200095-0022-VISION-CHN_SITE01-0015,171,RETAMT,Returned Amount,0.2,TABLET,0.2,0.2,TABLET,9.0,C12D1,TREATMENT,2024-12-20,232
MS200095-0022-VISION,DA,MS200095-0022-VISION-CHN_SITE01-0015,172,RETAMT,Returned Amount,0.2,TABLET,0.2,0.2,TABLET,9.0,C12D1,TREATMENT,2024-12-21,233
MS200095-0022-VISION,DA,MS200095-0022-VISION-CHN_SITE01-0015,173,RETAMT,Returned Amount,0.0,TABLET,0.0,0.0,TABLET,9.0,C12D1,TREATMENT,2024-12-22,234
MS200095-0022-VISION,DA,MS200095-0022-VISION-CHN_SITE01-0015,174,RETAMT,Returned Amount,0.1,TABLET,0.1,0.1,TABLET,9.0,C12D1,TREATMENT,2024-12-23,235
MS200095-0022-VISION,DA,MS200095-0022-VISION-CHN_SITE01-0015,175,DISPAMT,Dispensed Amount,1,TABLET,1,1.0,TABLET,10.0,,TREATMENT,2024-05-12,10
MS200095-0022-VISION,DA,MS200095-0022-VISION-CHN_SITE01-0015,176,REMAMT,Remaining Amount,0.0,TABLET,0.0,0.0,TABLET,10.0,,TREATMENT,2024-05-12,10
MS200095-0022-VISION,DA,MS200095-0022-VISION-CHN_SITE01-0015,177,RETAMT,Returned Amount,0.0,TABLET,0.0,0.0,TABLET,10.0,,TREATMENT,2024-05-12,10
MS200095-0022-VISION,DA,MS200095-0022-VISION-CHN_SITE01-0015,178,DISPAMT,Dispensed Amount,1,TABLET,1,1.0,TABLET,11.0,,TREATMENT,2024-05-13,11
MS200095-0022-VISION,DA,MS200095-0022-VISION-CHN_SITE01-0015,179,REMAMT,Remaining Amount,0.0,TABLET,0.0,0.0,TABLET,11.0,,TREATMENT,2024-05-13,11
MS200095-0022-VISION,DA,MS200095-0022-VISION-CHN_SITE01-0015,180,RETAMT,Returned Amount,0.0,TABLET,0.0,0.0,TABLET,11.0,,TREATMENT,2024-05-13,11
MS200095-0022-VISION,DA,MS200095-0022-VISION-CHN_SITE01-0015,181,DISPAMT,Dispensed Amount,1,TABLET,1,1.0,TABLET,26.0,,TREATMENT,2024-05-28,26
MS200095-0022-VISION,DA,MS200095-0022-VISION-CHN_SITE01-0015,182,REMAMT,Remaining Amount,0.2,TABLET,0.2,0.2,TABLET,26.0,,TREATMENT,2024-05-28,26
MS200095-0022-VISION,DA,MS200095-0022-VISION-CHN_SITE01-0015,183,RETAMT,Returned Amount,0.2,TABLET,0.2,0.2,TABLET,26.0,,TREATMENT,2024-05-28,26
MS200095-0022-VISION,DA,MS200095-0022-VISION-CHN_SITE01-0015,184,DISPAMT,Dispensed Amount,1,TABLET,1,1.0,TABLET,27.0,,TREATMENT,2024-05-29,27
MS200095-0022-VISION,DA,MS200095-0022-VISION-CHN_SITE01-0015,185,REMAMT,Remaining Amount,0.1,TABLET,0.1,0.1,TABLET,27.0,,TREATMENT,2024-05-29,27
MS200095-0022-VISION,DA,MS200095-0022-VISION-CHN_SITE01-0015,186,RETAMT,Returned Amount,0.1,TABLET,0.1,0.1,TABLET,27.0,,TREATMENT,2024-05-29,27
MS200095-0022-VISION,DA,MS200095-0022-VISION-CHN_SITE01-0015,187,DISPAMT,Dispensed Amount,1,TABLET,1,1.0,TABLET,28.0,,TREATMENT,2024-05-30,28
MS200095-0022-VISION,DA,MS200095-0022-VISION-CHN_SITE01-0015,188,REMAMT,Remaining Amount,0.0,TABLET,0.0,0.0,TABLET,28.0,,TREATMENT,2024-05-30,28
MS200095-0022-VISION,DA,MS200095-0022-VISION-CHN_SITE01-0015,189,RETAMT,Returned Amount,0.0,TABLET,0.0,0.0,TABLET,28.0,,TREATMENT,2024-05-30,28
MS200095-0022-VISION,DA,MS200095-0022-VISION-CHN_SITE01-0015,190,DISPAMT,Dispensed Amount,1,TABLET,1,1.0,TABLET,29.0,,TREATMENT,2024-05-31,29
MS200095-0022-VISION,DA,MS200095-0022-VISION-CHN_SITE01-0015,191,REMAMT,Remaining Amount,0.1,TABLET,0.1,0.1,TABLET,29.0,,TREATMENT,2024-05-31,29
MS200095-0022-VISION,DA,MS200095-0022-VISION-CHN_SITE01-0015,192,RETAMT,Returned Amount,0.1,TABLET,0.1,0.1,TABLET,29.0,,TREATMENT,2024-05-31,29
MS200095-0022-VISION,DA,MS200095-0022-VISION-CHN_SITE01-0015,193,DISPAMT,Dispensed Amount,1,TABLET,1,1.0,TABLET,30.0,,TREATMENT,2024-06-01,30
MS200095-0022-VISION,DA,MS200095-0022-VISION-CHN_SITE01-0015,194,REMAMT,Remaining Amount,0.1,TABLET,0.1,0.1,TABLET,30.0,,TREATMENT,2024-06-01,30
MS200095-0022-VISION,DA,MS200095-0022-VISION-CHN_SITE01-0015,195,RETAMT,Returned Amount,0.1,TABLET,0.1,0.1,TABLET,30.0,,TREATMENT,2024-06-01,30
MS200095-0022-VISION,DA,MS200095-0022-VISION-CHN_SITE01-0015,196,DISPAMT,Dispensed Amount,1,TABLET,1,1.0,TABLET,31.0,,TREATMENT,2024-06-02,31
MS200095-0022-VISION,DA,MS200095-0022-VISION-CHN_SITE01-0015,197,REMAMT,Remaining Amount,0.0,TABLET,0.0,0.0,TABLET,31.0,,TREATMENT,2024-06-02,31
MS200095-0022-VISION,DA,MS200095-0022-VISION-CHN_SITE01-0015,198,RETAMT,Returned Amount,0.0,TABLET,0.0,0.0,TABLET,31.0,,TREATMENT,2024-06-02,31
MS200095-0022-VISION,DA,MS200095-0022-VISION-CHN_SITE01-0015,199,DISPAMT,Dispensed Amount,1,TABLET,1,1.0,TABLET,32.0,,TREATMENT,2024-06-03,32
MS200095-0022-VISION,DA,MS200095-0022-VISION-CHN_SITE01-0015,200,REMAMT,Remaining Amount,0.1,TABLET,0.1,0.1,TABLET,32.0,,TREATMENT,2024-06-03,32
MS200095-0022-VISION,DA,MS200095-0022-VISION-CHN_SITE01-0015,201,RETAMT,Returned Amount,0.1,TABLET,0.1,0.1,TABLET,32.0,,TREATMENT,2024-06-03,32
MS200095-0022-VISION,DA,MS200095-0022-VISION-CHN_SITE01-0015,202,DISPAMT,Dispensed Amount,1,TABLET,1,1.0,TABLET,33.0,,TREATMENT,2024-06-04,33
MS200095-0022-VISION,DA,MS200095-0022-VISION-CHN_SITE01-0015,203,REMAMT,Remaining Amount,1,TABLET,1,1.0,TABLET,33.0,,TREATMENT,2024-06-04,33
MS200095-0022-VISION,DA,MS200095-0022-VISION-CHN_SITE01-0015,204,RETAMT,Returned Amount,1,TABLET,1,1.0,TABLET,33.0,,TREATMENT,2024-06-04,33
MS200095-0022-VISION,DA,MS200095-0022-VISION-CHN_SITE01-0015,205,DISPAMT,Dispensed Amount,1,TABLET,1,1.0,TABLET,34.0,,TREATMENT,2024-06-05,34
MS200095-0022-VISION,DA,MS200095-0022-VISION-CHN_SITE01-0015,206,REMAMT,Remaining Amount,0.1,TABLET,0.1,0.1,TABLET,34.0,,TREATMENT,2024-06-05,34
MS200095-0022-VISION,DA,MS200095-0022-VISION-CHN_SITE01-0015,207,RETAMT,Returned Amount,0.1,TABLET,0.1,0.1,TABLET,34.0,,TREATMENT,2024-06-05,34
MS200095-0022-VISION,DA,MS200095-0022-VISION-CHN_SITE01-0015,208,DISPAMT,Dispensed Amount,1,TABLET,1,1.0,TABLET,35.0,,TREATMENT,2024-06-06,35
MS200095-0022-VISION,DA,MS200095-0022-VISION-CHN_SITE01-0015,209,REMAMT,Remaining Amount,0.2,TABLET,0.2,0.2,TABLET,35.0,,TREATMENT,2024-06-06,35
MS200095-0022-VISION,DA,MS200095-0022-VISION-CHN_SITE01-0015,210,RETAMT,Returned Amount,0.2,TABLET,0.2,0.2,TABLET,35.0,,TREATMENT,2024-06-06,35
MS200095-0022-VISION,DA,MS200095-0022-VISION-CHN_SITE01-0015,211,DISPAMT,Dispensed Amount,1,TABLET,1,1.0,TABLET,36.0,,TREATMENT,2024-06-07,36
MS200095-0022-VISION,DA,MS200095-0022-VISION-CHN_SITE01-0015,212,REMAMT,Remaining Amount,0.1,TABLET,0.1,0.1,TABLET,36.0,,TREATMENT,2024-06-07,36
MS200095-0022-VISION,DA,MS200095-0022-VISION-CHN_SITE01-0015,213,RETAMT,Returned Amount,0.1,TABLET,0.1,0.1,TABLET,36.0,,TREATMENT,2024-06-07,36
MS200095-0022-VISION,DA,MS200095-0022-VISION-CHN_SITE01-0015,214,DISPAMT,Dispensed Amount,1,TABLET,1,1.0,TABLET,37.0,,TREATMENT,2024-06-08,37
MS200095-0022-VISION,DA,MS200095-0022-VISION-CHN_SITE01-0015,215,REMAMT,Remaining Amount,0.0,TABLET,0.0,0.0,TABLET,37.0,,TREATMENT,2024-06-08,37
MS200095-0022-VISION,DA,MS200095-0022-VISION-CHN_SITE01-0015,216,RETAMT,Returned Amount,0.0,TABLET,0.0,0.0,TABLET,37.0,,TREATMENT,2024-06-08,37
MS200095-0022-VISION,DA,MS200095-0022-VISION-CHN_SITE01-0015,217,DISPAMT,Dispensed Amount,1,TABLET,1,1.0,TABLET,38.0,,TREATMENT,2024-06-09,38
MS200095-0022-VISION,DA,MS200095-0022-VISION-CHN_SITE01-0015,218,REMAMT,Remaining Amount,0.1,TABLET,0.1,0.1,TABLET,38.0,,TREATMENT,2024-06-09,38
MS200095-0022-VISION,DA,MS200095-0022-VISION-CHN_SITE01-0015,219,RETAMT,Returned Amount,0.1,TABLET,0.1,0.1,TABLET,38.0,,TREATMENT,2024-06-09,38
MS200095-0022-VISION,DA,MS200095-0022-VISION-CHN_SITE01-0015,220,DISPAMT,Dispensed Amount,1,TABLET,1,1.0,TABLET,39.0,,TREATMENT,2024-06-10,39
MS200095-0022-VISION,DA,MS200095-0022-VISION-CHN_SITE01-0015,221,REMAMT,Remaining Amount,0.2,TABLET,0.2,0.2,TABLET,39.0,,TREATMENT,2024-06-10,39
MS200095-0022-VISION,DA,MS200095-0022-VISION-CHN_SITE01-0015,222,RETAMT,Returned Amount,0.2,TABLET,0.2,0.2,TABLET,39.0,,TREATMENT,2024-06-10,39
MS200095-0022-VISION,DA,MS200095-0022-VISION-CHN_SITE01-0015,223,DISPAMT,Dispensed Amount,1,TABLET,1,1.0,TABLET,47.0,,TREATMENT,2024-06-18,47
MS200095-0022-VISION,DA,MS200095-0022-VISION-CHN_SITE01-0015,224,REMAMT,Remaining Amount,0.1,TABLET,0.1,0.1,TABLET,47.0,,TREATMENT,2024-06-18,47
MS200095-0022-VISION,DA,MS200095-0022-VISION-CHN_SITE01-0015,225,RETAMT,Returned Amount,0.1,TABLET,0.1,0.1,TABLET,47.0,,TREATMENT,2024-06-18,47
MS200095-0022-VISION,DA,MS200095-0022-VISION-CHN_SITE01-0015,226,DISPAMT,Dispensed Amount,1,TABLET,1,1.0,TABLET,48.0,,TREATMENT,2024-06-19,48
MS200095-0022-VISION,DA,MS200095-0022-VISION-CHN_SITE01-0015,227,REMAMT,Remaining Amount,0.1,TABLET,0.1,0.1,TABLET,48.0,,TREATMENT,2024-06-19,48
MS200095-0022-VISION,DA,MS200095-0022-VISION-CHN_SITE01-0015,228,RETAMT,Returned Amount,0.1,TABLET,0.1,0.1,TABLET,48.0,,TREATMENT,2024-06-19,48
MS200095-0022-VISION,DA,MS200095-0022-VISION-CHN_SITE01-0015,229,DISPAMT,Dispensed Amount,1,TABLET,1,1.0,TABLET,49.0,,TREATMENT,2024-06-20,49
MS200095-0022-VISION,DA,MS200095-0022-VISION-CHN_SITE01-0015,230,REMAMT,Remaining Amount,0.1,TABLET,0.1,0.1,TABLET,49.0,,TREATMENT,2024-06-20,49
MS200095-0022-VISION,DA,MS200095-0022-VISION-CHN_SITE01-0015,231,RETAMT,Returned Amount,0.1,TABLET,0.1,0.1,TABLET,49.0,,TREATMENT,2024-06-20,49
MS200095-0022-VISION,DA,MS200095-0022-VISION-CHN_SITE01-0015,232,DISPAMT,Dispensed Amount,1,TABLET,1,1.0,TABLET,50.0,,TREATMENT,2024-06-21,50
MS200095-0022-VISION,DA,MS200095-0022-VISION-CHN_SITE01-0015,233,REMAMT,Remaining Amount,0.0,TABLET,0.0,0.0,TABLET,50.0,,TREATMENT,2024-06-21,50
MS200095-0022-VISION,DA,MS200095-0022-VISION-CHN_SITE01-0015,234,RETAMT,Returned Amount,0.0,TABLET,0.0,0.0,TABLET,50.0,,TREATMENT,2024-06-21,50
MS200095-0022-VISION,DA,MS200095-0022-VISION-CHN_SITE01-0015,235,DISPAMT,Dispensed Amount,1,TABLET,1,1.0,TABLET,51.0,,TREATMENT,2024-06-22,51
MS200095-0022-VISION,DA,MS200095-0022-VISION-CHN_SITE01-0015,236,REMAMT,Remaining Amount,0.1,TABLET,0.1,0.1,TABLET,51.0,,TREATMENT,2024-06-22,51
MS200095-0022-VISION,DA,MS200095-0022-VISION-CHN_SITE01-0015,237,RETAMT,Returned Amount,0.1,TABLET,0.1,0.1,TABLET,51.0,,TREATMENT,2024-06-22,51
MS200095-0022-VISION,DA,MS200095-0022-VISION-CHN_SITE01-0015,238,DISPAMT,Dispensed Amount,1,TABLET,1,1.0,TABLET,52.0,,TREATMENT,2024-06-23,52
MS200095-0022-VISION,DA,MS200095-0022-VISION-CHN_SITE01-0015,239,REMAMT,Remaining Amount,0.1,TABLET,0.1,0.1,TABLET,52.0,,TREATMENT,2024-06-23,52
MS200095-0022-VISION,DA,MS200095-0022-VISION-CHN_SITE01-0015,240,RETAMT,Returned Amount,0.1,TABLET,0.1,0.1,TABLET,52.0,,TREATMENT,2024-06-23,52
MS200095-0022-VISION,DA,MS200095-0022-VISION-CHN_SITE01-0015,241,DISPAMT,Dispensed Amount,1,TABLET,1,1.0,TABLET,53.0,,TREATMENT,2024-06-24,53
MS200095-0022-VISION,DA,MS200095-0022-VISION-CHN_SITE01-0015,242,REMAMT,Remaining Amount,0.1,TABLET,0.1,0.1,TABLET,53.0,,TREATMENT,2024-06-24,53
MS200095-0022-VISION,DA,MS200095-0022-VISION-CHN_SITE01-0015,243,RETAMT,Returned Amount,0.1,TABLET,0.1,0.1,TABLET,53.0,,TREATMENT,2024-06-24,53
MS200095-0022-VISION,DA,MS200095-0022-VISION-CHN_SITE01-0015,244,DISPAMT,Dispensed Amount,1,TABLET,1,1.0,TABLET,54.0,,TREATMENT,2024-06-25,54
MS200095-0022-VISION,DA,MS200095-0022-VISION-CHN_SITE01-0015,245,REMAMT,Remaining Amount,0.1,TABLET,0.1,0.1,TABLET,54.0,,TREATMENT,2024-06-25,54
MS200095-0022-VISION,DA,MS200095-0022-VISION-CHN_SITE01-0015,246,RETAMT,Returned Amount,0.1,TABLET,0.1,0.1,TABLET,54.0,,TREATMENT,2024-06-25,54
MS200095-0022-VISION,DA,MS200095-0022-VISION-CHN_SITE01-0015,247,DISPAMT,Dispensed Amount,1,TABLET,1,1.0,TABLET,55.0,,TREATMENT,2024-06-26,55
MS200095-0022-VISION,DA,MS200095-0022-VISION-CHN_SITE01-0015,248,REMAMT,Remaining Amount,0.1,TABLET,0.1,0.1,TABLET,55.0,,TREATMENT,2024-06-26,55
MS200095-0022-VISION,DA,MS200095-0022-VISION-CHN_SITE01-0015,249,RETAMT,Returned Amount,0.1,TABLET,0.1,0.1,TABLET,55.0,,TREATMENT,2024-06-26,55
MS200095-0022-VISION,DA,MS200095-0022-VISION-CHN_SITE01-0015,250,DISPAMT,Dispensed Amount,1,TABLET,1,1.0,TABLET,56.0,,TREATMENT,2024-06-27,56
MS200095-0022-VISION,DA,MS200095-0022-VISION-CHN_SITE01-0015,251,REMAMT,Remaining Amount,0.1,TABLET,0.1,0.1,TABLET,56.0,,TREATMENT,2024-06-27,56
MS200095-0022-VISION,DA,MS200095-0022-VISION-CHN_SITE01-0015,252,RETAMT,Returned Amount,0.1,TABLET,0.1,0.1,TABLET,56.0,,TREATMENT,2024-06-27,56
MS200095-0022-VISION,DA,MS200095-0022-VISION-CHN_SITE01-0015,253,DISPAMT,Dispensed Amount,1,TABLET,1,1.0,TABLET,57.0,,TREATMENT,2024-06-28,57
MS200095-0022-VISION,DA,MS200095-0022-VISION-CHN_SITE01-0015,254,REMAMT,Remaining Amount,0.1,TABLET,0.1,0.1,TABLET,57.0,,TREATMENT,2024-06-28,57
MS200095-0022-VISION,DA,MS200095-0022-VISION-CHN_SITE01-0015,255,RETAMT,Returned Amount,0.1,TABLET,0.1,0.1,TABLET,57.0,,TREATMENT,2024-06-28,57
MS200095-0022-VISION,DA,MS200095-0022-VISION-CHN_SITE01-0015,256,DISPAMT,Dispensed Amount,1,TABLET,1,1.0,TABLET,58.0,,TREATMENT,2024-06-29,58
MS200095-0022-VISION,DA,MS200095-0022-VISION-CHN_SITE01-0015,257,REMAMT,Remaining Amount,0.1,TABLET,0.1,0.1,TABLET,58.0,,TREATMENT,2024-06-29,58
MS200095-0022-VISION,DA,MS200095-0022-VISION-CHN_SITE01-0015,258,RETAMT,Returned Amount,0.1,TABLET,0.1,0.1,TABLET,58.0,,TREATMENT,2024-06-29,58
MS200095-0022-VISION,DA,MS200095-0022-VISION-CHN_SITE01-0015,259,DISPAMT,Dispensed Amount,1,TABLET,1,1.0,TABLET,59.0,,TREATMENT,2024-06-30,59
MS200095-0022-VISION,DA,MS200095-0022-VISION-CHN_SITE01-0015,260,REMAMT,Remaining Amount,0.1,TABLET,0.1,0.1,TABLET,59.0,,TREATMENT,2024-06-30,59
MS200095-0022-VISION,DA,MS200095-0022-VISION-CHN_SITE01-0015,261,RETAMT,Returned Amount,0.1,TABLET,0.1,0.1,TABLET,59.0,,TREATMENT,2024-06-30,59
MS200095-0022-VISION,DA,MS200095-0022-VISION-CHN_SITE01-0015,262,DISPAMT,Dispensed Amount,1,TABLET,1,1.0,TABLET,60.0,,TREATMENT,2024-07-01,60
MS200095-0022-VISION,DA,MS200095-0022-VISION-CHN_SITE01-0015,263,REMAMT,Remaining Amount,0.1,TABLET,0.1,0.1,TABLET,60.0,,TREATMENT,2024-07-01,60
MS200095-0022-VISION,DA,MS200095-0022-VISION-CHN_SITE01-0015,264,RETAMT,Returned Amount,0.1,TABLET,0.1,0.1,TABLET,60.0,,TREATMENT,2024-07-01,60
MS200095-0022-VISION,DA,MS200095-0022-VISION-CHN_SITE01-0015,265,DISPAMT,Dispensed Amount,1,TABLET,1,1.0,TABLET,68.0,,TREATMENT,2024-07-09,68
MS200095-0022-VISION,DA,MS200095-0022-VISION-CHN_SITE01-0015,266,REMAMT,Remaining Amount,0.1,TABLET,0.1,0.1,TABLET,68.0,,TREATMENT,2024-07-09,68
MS200095-0022-VISION,DA,MS200095-0022-VISION-CHN_SITE01-0015,267,RETAMT,Returned Amount,0.1,TABLET,0.1,0.1,TABLET,68.0,,TREATMENT,2024-07-09,68
MS200095-0022-VISION,DA,MS200095-0022-VISION-CHN_SITE01-0015,268,DISPAMT,Dispensed Amount,1,TABLET,1,1.0,TABLET,69.0,,TREATMENT,2024-07-10,69
MS200095-0022-VISION,DA,MS200095-0022-VISION-CHN_SITE01-0015,269,REMAMT,Remaining Amount,0.0,TABLET,0.0,0.0,TABLET,69.0,,TREATMENT,2024-07-10,69
MS200095-0022-VISION,DA,MS200095-0022-VISION-CHN_SITE01-0015,270,RETAMT,Returned Amount,0.0,TABLET,0.0,0.0,TABLET,69.0,,TREATMENT,2024-07-10,69
MS200095-0022-VISION,DA,MS200095-0022-VISION-CHN_SITE01-0015,271,DISPAMT,Dispensed Amount,1,TABLET,1,1.0,TABLET,70.0,,TREATMENT,2024-07-11,70
MS200095-0022-VISION,DA,MS200095-0022-VISION-CHN_SITE01-0015,272,REMAMT,Remaining Amount,0.1,TABLET,0.1,0.1,TABLET,70.0,,TREATMENT,2024-07-11,70
MS200095-0022-VISION,DA,MS200095-0022-VISION-CHN_SITE01-0015,273,RETAMT,Returned Amount,0.1,TABLET,0.1,0.1,TABLET,70.0,,TREATMENT,2024-07-11,70
MS200095-0022-VISION,DA,MS200095-0022-VISION-CHN_SITE01-0015,274,DISPAMT,Dispensed Amount,1,TABLET,1,1.0,TABLET,71.0,,TREATMENT,2024-07-12,71
MS200095-0022-VISION,DA,MS200095-0022-VISION-CHN_SITE01-0015,275,REMAMT,Remaining Amount,0.1,TABLET,0.1,0.1,TABLET,71.0,,TREATMENT,2024-07-12,71
MS200095-0022-VISION,DA,MS200095-0022-VISION-CHN_SITE01-0015,276,RETAMT,Returned Amount,0.1,TABLET,0.1,0.1,TABLET,71.0,,TREATMENT,2024-07-12,71
MS200095-0022-VISION,DA,MS200095-0022-VISION-CHN_SITE01-0015,277,DISPAMT,Dispensed Amount,1,TABLET,1,1.0,TABLET,72.0,,TREATMENT,2024-07-13,72
MS200095-0022-VISION,DA,MS200095-0022-VISION-CHN_SITE01-0015,278,REMAMT,Remaining Amount,0.1,TABLET,0.1,0.1,TABLET,72.0,,TREATMENT,2024-07-13,72
MS200095-0022-VISION,DA,MS200095-0022-VISION-CHN_SITE01-0015,279,RETAMT,Returned Amount,0.1,TABLET,0.1,0.1,TABLET,72.0,,TREATMENT,2024-07-13,72
MS200095-0022-VISION,DA,MS200095-0022-VISION-CHN_SITE01-0015,280,DISPAMT,Dispensed Amount,1,TABLET,1,1.0,TABLET,73.0,,TREATMENT,2024-07-14,73
MS200095-0022-VISION,DA,MS200095-0022-VISION-CHN_SITE01-0015,281,REMAMT,Remaining Amount,0.1,TABLET,0.1,0.1,TABLET,73.0,,TREATMENT,2024-07-14,73
MS200095-0022-VISION,DA,MS200095-0022-VISION-CHN_SITE01-0015,282,RETAMT,Returned Amount,0.1,TABLET,0.1,0.1,TABLET,73.0,,TREATMENT,2024-07-14,73
MS200095-0022-VISION,DA,MS200095-0022-VISION-CHN_SITE01-0015,283,DISPAMT,Dispensed Amount,1,TABLET,1,1.0,TABLET,74.0,,TREATMENT,2024-07-15,74
MS200095-0022-VISION,DA,MS200095-0022-VISION-CHN_SITE01-0015,284,REMAMT,Remaining Amount,0.1,TABLET,0.1,0.1,TABLET,74.0,,TREATMENT,2024-07-15,74
MS200095-0022-VISION,DA,MS200095-0022-VISION-CHN_SITE01-0015,285,RETAMT,Returned Amount,0.1,TABLET,0.1,0.1,TABLET,74.0,,TREATMENT,2024-07-15,74
MS200095-0022-VISION,DA,MS200095-0022-VISION-CHN_SITE01-0015,286,DISPAMT,Dispensed Amount,1,TABLET,1,1.0,TABLET,75.0,,TREATMENT,2024-07-16,75
MS200095-0022-VISION,DA,MS200095-0022-VISION-CHN_SITE01-0015,287,REMAMT,Remaining Amount,0.1,TABLET,0.1,0.1,TABLET,75.0,,TREATMENT,2024-07-16,75
MS200095-0022-VISION,DA,MS200095-0022-VISION-CHN_SITE01-0015,288,RETAMT,Returned Amount,0.1,TABLET,0.1,0.1,TABLET,75.0,,TREATMENT,2024-07-16,75
MS200095-0022-VISION,DA,MS200095-0022-VISION-CHN_SITE01-0015,289,DISPAMT,Dispensed Amount,1,TABLET,1,1.0,TABLET,76.0,,TREATMENT,2024-07-17,76
MS200095-0022-VISION,DA,MS200095-0022-VISION-CHN_SITE01-0015,290,REMAMT,Remaining Amount,1,TABLET,1,1.0,TABLET,76.0,,TREATMENT,2024-07-17,76
MS200095-0022-VISION,DA,MS200095-0022-VISION-CHN_SITE01-0015,291,RETAMT,Returned Amount,1,TABLET,1,1.0,TABLET,76.0,,TREATMENT,2024-07-17,76
MS200095-0022-VISION,DA,MS200095-0022-VISION-CHN_SITE01-0015,292,DISPAMT,Dispensed Amount,1,TABLET,1,1.0,TABLET,77.0,,TREATMENT,2024-07-18,77
MS200095-0022-VISION,DA,MS200095-0022-VISION-CHN_SITE01-0015,293,REMAMT,Remaining Amount,0.1,TABLET,0.1,0.1,TABLET,77.0,,TREATMENT,2024-07-18,77
MS200095-0022-VISION,DA,MS200095-0022-VISION-CHN_SITE01-0015,294,RETAMT,Returned Amount,0.1,TABLET,0.1,0.1,TABLET,77.0,,TREATMENT,2024-07-18,77
MS200095-0022-VISION,DA,MS200095-0022-VISION-CHN_SITE01-0015,295,DISPAMT,Dispensed Amount,1,TABLET,1,1.0,TABLET,78.0,,TREATMENT,2024-07-19,78
MS200095-0022-VISION,DA,MS200095-0022-VISION-CHN_SITE01-0015,296,REMAMT,Remaining Amount,0.0,TABLET,0.0,0.0,TABLET,78.0,,TREATMENT,2024-07-19,78
MS200095-0022-VISION,DA,MS200095-0022-VISION-CHN_SITE01-0015,297,RETAMT,Returned Amount,0.0,TABLET,0.0,0.0,TABLET,78.0,,TREATMENT,2024-07-19,78
MS200095-0022-VISION,DA,MS200095-0022-VISION-CHN_SITE01-0015,298,DISPAMT,Dispensed Amount,1,TABLET,1,1.0,TABLET,79.0,,TREATMENT,2024-07-20,79
MS200095-0022-VISION,DA,MS200095-0022-VISION-CHN_SITE01-0015,299,REMAMT,Remaining Amount,0.0,TABLET,0.0,0.0,TABLET,79.0,,TREATMENT,2024-07-20,79
MS200095-0022-VISION,DA,MS200095-0022-VISION-CHN_SITE01-0015,300,RETAMT,Returned Amount,0.0,TABLET,0.0,0.0,TABLET,79.0,,TREATMENT,2024-07-20,79
MS200095-0022-VISION,DA,MS200095-0022-VISION-CHN_SITE01-0015,301,DISPAMT,Dispensed Amount,1,TABLET,1,1.0,TABLET,80.0,,TREATMENT,2024-07-21,80
MS200095-0022-VISION,DA,MS200095-0022-VISION-CHN_SITE01-0015,302,REMAMT,Remaining Amount,0.1,TABLET,0.1,0.1,TABLET,80.0,,TREATMENT,2024-07-21,80
MS200095-0022-VISION,DA,MS200095-0022-VISION-CHN_SITE01-0015,303,RETAMT,Returned Amount,0.1,TABLET,0.1,0.1,TABLET,80.0,,TREATMENT,2024-07-21,80
MS200095-0022-VISION,DA,MS200095-0022-VISION-CHN_SITE01-0015,304,DISPAMT,Dispensed Amount,1,TABLET,1,1.0,TABLET,81.0,,TREATMENT,2024-07-22,81
MS200095-0022-VISION,DA,MS200095-0022-VISION-CHN_SITE01-0015,305,REMAMT,Remaining Amount,0.2,TABLET,0.2,0.2,TABLET,81.0,,TREATMENT,2024-07-22,81
MS200095-0022-VISION,DA,MS200095-0022-VISION-CHN_SITE01-0015,306,RETAMT,Returned Amount,0.2,TABLET,0.2,0.2,TABLET,81.0,,TREATMENT,2024-07-22,81
MS200095-0022-VISION,DA,MS200095-0022-VISION-CHN_SITE01-0015,307,DISPAMT,Dispensed Amount,1,TABLET,1,1.0,TABLET,82.0,,TREATMENT,2024-07-23,82
MS200095-0022-VISION,DA,MS200095-0022-VISION-CHN_SITE01-0015,308,REMAMT,Remaining Amount,0.1,TABLET,0.1,0.1,TABLET,82.0,,TREATMENT,2024-07-23,82
MS200095-0022-VISION,DA,MS200095-0022-VISION-CHN_SITE01-0015,309,RETAMT,Returned Amount,0.1,TABLET,0.1,0.1,TABLET,82.0,,TREATMENT,2024-07-23,82
MS200095-0022-VISION,DA,MS200095-0022-VISION-CHN_SITE01-0015,310,DISPAMT,Dispensed Amount,1,TABLET,1,1.0,TABLET,83.0,,TREATMENT,2024-07-24,83
MS200095-0022-VISION,DA,MS200095-0022-VISION-CHN_SITE01-0015,311,REMAMT,Remaining Amount,0.0,TABLET,0.0,0.0,TABLET,83.0,,TREATMENT,2024-07-24,83
MS200095-0022-VISION,DA,MS200095-0022-VISION-CHN_SITE01-0015,312,RETAMT,Returned Amount,0.0,TABLET,0.0,0.0,TABLET,83.0,,TREATMENT,2024-07-24,83
MS200095-0022-VISION,DA,MS200095-0022-VISION-CHN_SITE01-0015,313,DISPAMT,Dispensed Amount,1,TABLET,1,1.0,TABLET,84.0,,TREATMENT,2024-07-25,84
MS200095-0022-VISION,DA,MS200095-0022-VISION-CHN_SITE01-0015,314,REMAMT,Remaining Amount,0.0,TABLET,0.0,0.0,TABLET,84.0,,TREATMENT,2024-07-25,84
MS200095-0022-VISION,DA,MS200095-0022-VISION-CHN_SITE01-0015,315,RETAMT,Returned Amount,0.0,TABLET,0.0,0.0,TABLET,84.0,,TREATMENT,2024-07-25,84
MS200095-0022-VISION,DA,MS200095-0022-VISION-CHN_SITE01-0015,316,DISPAMT,Dispensed Amount,1,TABLET,1,1.0,TABLET,85.0,,TREATMENT,2024-07-26,85
MS200095-0022-VISION,DA,MS200095-0022-VISION-CHN_SITE01-0015,317,REMAMT,Remaining Amount,0.0,TABLET,0.0,0.0,TABLET,85.0,,TREATMENT,2024-07-26,85
MS200095-0022-VISION,DA,MS200095-0022-VISION-CHN_SITE01-0015,318,RETAMT,Returned Amount,0.0,TABLET,0.0,0.0,TABLET,85.0,,TREATMENT,2024-07-26,85
MS200095-0022-VISION,DA,MS200095-0022-VISION-CHN_SITE01-0015,319,DISPAMT,Dispensed Amount,1,TABLET,1,1.0,TABLET,86.0,,TREATMENT,2024-07-27,86
MS200095-0022-VISION,DA,MS200095-0022-VISION-CHN_SITE01-0015,320,REMAMT,Remaining Amount,0.1,TABLET,0.1,0.1,TABLET,86.0,,TREATMENT,2024-07-27,86
MS200095-0022-VISION,DA,MS200095-0022-VISION-CHN_SITE01-0015,321,RETAMT,Returned Amount,0.1,TABLET,0.1,0.1,TABLET,86.0,,TREATMENT,2024-07-27,86
MS200095-0022-VISION,DA,MS200095-0022-VISION-CHN_SITE01-0015,322,DISPAMT,Dispensed Amount,1,TABLET,1,1.0,TABLET,87.0,,TREATMENT,2024-07-28,87
MS200095-0022-VISION,DA,MS200095-0022-VISION-CHN_SITE01-0015,323,REMAMT,Remaining Amount,0.0,TABLET,0.0,0.0,TABLET,87.0,,TREATMENT,2024-07-28,87
MS200095-0022-VISION,DA,MS200095-0022-VISION-CHN_SITE01-0015,324,RETAMT,Returned Amount,0.0,TABLET,0.0,0.0,TABLET,87.0,,TREATMENT,2024-07-28,87
MS200095-0022-VISION,DA,MS200095-0022-VISION-CHN_SITE01-0015,325,DISPAMT,Dispensed Amount,1,TABLET,1,1.0,TABLET,88.0,,TREATMENT,2024-07-29,88
MS200095-0022-VISION,DA,MS200095-0022-VISION-CHN_SITE01-0015,326,REMAMT,Remaining Amount,0.1,TABLET,0.1,0.1,TABLET,88.0,,TREATMENT,2024-07-29,88
MS200095-0022-VISION,DA,MS200095-0022-VISION-CHN_SITE01-0015,327,RETAMT,Returned Amount,0.1,TABLET,0.1,0.1,TABLET,88.0,,TREATMENT,2024-07-29,88
MS200095-0022-VISION,DA,MS200095-0022-VISION-CHN_SITE01-0015,328,DISPAMT,Dispensed Amount,1,TABLET,1,1.0,TABLET,89.0,,TREATMENT,2024-07-30,89
MS200095-0022-VISION,DA,MS200095-0022-VISION-CHN_SITE01-0015,329,REMAMT,Remaining Amount,0.1,TABLET,0.1,0.1,TABLET,89.0,,TREATMENT,2024-07-30,89
MS200095-0022-VISION,DA,MS200095-0022-VISION-CHN_SITE01-0015,330,RETAMT,Returned Amount,0.1,TABLET,0.1,0.1,TABLET,89.0,,TREATMENT,2024-07-30,89
MS200095-0022-VISION,DA,MS200095-0022-VISION-CHN_SITE01-0015,331,DISPAMT,Dispensed Amount,1,TABLET,1,1.0,TABLET,90.0,,TREATMENT,2024-07-31,90
MS200095-0022-VISION,DA,MS200095-0022-VISION-CHN_SITE01-0015,332,REMAMT,Remaining Amount,0.2,TABLET,0.2,0.2,TABLET,90.0,,TREATMENT,2024-07-31,90
MS200095-0022-VISION,DA,MS200095-0022-VISION-CHN_SITE01-0015,333,RETAMT,Returned Amount,0.2,TABLET,0.2,0.2,TABLET,90.0,,TREATMENT,2024-07-31,90
MS200095-0022-VISION,DA,MS200095-0022-VISION-CHN_SITE01-0015,334,DISPAMT,Dispensed Amount,1,TABLET,1,1.0,TABLET,91.0,,TREATMENT,2024-08-01,91
MS200095-0022-VISION,DA,MS200095-0022-VISION-CHN_SITE01-0015,335,REMAMT,Remaining Amount,0.1,TABLET,0.1,0.1,TABLET,91.0,,TREATMENT,2024-08-01,91
MS200095-0022-VISION,DA,MS200095-0022-VISION-CHN_SITE01-0015,336,RETAMT,Returned Amount,0.1,TABLET,0.1,0.1,TABLET,91.0,,TREATMENT,2024-08-01,91
MS200095-0022-VISION,DA,MS200095-0022-VISION-CHN_SITE01-0015,337,DISPAMT,Dispensed Amount,1,TABLET,1,1.0,TABLET,92.0,,TREATMENT,2024-08-02,92
MS200095-0022-VISION,DA,MS200095-0022-VISION-CHN_SITE01-0015,338,REMAMT,Remaining Amount,0.0,TABLET,0.0,0.0,TABLET,92.0,,TREATMENT,2024-08-02,92
MS200095-0022-VISION,DA,MS200095-0022-VISION-CHN_SITE01-0015,339,RETAMT,Returned Amount,0.0,TABLET,0.0,0.0,TABLET,92.0,,TREATMENT,2024-08-02,92
MS200095-0022-VISION,DA,MS200095-0022-VISION-CHN_SITE01-0015,340,DISPAMT,Dispensed Amount,1,TABLET,1,1.0,TABLET,93.0,,TREATMENT,2024-08-03,93
MS200095-0022-VISION,DA,MS200095-0022-VISION-CHN_SITE01-0015,341,REMAMT,Remaining Amount,0.0,TABLET,0.0,0.0,TABLET,93.0,,TREATMENT,2024-08-03,93
MS200095-0022-VISION,DA,MS200095-0022-VISION-CHN_SITE01-0015,342,RETAMT,Returned Amount,0.0,TABLET,0.0,0.0,TABLET,93.0,,TREATMENT,2024-08-03,93
MS200095-0022-VISION,DA,MS200095-0022-VISION-CHN_SITE01-0015,343,DISPAMT,Dispensed Amount,1,TABLET,1,1.0,TABLET,94.0,,TREATMENT,2024-08-04,94
MS200095-0022-VISION,DA,MS200095-0022-VISION-CHN_SITE01-0015,344,REMAMT,Remaining Amount,0.0,TABLET,0.0,0.0,TABLET,94.0,,TREATMENT,2024-08-04,94
MS200095-0022-VISION,DA,MS200095-0022-VISION-CHN_SITE01-0015,345,RETAMT,Returned Amount,0.0,TABLET,0.0,0.0,TABLET,94.0,,TREATMENT,2024-08-04,94
MS200095-0022-VISION,DA,MS200095-0022-VISION-CHN_SITE01-0015,346,DISPAMT,Dispensed Amount,1,TABLET,1,1.0,TABLET,95.0,,TREATMENT,2024-08-05,95
MS200095-0022-VISION,DA,MS200095-0022-VISION-CHN_SITE01-0015,347,REMAMT,Remaining Amount,1,TABLET,1,1.0,TABLET,95.0,,TREATMENT,2024-08-05,95
MS200095-0022-VISION,DA,MS200095-0022-VISION-CHN_SITE01-0015,348,RETAMT,Returned Amount,1,TABLET,1,1.0,TABLET,95.0,,TREATMENT,2024-08-05,95
MS200095-0022-VISION,DA,MS200095-0022-VISION-CHN_SITE01-0015,349,DISPAMT,Dispensed Amount,1,TABLET,1,1.0,TABLET,96.0,,TREATMENT,2024-08-06,96
MS200095-0022-VISION,DA,MS200095-0022-VISION-CHN_SITE01-0015,350,REMAMT,Remaining Amount,0.0,TABLET,0.0,0.0,TABLET,96.0,,TREATMENT,2024-08-06,96
MS200095-0022-VISION,DA,MS200095-0022-VISION-CHN_SITE01-0015,351,RETAMT,Returned Amount,0.0,TABLET,0.0,0.0,TABLET,96.0,,TREATMENT,2024-08-06,96
MS200095-0022-VISION,DA,MS200095-0022-VISION-CHN_SITE01-0015,352,DISPAMT,Dispensed Amount,1,TABLET,1,1.0,TABLET,97.0,,TREATMENT,2024-08-07,97
MS200095-0022-VISION,DA,MS200095-0022-VISION-CHN_SITE01-0015,353,REMAMT,Remaining Amount,0.0,TABLET,0.0,0.0,TABLET,97.0,,TREATMENT,2024-08-07,97
MS200095-0022-VISION,DA,MS200095-0022-VISION-CHN_SITE01-0015,354,RETAMT,Returned Amount,0.0,TABLET,0.0,0.0,TABLET,97.0,,TREATMENT,2024-08-07,97
MS200095-0022-VISION,DA,MS200095-0022-VISION-CHN_SITE01-0015,355,DISPAMT,Dispensed Amount,1,TABLET,1,1.0,TABLET,98.0,,TREATMENT,2024-08-08,98
MS200095-0022-VISION,DA,MS200095-0022-VISION-CHN_SITE01-0015,356,REMAMT,Remaining Amount,0.0,TABLET,0.0,0.0,TABLET,98.0,,TREATMENT,2024-08-08,98
MS200095-0022-VISION,DA,MS200095-0022-VISION-CHN_SITE01-0015,357,RETAMT,Returned Amount,0.0,TABLET,0.0,0.0,TABLET,98.0,,TREATMENT,2024-08-08,98
MS200095-0022-VISION,DA,MS200095-0022-VISION-CHN_SITE01-0015,358,DISPAMT,Dispensed Amount,1,TABLET,1,1.0,TABLET,99.0,,TREATMENT,2024-08-09,99
MS200095-0022-VISION,DA,MS200095-0022-VISION-CHN_SITE01-0015,359,REMAMT,Remaining Amount,0.1,TABLET,0.1,0.1,TABLET,99.0,,TREATMENT,2024-08-09,99
MS200095-0022-VISION,DA,MS200095-0022-VISION-CHN_SITE01-0015,360,RETAMT,Returned Amount,0.1,TABLET,0.1,0.1,TABLET,99.0,,TREATMENT,2024-08-09,99
MS200095-0022-VISION,DA,MS200095-0022-VISION-CHN_SITE01-0015,361,DISPAMT,Dispensed Amount,1,TABLET,1,1.0,TABLET,100.0,,TREATMENT,2024-08-10,100
MS200095-0022-VISION,DA,MS200095-0022-VISION-CHN_SITE01-0015,362,REMAMT,Remaining Amount,0.1,TABLET,0.1,0.1,TABLET,100.0,,TREATMENT,2024-08-10,100
MS200095-0022-VISION,DA,MS200095-0022-VISION-CHN_SITE01-0015,363,RETAMT,Returned Amount,0.1,TABLET,0.1,0.1,TABLET,100.0,,TREATMENT,2024-08-10,100
MS200095-0022-VISION,DA,MS200095-0022-VISION-CHN_SITE01-0015,364,DISPAMT,Dispensed Amount,1,TABLET,1,1.0,TABLET,101.0,,TREATMENT,2024-08-11,101
MS200095-0022-VISION,DA,MS200095-0022-VISION-CHN_SITE01-0015,365,REMAMT,Remaining Amount,0.1,TABLET,0.1,0.1,TABLET,101.0,,TREATMENT,2024-08-11,101
MS200095-0022-VISION,DA,MS200095-0022-VISION-CHN_SITE01-0015,366,RETAMT,Returned Amount,0.1,TABLET,0.1,0.1,TABLET,101.0,,TREATMENT,2024-08-11,101
MS200095-0022-VISION,DA,MS200095-0022-VISION-CHN_SITE01-0015,367,DISPAMT,Dispensed Amount,1,TABLET,1,1.0,TABLET,102.0,,TREATMENT,2024-08-12,102
MS200095-0022-VISION,DA,MS200095-0022-VISION-CHN_SITE01-0015,368,REMAMT,Remaining Amount,0.2,TABLET,0.2,0.2,TABLET,102.0,,TREATMENT,2024-08-12,102
MS200095-0022-VISION,DA,MS200095-0022-VISION-CHN_SITE01-0015,369,RETAMT,Returned Amount,0.2,TABLET,0.2,0.2,TABLET,102.0,,TREATMENT,2024-08-12,102
MS200095-0022-VISION,DA,MS200095-0022-VISION-CHN_SITE01-0015,370,DISPAMT,Dispensed Amount,1,TABLET,1,1.0,TABLET,110.0,,TREATMENT,2024-08-20,110
MS200095-0022-VISION,DA,MS200095-0022-VISION-CHN_SITE01-0015,371,REMAMT,Remaining Amount,0.1,TABLET,0.1,0.1,TABLET,110.0,,TREATMENT,2024-08-20,110
MS200095-0022-VISION,DA,MS200095-0022-VISION-CHN_SITE01-0015,372,RETAMT,Returned Amount,0.1,TABLET,0.1,0.1,TABLET,110.0,,TREATMENT,2024-08-20,110
MS200095-0022-VISION,DA,MS200095-0022-VISION-CHN_SITE01-0015,373,DISPAMT,Dispensed Amount,1,TABLET,1,1.0,TABLET,111.0,,TREATMENT,2024-08-21,111
MS200095-0022-VISION,DA,MS200095-0022-VISION-CHN_SITE01-0015,374,REMAMT,Remaining Amount,0.0,TABLET,0.0,0.0,TABLET,111.0,,TREATMENT,2024-08-21,111
MS200095-0022-VISION,DA,MS200095-0022-VISION-CHN_SITE01-0015,375,RETAMT,Returned Amount,0.0,TABLET,0.0,0.0,TABLET,111.0,,TREATMENT,2024-08-21,111
MS200095-0022-VISION,DA,MS200095-0022-VISION-CHN_SITE01-0015,376,DISPAMT,Dispensed Amount,1,TABLET,1,1.0,TABLET,112.0,,TREATMENT,2024-08-22,112
MS200095-0022-VISION,DA,MS200095-0022-VISION-CHN_SITE01-0015,377,REMAMT,Remaining Amount,0.1,TABLET,0.1,0.1,TABLET,112.0,,TREATMENT,2024-08-22,112
MS200095-0022-VISION,DA,MS200095-0022-VISION-CHN_SITE01-0015,378,RETAMT,Returned Amount,0.1,TABLET,0.1,0.1,TABLET,112.0,,TREATMENT,2024-08-22,112
MS200095-0022-VISION,DA,MS200095-0022-VISION-CHN_SITE01-0015,379,DISPAMT,Dispensed Amount,1,TABLET,1,1.0,TABLET,113.0,,TREATMENT,2024-08-23,113
MS200095-0022-VISION,DA,MS200095-0022-VISION-CHN_SITE01-0015,380,REMAMT,Remaining Amount,0.2,TABLET,0.2,0.2,TABLET,113.0,,TREATMENT,2024-08-23,113
MS200095-0022-VISION,DA,MS200095-0022-VISION-CHN_SITE01-0015,381,RETAMT,Returned Amount,0.2,TABLET,0.2,0.2,TABLET,113.0,,TREATMENT,2024-08-23,113
MS200095-0022-VISION,DA,MS200095-0022-VISION-CHN_SITE01-0015,382,DISPAMT,Dispensed Amount,1,TABLET,1,1.0,TABLET,114.0,,TREATMENT,2024-08-24,114
MS200095-0022-VISION,DA,MS200095-0022-VISION-CHN_SITE01-0015,383,REMAMT,Remaining Amount,0.0,TABLET,0.0,0.0,TABLET,114.0,,TREATMENT,2024-08-24,114
MS200095-0022-VISION,DA,MS200095-0022-VISION-CHN_SITE01-0015,384,RETAMT,Returned Amount,0.0,TABLET,0.0,0.0,TABLET,114.0,,TREATMENT,2024-08-24,114
MS200095-0022-VISION,DA,MS200095-0022-VISION-CHN_SITE01-0015,385,DISPAMT,Dispensed Amount,1,TABLET,1,1.0,TABLET,115.0,,TREATMENT,2024-08-25,115
MS200095-0022-VISION,DA,MS200095-0022-VISION-CHN_SITE01-0015,386,REMAMT,Remaining Amount,0.0,TABLET,0.0,0.0,TABLET,115.0,,TREATMENT,2024-08-25,115
MS200095-0022-VISION,DA,MS200095-0022-VISION-CHN_SITE01-0015,387,RETAMT,Returned Amount,0.0,TABLET,0.0,0.0,TABLET,115.0,,TREATMENT,2024-08-25,115
MS200095-0022-VISION,DA,MS200095-0022-VISION-CHN_SITE01-0015,388,DISPAMT,Dispensed Amount,1,TABLET,1,1.0,TABLET,116.0,,TREATMENT,2024-08-26,116
MS200095-0022-VISION,DA,MS200095-0022-VISION-CHN_SITE01-0015,389,REMAMT,Remaining Amount,0.0,TABLET,0.0,0.0,TABLET,116.0,,TREATMENT,2024-08-26,116
MS200095-0022-VISION,DA,MS200095-0022-VISION-CHN_SITE01-0015,390,RETAMT,Returned Amount,0.0,TABLET,0.0,0.0,TABLET,116.0,,TREATMENT,2024-08-26,116
MS200095-0022-VISION,DA,MS200095-0022-VISION-CHN_SITE01-0015,391,DISPAMT,Dispensed Amount,1,TABLET,1,1.0,TABLET,117.0,,TREATMENT,2024-08-27,117
MS200095-0022-VISION,DA,MS200095-0022-VISION-CHN_SITE01-0015,392,REMAMT,Remaining Amount,0.0,TABLET,0.0,0.0,TABLET,117.0,,TREATMENT,2024-08-27,117
MS200095-0022-VISION,DA,MS200095-0022-VISION-CHN_SITE01-0015,393,RETAMT,Returned Amount,0.0,TABLET,0.0,0.0,TABLET,117.0,,TREATMENT,2024-08-27,117
MS200095-0022-VISION,DA,MS200095-0022-VISION-CHN_SITE01-0015,394,DISPAMT,Dispensed Amount,1,TABLET,1,1.0,TABLET,118.0,,TREATMENT,2024-08-28,118
MS200095-0022-VISION,DA,MS200095-0022-VISION-CHN_SITE01-0015,395,REMAMT,Remaining Amount,0.1,TABLET,0.1,0.1,TABLET,118.0,,TREATMENT,2024-08-28,118
MS200095-0022-VISION,DA,MS200095-0022-VISION-CHN_SITE01-0015,396,RETAMT,Returned Amount,0.1,TABLET,0.1,0.1,TABLET,118.0,,TREATMENT,2024-08-28,118
MS200095-0022-VISION,DA,MS200095-0022-VISION-CHN_SITE01-0015,397,DISPAMT,Dispensed Amount,1,TABLET,1,1.0,TABLET,119.0,,TREATMENT,2024-08-29,119
MS200095-0022-VISION,DA,MS200095-0022-VISION-CHN_SITE01-0015,398,REMAMT,Remaining Amount,0.1,TABLET,0.1,0.1,TABLET,119.0,,TREATMENT,2024-08-29,119
MS200095-0022-VISION,DA,MS200095-0022-VISION-CHN_SITE01-0015,399,RETAMT,Returned Amount,0.1,TABLET,0.1,0.1,TABLET,119.0,,TREATMENT,2024-08-29,119
MS200095-0022-VISION,DA,MS200095-0022-VISION-CHN_SITE01-0015,400,DISPAMT,Dispensed Amount,1,TABLET,1,1.0,TABLET,120.0,,TREATMENT,2024-08-30,120
MS200095-0022-VISION,DA,MS200095-0022-VISION-CHN_SITE01-0015,401,REMAMT,Remaining Amount,0.1,TABLET,0.1,0.1,TABLET,120.0,,TREATMENT,2024-08-30,120
MS200095-0022-VISION,DA,MS200095-0022-VISION-CHN_SITE01-0015,402,RETAMT,Returned Amount,0.1,TABLET,0.1,0.1,TABLET,120.0,,TREATMENT,2024-08-30,120
MS200095-0022-VISION,DA,MS200095-0022-VISION-CHN_SITE01-0015,403,DISPAMT,Dispensed Amount,1,TABLET,1,1.0,TABLET,121.0,,TREATMENT,2024-08-31,121
MS200095-0022-VISION,DA,MS200095-0022-VISION-CHN_SITE01-0015,404,REMAMT,Remaining Amount,0.2,TABLET,0.2,0.2,TABLET,121.0,,TREATMENT,2024-08-31,121
MS200095-0022-VISION,DA,MS200095-0022-VISION-CHN_SITE01-0015,405,RETAMT,Returned Amount,0.2,TABLET,0.2,0.2,TABLET,121.0,,TREATMENT,2024-08-31,121
MS200095-0022-VISION,DA,MS200095-0022-VISION-CHN_SITE01-0015,406,DISPAMT,Dispensed Amount,1,TABLET,1,1.0,TABLET,122.0,,TREATMENT,2024-09-01,122
MS200095-0022-VISION,DA,MS200095-0022-VISION-CHN_SITE01-0015,407,REMAMT,Remaining Amount,0.1,TABLET,0.1,0.1,TABLET,122.0,,TREATMENT,2024-09-01,122
MS200095-0022-VISION,DA,MS200095-0022-VISION-CHN_SITE01-0015,408,RETAMT,Returned Amount,0.1,TABLET,0.1,0.1,TABLET,122.0,,TREATMENT,2024-09-01,122
MS200095-0022-VISION,DA,MS200095-0022-VISION-CHN_SITE01-0015,409,DISPAMT,Dispensed Amount,1,TABLET,1,1.0,TABLET,123.0,,TREATMENT,2024-09-02,123
MS200095-0022-VISION,DA,MS200095-0022-VISION-CHN_SITE01-0015,410,REMAMT,Remaining Amount,0.1,TABLET,0.1,0.1,TABLET,123.0,,TREATMENT,2024-09-02,123
MS200095-0022-VISION,DA,MS200095-0022-VISION-CHN_SITE01-0015,411,RETAMT,Returned Amount,0.1,TABLET,0.1,0.1,TABLET,123.0,,TREATMENT,2024-09-02,123
MS200095-0022-VISION,DA,MS200095-0022-VISION-CHN_SITE01-0015,412,DISPAMT,Dispensed Amount,1,TABLET,1,1.0,TABLET,124.0,,TREATMENT,2024-09-03,124
MS200095-0022-VISION,DA,MS200095-0022-VISION-CHN_SITE01-0015,413,REMAMT,Remaining Amount,0.1,TABLET,0.1,0.1,TABLET,124.0,,TREATMENT,2024-09-03,124
MS200095-0022-VISION,DA,MS200095-0022-VISION-CHN_SITE01-0015,414,RETAMT,Returned Amount,0.1,TABLET,0.1,0.1,TABLET,124.0,,TREATMENT,2024-09-03,124
MS200095-0022-VISION,DA,MS200095-0022-VISION-CHN_SITE01-0015,415,DISPAMT,Dispensed Amount,1,TABLET,1,1.0,TABLET,125.0,,TREATMENT,2024-09-04,125
MS200095-0022-VISION,DA,MS200095-0022-VISION-CHN_SITE01-0015,416,REMAMT,Remaining Amount,0.1,TABLET,0.1,0.1,TABLET,125.0,,TREATMENT,2024-09-04,125
MS200095-0022-VISION,DA,MS200095-0022-VISION-CHN_SITE01-0015,417,RETAMT,Returned Amount,0.1,TABLET,0.1,0.1,TABLET,125.0,,TREATMENT,2024-09-04,125
MS200095-0022-VISION,DA,MS200095-0022-VISION-CHN_SITE01-0015,418,DISPAMT,Dispensed Amount,1,TABLET,1,1.0,TABLET,126.0,,TREATMENT,2024-09-05,126
MS200095-0022-VISION,DA,MS200095-0022-VISION-CHN_SITE01-0015,419,REMAMT,Remaining Amount,0.0,TABLET,0.0,0.0,TABLET,126.0,,TREATMENT,2024-09-05,126
MS200095-0022-VISION,DA,MS200095-0022-VISION-CHN_SITE01-0015,420,RETAMT,Returned Amount,0.0,TABLET,0.0,0.0,TABLET,126.0,,TREATMENT,2024-09-05,126
MS200095-0022-VISION,DA,MS200095-0022-VISION-CHN_SITE01-0015,421,DISPAMT,Dispensed Amount,1,TABLET,1,1.0,TABLET,127.0,,TREATMENT,2024-09-06,127
MS200095-0022-VISION,DA,MS200095-0022-VISION-CHN_SITE01-0015,422,REMAMT,Remaining Amount,1,TABLET,1,1.0,TABLET,127.0,,TREATMENT,2024-09-06,127
MS200095-0022-VISION,DA,MS200095-0022-VISION-CHN_SITE01-0015,423,RETAMT,Returned Amount,1,TABLET,1,1.0,TABLET,127.0,,TREATMENT,2024-09-06,127
MS200095-0022-VISION,DA,MS200095-0022-VISION-CHN_SITE01-0015,424,DISPAMT,Dispensed Amount,1,TABLET,1,1.0,TABLET,128.0,,TREATMENT,2024-09-07,128
MS200095-0022-VISION,DA,MS200095-0022-VISION-CHN_SITE01-0015,425,REMAMT,Remaining Amount,0.1,TABLET,0.1,0.1,TABLET,128.0,,TREATMENT,2024-09-07,128
MS200095-0022-VISION,DA,MS200095-0022-VISION-CHN_SITE01-0015,426,RETAMT,Returned Amount,0.1,TABLET,0.1,0.1,TABLET,128.0,,TREATMENT,2024-09-07,128
MS200095-0022-VISION,DA,MS200095-0022-VISION-CHN_SITE01-0015,427,DISPAMT,Dispensed Amount,1,TABLET,1,1.0,TABLET,129.0,,TREATMENT,2024-09-08,129
MS200095-0022-VISION,DA,MS200095-0022-VISION-CHN_SITE01-0015,428,REMAMT,Remaining Amount,0.0,TABLET,0.0,0.0,TABLET,129.0,,TREATMENT,2024-09-08,129
MS200095-0022-VISION,DA,MS200095-0022-VISION-CHN_SITE01-0015,429,RETAMT,Returned Amount,0.0,TABLET,0.0,0.0,TABLET,129.0,,TREATMENT,2024-09-08,129
MS200095-0022-VISION,DA,MS200095-0022-VISION-CHN_SITE01-0015,430,DISPAMT,Dispensed Amount,1,TABLET,1,1.0,TABLET,130.0,,TREATMENT,2024-09-09,130
MS200095-0022-VISION,DA,MS200095-0022-VISION-CHN_SITE01-0015,431,REMAMT,Remaining Amount,0.0,TABLET,0.0,0.0,TABLET,130.0,,TREATMENT,2024-09-09,130
MS200095-0022-VISION,DA,MS200095-0022-VISION-CHN_SITE01-0015,432,RETAMT,Returned Amount,0.0,TABLET,0.0,0.0,TABLET,130.0,,TREATMENT,2024-09-09,130
MS200095-0022-VISION,DA,MS200095-0022-VISION-CHN_SITE01-0015,433,DISPAMT,Dispensed Amount,1,TABLET,1,1.0,TABLET,131.0,,TREATMENT,2024-09-10,131
MS200095-0022-VISION,DA,MS200095-0022-VISION-CHN_SITE01-0015,434,REMAMT,Remaining Amount,1,TABLET,1,1.0,TABLET,131.0,,TREATMENT,2024-09-10,131
MS200095-0022-VISION,DA,MS200095-0022-VISION-CHN_SITE01-0015,435,RETAMT,Returned Amount,1,TABLET,1,1.0,TABLET,131.0,,TREATMENT,2024-09-10,131
MS200095-0022-VISION,DA,MS200095-0022-VISION-CHN_SITE01-0015,436,DISPAMT,Dispensed Amount,1,TABLET,1,1.0,TABLET,132.0,,TREATMENT,2024-09-11,132
MS200095-0022-VISION,DA,MS200095-0022-VISION-CHN_SITE01-0015,437,REMAMT,Remaining Amount,1,TABLET,1,1.0,TABLET,132.0,,TREATMENT,2024-09-11,132
MS200095-0022-VISION,DA,MS200095-0022-VISION-CHN_SITE01-0015,438,RETAMT,Returned Amount,1,TABLET,1,1.0,TABLET,132.0,,TREATMENT,2024-09-11,132
MS200095-0022-VISION,DA,MS200095-0022-VISION-CHN_SITE01-0015,439,DISPAMT,Dispensed Amount,1,TABLET,1,1.0,TABLET,133.0,,TREATMENT,2024-09-12,133
MS200095-0022-VISION,DA,MS200095-0022-VISION-CHN_SITE01-0015,440,REMAMT,Remaining Amount,0.1,TABLET,0.1,0.1,TABLET,133.0,,TREATMENT,2024-09-12,133
MS200095-0022-VISION,DA,MS200095-0022-VISION-CHN_SITE01-0015,441,RETAMT,Returned Amount,0.1,TABLET,0.1,0.1,TABLET,133.0,,TREATMENT,2024-09-12,133
MS200095-0022-VISION,DA,MS200095-0022-VISION-CHN_SITE01-0015,442,DISPAMT,Dispensed Amount,1,TABLET,1,1.0,TABLET,134.0,,TREATMENT,2024-09-13,134
MS200095-0022-VISION,DA,MS200095-0022-VISION-CHN_SITE01-0015,443,REMAMT,Remaining Amount,0.1,TABLET,0.1,0.1,TABLET,134.0,,TREATMENT,2024-09-13,134
MS200095-0022-VISION,DA,MS200095-0022-VISION-CHN_SITE01-0015,444,RETAMT,Returned Amount,0.1,TABLET,0.1,0.1,TABLET,134.0,,TREATMENT,2024-09-13,134
MS200095-0022-VISION,DA,MS200095-0022-VISION-CHN_SITE01-0015,445,DISPAMT,Dispensed Amount,1,TABLET,1,1.0,TABLET,135.0,,TREATMENT,2024-09-14,135
MS200095-0022-VISION,DA,MS200095-0022-VISION-CHN_SITE01-0015,446,REMAMT,Remaining Amount,0.1,TABLET,0.1,0.1,TABLET,135.0,,TREATMENT,2024-09-14,135
MS200095-0022-VISION,DA,MS200095-0022-VISION-CHN_SITE01-0015,447,RETAMT,Returned Amount,0.1,TABLET,0.1,0.1,TABLET,135.0,,TREATMENT,2024-09-14,135
MS200095-0022-VISION,DA,MS200095-0022-VISION-CHN_SITE01-0015,448,DISPAMT,Dispensed Amount,1,TABLET,1,1.0,TABLET,136.0,,TREATMENT,2024-09-15,136
MS200095-0022-VISION,DA,MS200095-0022-VISION-CHN_SITE01-0015,449,REMAMT,Remaining Amount,0.1,TABLET,0.1,0.1,TABLET,136.0,,TREATMENT,2024-09-15,136
MS200095-0022-VISION,DA,MS200095-0022-VISION-CHN_SITE01-0015,450,RETAMT,Returned Amount,0.1,TABLET,0.1,0.1,TABLET,136.0,,TREATMENT,2024-09-15,136
MS200095-0022-VISION,DA,MS200095-0022-VISION-CHN_SITE01-0015,451,DISPAMT,Dispensed Amount,1,TABLET,1,1.0,TABLET,137.0,,TREATMENT,2024-09-16,137
MS200095-0022-VISION,DA,MS200095-0022-VISION-CHN_SITE01-0015,452,REMAMT,Remaining Amount,0.0,TABLET,0.0,0.0,TABLET,137.0,,TREATMENT,2024-09-16,137
MS200095-0022-VISION,DA,MS200095-0022-VISION-CHN_SITE01-0015,453,RETAMT,Returned Amount,0.0,TABLET,0.0,0.0,TABLET,137.0,,TREATMENT,2024-09-16,137
MS200095-0022-VISION,DA,MS200095-0022-VISION-CHN_SITE01-0015,454,DISPAMT,Dispensed Amount,1,TABLET,1,1.0,TABLET,138.0,,TREATMENT,2024-09-17,138
MS200095-0022-VISION,DA,MS200095-0022-VISION-CHN_SITE01-0015,455,REMAMT,Remaining Amount,0.1,TABLET,0.1,0.1,TABLET,138.0,,TREATMENT,2024-09-17,138
MS200095-0022-VISION,DA,MS200095-0022-VISION-CHN_SITE01-0015,456,RETAMT,Returned Amount,0.1,TABLET,0.1,0.1,TABLET,138.0,,TREATMENT,2024-09-17,138
MS200095-0022-VISION,DA,MS200095-0022-VISION-CHN_SITE01-0015,457,DISPAMT,Dispensed Amount,1,TABLET,1,1.0,TABLET,139.0,,TREATMENT,2024-09-18,139
MS200095-0022-VISION,DA,MS200095-0022-VISION-CHN_SITE01-0015,458,REMAMT,Remaining Amount,0.0,TABLET,0.0,0.0,TABLET,139.0,,TREATMENT,2024-09-18,139
MS200095-0022-VISION,DA,MS200095-0022-VISION-CHN_SITE01-0015,459,RETAMT,Returned Amount,0.0,TABLET,0.0,0.0,TABLET,139.0,,TREATMENT,2024-09-18,139
MS200095-0022-VISION,DA,MS200095-0022-VISION-CHN_SITE01-0015,460,DISPAMT,Dispensed Amount,1,TABLET,1,1.0,TABLET,140.0,,TREATMENT,2024-09-19,140
MS200095-0022-VISION,DA,MS200095-0022-VISION-CHN_SITE01-0015,461,REMAMT,Remaining Amount,1,TABLET,1,1.0,TABLET,140.0,,TREATMENT,2024-09-19,140
MS200095-0022-VISION,DA,MS200095-0022-VISION-CHN_SITE01-0015,462,RETAMT,Returned Amount,1,TABLET,1,1.0,TABLET,140.0,,TREATMENT,2024-09-19,140
MS200095-0022-VISION,DA,MS200095-0022-VISION-CHN_SITE01-0015,463,DISPAMT,Dispensed Amount,1,TABLET,1,1.0,TABLET,141.0,,TREATMENT,2024-09-20,141
MS200095-0022-VISION,DA,MS200095-0022-VISION-CHN_SITE01-0015,464,REMAMT,Remaining Amount,0.0,TABLET,0.0,0.0,TABLET,141.0,,TREATMENT,2024-09-20,141
MS200095-0022-VISION,DA,MS200095-0022-VISION-CHN_SITE01-0015,465,RETAMT,Returned Amount,0.0,TABLET,0.0,0.0,TABLET,141.0,,TREATMENT,2024-09-20,141
MS200095-0022-VISION,DA,MS200095-0022-VISION-CHN_SITE01-0015,466,DISPAMT,Dispensed Amount,1,TABLET,1,1.0,TABLET,142.0,,TREATMENT,2024-09-21,142
MS200095-0022-VISION,DA,MS200095-0022-VISION-CHN_SITE01-0015,467,REMAMT,Remaining Amount,0.1,TABLET,0.1,0.1,TABLET,142.0,,TREATMENT,2024-09-21,142
MS200095-0022-VISION,DA,MS200095-0022-VISION-CHN_SITE01-0015,468,RETAMT,Returned Amount,0.1,TABLET,0.1,0.1,TABLET,142.0,,TREATMENT,2024-09-21,142
MS200095-0022-VISION,DA,MS200095-0022-VISION-CHN_SITE01-0015,469,DISPAMT,Dispensed Amount,1,TABLET,1,1.0,TABLET,143.0,,TREATMENT,2024-09-22,143
MS200095-0022-VISION,DA,MS200095-0022-VISION-CHN_SITE01-0015,470,REMAMT,Remaining Amount,0.0,TABLET,0.0,0.0,TABLET,143.0,,TREATMENT,2024-09-22,143
MS200095-0022-VISION,DA,MS200095-0022-VISION-CHN_SITE01-0015,471,RETAMT,Returned Amount,0.0,TABLET,0.0,0.0,TABLET,143.0,,TREATMENT,2024-09-22,143
MS200095-0022-VISION,DA,MS200095-0022-VISION-CHN_SITE01-0015,472,DISPAMT,Dispensed Amount,1,TABLET,1,1.0,TABLET,144.0,,TREATMENT,2024-09-23,144
MS200095-0022-VISION,DA,MS200095-0022-VISION-CHN_SITE01-0015,473,REMAMT,Remaining Amount,0.2,TABLET,0.2,0.2,TABLET,144.0,,TREATMENT,2024-09-23,144
MS200095-0022-VISION,DA,MS200095-0022-VISION-CHN_SITE01-0015,474,RETAMT,Returned Amount,0.2,TABLET,0.2,0.2,TABLET,144.0,,TREATMENT,2024-09-23,144
MS200095-0022-VISION,DA,MS200095-0022-VISION-CHN_SITE01-0015,475,DISPAMT,Dispensed Amount,1,TABLET,1,1.0,TABLET,152.0,,TREATMENT,2024-10-01,152
MS200095-0022-VISION,DA,MS200095-0022-VISION-CHN_SITE01-0015,476,REMAMT,Remaining Amount,0.1,TABLET,0.1,0.1,TABLET,152.0,,TREATMENT,2024-10-01,152
MS200095-0022-VISION,DA,MS200095-0022-VISION-CHN_SITE01-0015,477,RETAMT,Returned Amount,0.1,TABLET,0.1,0.1,TABLET,152.0,,TREATMENT,2024-10-01,152
MS200095-0022-VISION,DA,MS200095-0022-VISION-CHN_SITE01-0015,478,DISPAMT,Dispensed Amount,1,TABLET,1,1.0,TABLET,153.0,,TREATMENT,2024-10-02,153
MS200095-0022-VISION,DA,MS200095-0022-VISION-CHN_SITE01-0015,479,REMAMT,Remaining Amount,0.0,TABLET,0.0,0.0,TABLET,153.0,,TREATMENT,2024-10-02,153
MS200095-0022-VISION,DA,MS200095-0022-VISION-CHN_SITE01-0015,480,RETAMT,Returned Amount,0.0,TABLET,0.0,0.0,TABLET,153.0,,TREATMENT,2024-10-02,153
MS200095-0022-VISION,DA,MS200095-0022-VISION-CHN_SITE01-0015,481,DISPAMT,Dispensed Amount,1,TABLET,1,1.0,TABLET,154.0,,TREATMENT,2024-10-03,154
MS200095-0022-VISION,DA,MS200095-0022-VISION-CHN_SITE01-0015,482,REMAMT,Remaining Amount,0.1,TABLET,0.1,0.1,TABLET,154.0,,TREATMENT,2024-10-03,154
MS200095-0022-VISION,DA,MS200095-0022-VISION-CHN_SITE01-0015,483,RETAMT,Returned Amount,0.1,TABLET,0.1,0.1,TABLET,154.0,,TREATMENT,2024-10-03,154
MS200095-0022-VISION,DA,MS200095-0022-VISION-CHN_SITE01-0015,484,DISPAMT,Dispensed Amount,1,TABLET,1,1.0,TABLET,155.0,,TREATMENT,2024-10-04,155
MS200095-0022-VISION,DA,MS200095-0022-VISION-CHN_SITE01-0015,485,REMAMT,Remaining Amount,0.0,TABLET,0.0,0.0,TABLET,155.0,,TREATMENT,2024-10-04,155
MS200095-0022-VISION,DA,MS200095-0022-VISION-CHN_SITE01-0015,486,RETAMT,Returned Amount,0.0,TABLET,0.0,0.0,TABLET,155.0,,TREATMENT,2024-10-04,155
MS200095-0022-VISION,DA,MS200095-0022-VISION-CHN_SITE01-0015,487,DISPAMT,Dispensed Amount,1,TABLET,1,1.0,TABLET,156.0,,TREATMENT,2024-10-05,156
MS200095-0022-VISION,DA,MS200095-0022-VISION-CHN_SITE01-0015,488,REMAMT,Remaining Amount,0.1,TABLET,0.1,0.1,TABLET,156.0,,TREATMENT,2024-10-05,156
MS200095-0022-VISION,DA,MS200095-0022-VISION-CHN_SITE01-0015,489,RETAMT,Returned Amount,0.1,TABLET,0.1,0.1,TABLET,156.0,,TREATMENT,2024-10-05,156
MS200095-0022-VISION,DA,MS200095-0022-VISION-CHN_SITE01-0015,490,DISPAMT,Dispensed Amount,1,TABLET,1,1.0,TABLET,157.0,,TREATMENT,2024-10-06,157
MS200095-0022-VISION,DA,MS200095-0022-VISION-CHN_SITE01-0015,491,REMAMT,Remaining Amount,1,TABLET,1,1.0,TABLET,157.0,,TREATMENT,2024-10-06,157
MS200095-0022-VISION,DA,MS200095-0022-VISION-CHN_SITE01-0015,492,RETAMT,Returned Amount,1,TABLET,1,1.0,TABLET,157.0,,TREATMENT,2024-10-06,157
MS200095-0022-VISION,DA,MS200095-0022-VISION-CHN_SITE01-0015,493,DISPAMT,Dispensed Amount,1,TABLET,1,1.0,TABLET,158.0,,TREATMENT,2024-10-07,158
MS200095-0022-VISION,DA,MS200095-0022-VISION-CHN_SITE01-0015,494,REMAMT,Remaining Amount,0.1,TABLET,0.1,0.1,TABLET,158.0,,TREATMENT,2024-10-07,158
MS200095-0022-VISION,DA,MS200095-0022-VISION-CHN_SITE01-0015,495,RETAMT,Returned Amount,0.1,TABLET,0.1,0.1,TABLET,158.0,,TREATMENT,2024-10-07,158
MS200095-0022-VISION,DA,MS200095-0022-VISION-CHN_SITE01-0015,496,DISPAMT,Dispensed Amount,1,TABLET,1,1.0,TABLET,159.0,,TREATMENT,2024-10-08,159
MS200095-0022-VISION,DA,MS200095-0022-VISION-CHN_SITE01-0015,497,REMAMT,Remaining Amount,0.0,TABLET,0.0,0.0,TABLET,159.0,,TREATMENT,2024-10-08,159
MS200095-0022-VISION,DA,MS200095-0022-VISION-CHN_SITE01-0015,498,RETAMT,Returned Amount,0.0,TABLET,0.0,0.0,TABLET,159.0,,TREATMENT,2024-10-08,159
MS200095-0022-VISION,DA,MS200095-0022-VISION-CHN_SITE01-0015,499,DISPAMT,Dispensed Amount,1,TABLET,1,1.0,TABLET,160.0,,TREATMENT,2024-10-09,160
MS200095-0022-VISION,DA,MS200095-0022-VISION-CHN_SITE01-0015,500,REMAMT,Remaining Amount,0.2,TABLET,0.2,0.2,TABLET,160.0,,TREATMENT,2024-10-09,160
MS200095-0022-VISION,DA,MS200095-0022-VISION-CHN_SITE01-0015,501,RETAMT,Returned Amount,0.2,TABLET,0.2,0.2,TABLET,160.0,,TREATMENT,2024-10-09,160
MS200095-0022-VISION,DA,MS200095-0022-VISION-CHN_SITE01-0015,502,DISPAMT,Dispensed Amount,1,TABLET,1,1.0,TABLET,161.0,,TREATMENT,2024-10-10,161
MS200095-0022-VISION,DA,MS200095-0022-VISION-CHN_SITE01-0015,503,REMAMT,Remaining Amount,0.2,TABLET,0.2,0.2,TABLET,161.0,,TREATMENT,2024-10-10,161
MS200095-0022-VISION,DA,MS200095-0022-VISION-CHN_SITE01-0015,504,RETAMT,Returned Amount,0.2,TABLET,0.2,0.2,TABLET,161.0,,TREATMENT,2024-10-10,161
MS200095-0022-VISION,DA,MS200095-0022-VISION-CHN_SITE01-0015,505,DISPAMT,Dispensed Amount,1,TABLET,1,1.0,TABLET,162.0,,TREATMENT,2024-10-11,162
MS200095-0022-VISION,DA,MS200095-0022-VISION-CHN_SITE01-0015,506,REMAMT,Remaining Amount,0.1,TABLET,0.1,0.1,TABLET,162.0,,TREATMENT,2024-10-11,162
MS200095-0022-VISION,DA,MS200095-0022-VISION-CHN_SITE01-0015,507,RETAMT,Returned Amount,0.1,TABLET,0.1,0.1,TABLET,162.0,,TREATMENT,2024-10-11,162
MS200095-0022-VISION,DA,MS200095-0022-VISION-CHN_SITE01-0015,508,DISPAMT,Dispensed Amount,1,TABLET,1,1.0,TABLET,163.0,,TREATMENT,2024-10-12,163
MS200095-0022-VISION,DA,MS200095-0022-VISION-CHN_SITE01-0015,509,REMAMT,Remaining Amount,0.0,TABLET,0.0,0.0,TABLET,163.0,,TREATMENT,2024-10-12,163
MS200095-0022-VISION,DA,MS200095-0022-VISION-CHN_SITE01-0015,510,RETAMT,Returned Amount,0.0,TABLET,0.0,0.0,TABLET,163.0,,TREATMENT,2024-10-12,163
MS200095-0022-VISION,DA,MS200095-0022-VISION-CHN_SITE01-0015,511,DISPAMT,Dispensed Amount,1,TABLET,1,1.0,TABLET,164.0,,TREATMENT,2024-10-13,164
MS200095-0022-VISION,DA,MS200095-0022-VISION-CHN_SITE01-0015,512,REMAMT,Remaining Amount,0.1,TABLET,0.1,0.1,TABLET,164.0,,TREATMENT,2024-10-13,164
MS200095-0022-VISION,DA,MS200095-0022-VISION-CHN_SITE01-0015,513,RETAMT,Returned Amount,0.1,TABLET,0.1,0.1,TABLET,164.0,,TREATMENT,2024-10-13,164
MS200095-0022-VISION,DA,MS200095-0022-VISION-CHN_SITE01-0015,514,DISPAMT,Dispensed Amount,1,TABLET,1,1.0,TABLET,165.0,,TREATMENT,2024-10-14,165
MS200095-0022-VISION,DA,MS200095-0022-VISION-CHN_SITE01-0015,515,REMAMT,Remaining Amount,0.1,TABLET,0.1,0.1,TABLET,165.0,,TREATMENT,2024-10-14,165
MS200095-0022-VISION,DA,MS200095-0022-VISION-CHN_SITE01-0015,516,RETAMT,Returned Amount,0.1,TABLET,0.1,0.1,TABLET,165.0,,TREATMENT,2024-10-14,165
MS200095-0022-VISION,DA,MS200095-0022-VISION-CHN_SITE01-0015,517,DISPAMT,Dispensed Amount,1,TABLET,1,1.0,TABLET,166.0,,TREATMENT,2024-10-15,166
MS200095-0022-VISION,DA,MS200095-0022-VISION-CHN_SITE01-0015,518,REMAMT,Remaining Amount,0.1,TABLET,0.1,0.1,TABLET,166.0,,TREATMENT,2024-10-15,166
MS200095-0022-VISION,DA,MS200095-0022-VISION-CHN_SITE01-0015,519,RETAMT,Returned Amount,0.1,TABLET,0.1,0.1,TABLET,166.0,,TREATMENT,2024-10-15,166
MS200095-0022-VISION,DA,MS200095-0022-VISION-CHN_SITE01-0015,520,DISPAMT,Dispensed Amount,1,TABLET,1,1.0,TABLET,167.0,,TREATMENT,2024-10-16,167
MS200095-0022-VISION,DA,MS200095-0022-VISION-CHN_SITE01-0015,521,REMAMT,Remaining Amount,0.2,TABLET,0.2,0.2,TABLET,167.0,,TREATMENT,2024-10-16,167
MS200095-0022-VISION,DA,MS200095-0022-VISION-CHN_SITE01-0015,522,RETAMT,Returned Amount,0.2,TABLET,0.2,0.2,TABLET,167.0,,TREATMENT,2024-10-16,167
MS200095-0022-VISION,DA,MS200095-0022-VISION-CHN_SITE01-0015,523,DISPAMT,Dispensed Amount,1,TABLET,1,1.0,TABLET,168.0,,TREATMENT,2024-10-17,168
MS200095-0022-VISION,DA,MS200095-0022-VISION-CHN_SITE01-0015,524,REMAMT,Remaining Amount,0.0,TABLET,0.0,0.0,TABLET,168.0,,TREATMENT,2024-10-17,168
MS200095-0022-VISION,DA,MS200095-0022-VISION-CHN_SITE01-0015,525,RETAMT,Returned Amount,0.0,TABLET,0.0,0.0,TABLET,168.0,,TREATMENT,2024-10-17,168
MS200095-0022-VISION,DA,MS200095-0022-VISION-CHN_SITE01-0015,526,DISPAMT,Dispensed Amount,1,TABLET,1,1.0,TABLET,169.0,,TREATMENT,2024-10-18,169
MS200095-0022-VISION,DA,MS200095-0022-VISION-CHN_SITE01-0015,527,REMAMT,Remaining Amount,0.1,TABLET,0.1,0.1,TABLET,169.0,,TREATMENT,2024-10-18,169
MS200095-0022-VISION,DA,MS200095-0022-VISION-CHN_SITE01-0015,528,RETAMT,Returned Amount,0.1,TABLET,0.1,0.1,TABLET,169.0,,TREATMENT,2024-10-18,169
MS200095-0022-VISION,DA,MS200095-0022-VISION-CHN_SITE01-0015,529,DISPAMT,Dispensed Amount,1,TABLET,1,1.0,TABLET,170.0,,TREATMENT,2024-10-19,170
MS200095-0022-VISION,DA,MS200095-0022-VISION-CHN_SITE01-0015,530,REMAMT,Remaining Amount,0.0,TABLET,0.0,0.0,TABLET,170.0,,TREATMENT,2024-10-19,170
MS200095-0022-VISION,DA,MS200095-0022-VISION-CHN_SITE01-0015,531,RETAMT,Returned Amount,0.0,TABLET,0.0,0.0,TABLET,170.0,,TREATMENT,2024-10-19,170
MS200095-0022-VISION,DA,MS200095-0022-VISION-CHN_SITE01-0015,532,DISPAMT,Dispensed Amount,1,TABLET,1,1.0,TABLET,171.0,,TREATMENT,2024-10-20,171
MS200095-0022-VISION,DA,MS200095-0022-VISION-CHN_SITE01-0015,533,REMAMT,Remaining Amount,0.1,TABLET,0.1,0.1,TABLET,171.0,,TREATMENT,2024-10-20,171
MS200095-0022-VISION,DA,MS200095-0022-VISION-CHN_SITE01-0015,534,RETAMT,Returned Amount,0.1,TABLET,0.1,0.1,TABLET,171.0,,TREATMENT,2024-10-20,171
MS200095-0022-VISION,DA,MS200095-0022-VISION-CHN_SITE01-0015,535,DISPAMT,Dispensed Amount,1,TABLET,1,1.0,TABLET,172.0,,TREATMENT,2024-10-21,172
MS200095-0022-VISION,DA,MS200095-0022-VISION-CHN_SITE01-0015,536,REMAMT,Remaining Amount,0.0,TABLET,0.0,0.0,TABLET,172.0,,TREATMENT,2024-10-21,172
MS200095-0022-VISION,DA,MS200095-0022-VISION-CHN_SITE01-0015,537,RETAMT,Returned Amount,0.0,TABLET,0.0,0.0,TABLET,172.0,,TREATMENT,2024-10-21,172
MS200095-0022-VISION,DA,MS200095-0022-VISION-CHN_SITE01-0015,538,DISPAMT,Dispensed Amount,1,TABLET,1,1.0,TABLET,173.0,,TREATMENT,2024-10-22,173
MS200095-0022-VISION,DA,MS200095-0022-VISION-CHN_SITE01-0015,539,REMAMT,Remaining Amount,0.0,TABLET,0.0,0.0,TABLET,173.0,,TREATMENT,2024-10-22,173
MS200095-0022-VISION,DA,MS200095-0022-VISION-CHN_SITE01-0015,540,RETAMT,Returned Amount,0.0,TABLET,0.0,0.0,TABLET,173.0,,TREATMENT,2024-10-22,173
MS200095-0022-VISION,DA,MS200095-0022-VISION-CHN_SITE01-0015,541,DISPAMT,Dispensed Amount,1,TABLET,1,1.0,TABLET,174.0,,TREATMENT,2024-10-23,174
MS200095-0022-VISION,DA,MS200095-0022-VISION-CHN_SITE01-0015,542,REMAMT,Remaining Amount,0.1,TABLET,0.1,0.1,TABLET,174.0,,TREATMENT,2024-10-23,174
MS200095-0022-VISION,DA,MS200095-0022-VISION-CHN_SITE01-0015,543,RETAMT,Returned Amount,0.1,TABLET,0.1,0.1,TABLET,174.0,,TREATMENT,2024-10-23,174
MS200095-0022-VISION,DA,MS200095-0022-VISION-CHN_SITE01-0015,544,DISPAMT,Dispensed Amount,1,TABLET,1,1.0,TABLET,175.0,,TREATMENT,2024-10-24,175
MS200095-0022-VISION,DA,MS200095-0022-VISION-CHN_SITE01-0015,545,REMAMT,Remaining Amount,0.0,TABLET,0.0,0.0,TABLET,175.0,,TREATMENT,2024-10-24,175
MS200095-0022-VISION,DA,MS200095-0022-VISION-CHN_SITE01-0015,546,RETAMT,Returned Amount,0.0,TABLET,0.0,0.0,TABLET,175.0,,TREATMENT,2024-10-24,175
MS200095-0022-VISION,DA,MS200095-0022-VISION-CHN_SITE01-0015,547,DISPAMT,Dispensed Amount,1,TABLET,1,1.0,TABLET,176.0,,TREATMENT,2024-10-25,176
MS200095-0022-VISION,DA,MS200095-0022-VISION-CHN_SITE01-0015,548,REMAMT,Remaining Amount,0.1,TABLET,0.1,0.1,TABLET,176.0,,TREATMENT,2024-10-25,176
MS200095-0022-VISION,DA,MS200095-0022-VISION-CHN_SITE01-0015,549,RETAMT,Returned Amount,0.1,TABLET,0.1,0.1,TABLET,176.0,,TREATMENT,2024-10-25,176
MS200095-0022-VISION,DA,MS200095-0022-VISION-CHN_SITE01-0015,550,DISPAMT,Dispensed Amount,1,TABLET,1,1.0,TABLET,177.0,,TREATMENT,2024-10-26,177
MS200095-0022-VISION,DA,MS200095-0022-VISION-CHN_SITE01-0015,551,REMAMT,Remaining Amount,0.1,TABLET,0.1,0.1,TABLET,177.0,,TREATMENT,2024-10-26,177
MS200095-0022-VISION,DA,MS200095-0022-VISION-CHN_SITE01-0015,552,RETAMT,Returned Amount,0.1,TABLET,0.1,0.1,TABLET,177.0,,TREATMENT,2024-10-26,177
MS200095-0022-VISION,DA,MS200095-0022-VISION-CHN_SITE01-0015,553,DISPAMT,Dispensed Amount,1,TABLET,1,1.0,TABLET,178.0,,TREATMENT,2024-10-27,178
MS200095-0022-VISION,DA,MS200095-0022-VISION-CHN_SITE01-0015,554,REMAMT,Remaining Amount,0.0,TABLET,0.0,0.0,TABLET,178.0,,TREATMENT,2024-10-27,178
MS200095-0022-VISION,DA,MS200095-0022-VISION-CHN_SITE01-0015,555,RETAMT,Returned Amount,0.0,TABLET,0.0,0.0,TABLET,178.0,,TREATMENT,2024-10-27,178
MS200095-0022-VISION,DA,MS200095-0022-VISION-CHN_SITE01-0015,556,DISPAMT,Dispensed Amount,1,TABLET,1,1.0,TABLET,179.0,,TREATMENT,2024-10-28,179
MS200095-0022-VISION,DA,MS200095-0022-VISION-CHN_SITE01-0015,557,REMAMT,Remaining Amount,0.1,TABLET,0.1,0.1,TABLET,179.0,,TREATMENT,2024-10-28,179
MS200095-0022-VISION,DA,MS200095-0022-VISION-CHN_SITE01-0015,558,RETAMT,Returned Amount,0.1,TABLET,0.1,0.1,TABLET,179.0,,TREATMENT,2024-10-28,179
MS200095-0022-VISION,DA,MS200095-0022-VISION-CHN_SITE01-0015,559,DISPAMT,Dispensed Amount,1,TABLET,1,1.0,TABLET,180.0,,TREATMENT,2024-10-29,180
MS200095-0022-VISION,DA,MS200095-0022-VISION-CHN_SITE01-0015,560,REMAMT,Remaining Amount,0.0,TABLET,0.0,0.0,TABLET,180.0,,TREATMENT,2024-10-29,180
MS200095-0022-VISION,DA,MS200095-0022-VISION-CHN_SITE01-0015,561,RETAMT,Returned Amount,0.0,TABLET,0.0,0.0,TABLET,180.0,,TREATMENT,2024-10-29,180
MS200095-0022-VISION,DA,MS200095-0022-VISION-CHN_SITE01-0015,562,DISPAMT,Dispensed Amount,1,TABLET,1,1.0,TABLET,181.0,,TREATMENT,2024-10-30,181
MS200095-0022-VISION,DA,MS200095-0022-VISION-CHN_SITE01-0015,563,REMAMT,Remaining Amount,0.1,TABLET,0.1,0.1,TABLET,181.0,,TREATMENT,2024-10-30,181
MS200095-0022-VISION,DA,MS200095-0022-VISION-CHN_SITE01-0015,564,RETAMT,Returned Amount,0.1,TABLET,0.1,0.1,TABLET,181.0,,TREATMENT,2024-10-30,181
MS200095-0022-VISION,DA,MS200095-0022-VISION-CHN_SITE01-0015,565,DISPAMT,Dispensed Amount,1,TABLET,1,1.0,TABLET,182.0,,TREATMENT,2024-10-31,182
MS200095-0022-VISION,DA,MS200095-0022-VISION-CHN_SITE01-0015,566,REMAMT,Remaining Amount,0.1,TABLET,0.1,0.1,TABLET,182.0,,TREATMENT,2024-10-31,182
MS200095-0022-VISION,DA,MS200095-0022-VISION-CHN_SITE01-0015,567,RETAMT,Returned Amount,0.1,TABLET,0.1,0.1,TABLET,182.0,,TREATMENT,2024-10-31,182
MS200095-0022-VISION,DA,MS200095-0022-VISION-CHN_SITE01-0015,568,DISPAMT,Dispensed Amount,1,TABLET,1,1.0,TABLET,183.0,,TREATMENT,2024-11-01,183
MS200095-0022-VISION,DA,MS200095-0022-VISION-CHN_SITE01-0015,569,REMAMT,Remaining Amount,0.2,TABLET,0.2,0.2,TABLET,183.0,,TREATMENT,2024-11-01,183
MS200095-0022-VISION,DA,MS200095-0022-VISION-CHN_SITE01-0015,570,RETAMT,Returned Amount,0.2,TABLET,0.2,0.2,TABLET,183.0,,TREATMENT,2024-11-01,183
MS200095-0022-VISION,DA,MS200095-0022-VISION-CHN_SITE01-0015,571,DISPAMT,Dispensed Amount,1,TABLET,1,1.0,TABLET,184.0,,TREATMENT,2024-11-02,184
MS200095-0022-VISION,DA,MS200095-0022-VISION-CHN_SITE01-0015,572,REMAMT,Remaining Amount,0.1,TABLET,0.1,0.1,TABLET,184.0,,TREATMENT,2024-11-02,184
MS200095-0022-VISION,DA,MS200095-0022-VISION-CHN_SITE01-0015,573,RETAMT,Returned Amount,0.1,TABLET,0.1,0.1,TABLET,184.0,,TREATMENT,2024-11-02,184
MS200095-0022-VISION,DA,MS200095-0022-VISION-CHN_SITE01-0015,574,DISPAMT,Dispensed Amount,1,TABLET,1,1.0,TABLET,185.0,,TREATMENT,2024-11-03,185
MS200095-0022-VISION,DA,MS200095-0022-VISION-CHN_SITE01-0015,575,REMAMT,Remaining Amount,0.1,TABLET,0.1,0.1,TABLET,185.0,,TREATMENT,2024-11-03,185
MS200095-0022-VISION,DA,MS200095-0022-VISION-CHN_SITE01-0015,576,RETAMT,Returned Amount,0.1,TABLET,0.1,0.1,TABLET,185.0,,TREATMENT,2024-11-03,185
MS200095-0022-VISION,DA,MS200095-0022-VISION-CHN_SITE01-0015,577,DISPAMT,Dispensed Amount,1,TABLET,1,1.0,TABLET,186.0,,TREATMENT,2024-11-04,186
MS200095-0022-VISION,DA,MS200095-0022-VISION-CHN_SITE01-0015,578,REMAMT,Remaining Amount,0.0,TABLET,0.0,0.0,TABLET,186.0,,TREATMENT,2024-11-04,186
MS200095-0022-VISION,DA,MS200095-0022-VISION-CHN_SITE01-0015,579,RETAMT,Returned Amount,0.0,TABLET,0.0,0.0,TABLET,186.0,,TREATMENT,2024-11-04,186
MS200095-0022-VISION,DA,MS200095-0022-VISION-CHN_SITE01-0015,580,DISPAMT,Dispensed Amount,1,TABLET,1,1.0,TABLET,187.0,,TREATMENT,2024-11-05,187
MS200095-0022-VISION,DA,MS200095-0022-VISION-CHN_SITE01-0015,581,REMAMT,Remaining Amount,0.0,TABLET,0.0,0.0,TABLET,187.0,,TREATMENT,2024-11-05,187
MS200095-0022-VISION,DA,MS200095-0022-VISION-CHN_SITE01-0015,582,RETAMT,Returned Amount,0.0,TABLET,0.0,0.0,TABLET,187.0,,TREATMENT,2024-11-05,187
MS200095-0022-VISION,DA,MS200095-0022-VISION-CHN_SITE01-0015,583,DISPAMT,Dispensed Amount,1,TABLET,1,1.0,TABLET,188.0,,TREATMENT,2024-11-06,188
MS200095-0022-VISION,DA,MS200095-0022-VISION-CHN_SITE01-0015,584,REMAMT,Remaining Amount,1,TABLET,1,1.0,TABLET,188.0,,TREATMENT,2024-11-06,188
MS200095-0022-VISION,DA,MS200095-0022-VISION-CHN_SITE01-0015,585,RETAMT,Returned Amount,1,TABLET,1,1.0,TABLET,188.0,,TREATMENT,2024-11-06,188
MS200095-0022-VISION,DA,MS200095-0022-VISION-CHN_SITE01-0015,586,DISPAMT,Dispensed Amount,1,TABLET,1,1.0,TABLET,189.0,,TREATMENT,2024-11-07,189
MS200095-0022-VISION,DA,MS200095-0022-VISION-CHN_SITE01-0015,587,REMAMT,Remaining Amount,0.0,TABLET,0.0,0.0,TABLET,189.0,,TREATMENT,2024-11-07,189
MS200095-0022-VISION,DA,MS200095-0022-VISION-CHN_SITE01-0015,588,RETAMT,Returned Amount,0.0,TABLET,0.0,0.0,TABLET,189.0,,TREATMENT,2024-11-07,189
MS200095-0022-VISION,DA,MS200095-0022-VISION-CHN_SITE01-0015,589,DISPAMT,Dispensed Amount,1,TABLET,1,1.0,TABLET,190.0,,TREATMENT,2024-11-08,190
MS200095-0022-VISION,DA,MS200095-0022-VISION-CHN_SITE01-0015,590,REMAMT,Remaining Amount,0.0,TABLET,0.0,0.0,TABLET,190.0,,TREATMENT,2024-11-08,190
MS200095-0022-VISION,DA,MS200095-0022-VISION-CHN_SITE01-0015,591,RETAMT,Returned Amount,0.0,TABLET,0.0,0.0,TABLET,190.0,,TREATMENT,2024-11-08,190
MS200095-0022-VISION,DA,MS200095-0022-VISION-CHN_SITE01-0015,592,DISPAMT,Dispensed Amount,1,TABLET,1,1.0,TABLET,191.0,,TREATMENT,2024-11-09,191
MS200095-0022-VISION,DA,MS200095-0022-VISION-CHN_SITE01-0015,593,REMAMT,Remaining Amount,0.1,TABLET,0.1,0.1,TABLET,191.0,,TREATMENT,2024-11-09,191
MS200095-0022-VISION,DA,MS200095-0022-VISION-CHN_SITE01-0015,594,RETAMT,Returned Amount,0.1,TABLET,0.1,0.1,TABLET,191.0,,TREATMENT,2024-11-09,191
MS200095-0022-VISION,DA,MS200095-0022-VISION-CHN_SITE01-0015,595,DISPAMT,Dispensed Amount,1,TABLET,1,1.0,TABLET,192.0,,TREATMENT,2024-11-10,192
MS200095-0022-VISION,DA,MS200095-0022-VISION-CHN_SITE01-0015,596,REMAMT,Remaining Amount,0.0,TABLET,0.0,0.0,TABLET,192.0,,TREATMENT,2024-11-10,192
MS200095-0022-VISION,DA,MS200095-0022-VISION-CHN_SITE01-0015,597,RETAMT,Returned Amount,0.0,TABLET,0.0,0.0,TABLET,192.0,,TREATMENT,2024-11-10,192
MS200095-0022-VISION,DA,MS200095-0022-VISION-CHN_SITE01-0015,598,DISPAMT,Dispensed Amount,1,TABLET,1,1.0,TABLET,193.0,,TREATMENT,2024-11-11,193
MS200095-0022-VISION,DA,MS200095-0022-VISION-CHN_SITE01-0015,599,REMAMT,Remaining Amount,0.2,TABLET,0.2,0.2,TABLET,193.0,,TREATMENT,2024-11-11,193
MS200095-0022-VISION,DA,MS200095-0022-VISION-CHN_SITE01-0015,600,RETAMT,Returned Amount,0.2,TABLET,0.2,0.2,TABLET,193.0,,TREATMENT,2024-11-11,193
MS200095-0022-VISION,DA,MS200095-0022-VISION-CHN_SITE01-0015,601,DISPAMT,Dispensed Amount,1,TABLET,1,1.0,TABLET,194.0,,TREATMENT,2024-11-12,194
MS200095-0022-VISION,DA,MS200095-0022-VISION-CHN_SITE01-0015,602,REMAMT,Remaining Amount,0.1,TABLET,0.1,0.1,TABLET,194.0,,TREATMENT,2024-11-12,194
MS200095-0022-VISION,DA,MS200095-0022-VISION-CHN_SITE01-0015,603,RETAMT,Returned Amount,0.1,TABLET,0.1,0.1,TABLET,194.0,,TREATMENT,2024-11-12,194
MS200095-0022-VISION,DA,MS200095-0022-VISION-CHN_SITE01-0015,604,DISPAMT,Dispensed Amount,1,TABLET,1,1.0,TABLET,195.0,,TREATMENT,2024-11-13,195
MS200095-0022-VISION,DA,MS200095-0022-VISION-CHN_SITE01-0015,605,REMAMT,Remaining Amount,1,TABLET,1,1.0,TABLET,195.0,,TREATMENT,2024-11-13,195
MS200095-0022-VISION,DA,MS200095-0022-VISION-CHN_SITE01-0015,606,RETAMT,Returned Amount,1,TABLET,1,1.0,TABLET,195.0,,TREATMENT,2024-11-13,195
MS200095-0022-VISION,DA,MS200095-0022-VISION-CHN_SITE01-0015,607,DISPAMT,Dispensed Amount,1,TABLET,1,1.0,TABLET,196.0,,TREATMENT,2024-11-14,196
MS200095-0022-VISION,DA,MS200095-0022-VISION-CHN_SITE01-0015,608,REMAMT,Remaining Amount,0.0,TABLET,0.0,0.0,TABLET,196.0,,TREATMENT,2024-11-14,196
MS200095-0022-VISION,DA,MS200095-0022-VISION-CHN_SITE01-0015,609,RETAMT,Returned Amount,0.0,TABLET,0.0,0.0,TABLET,196.0,,TREATMENT,2024-11-14,196
MS200095-0022-VISION,DA,MS200095-0022-VISION-CHN_SITE01-0015,610,DISPAMT,Dispensed Amount,1,TABLET,1,1.0,TABLET,197.0,,TREATMENT,2024-11-15,197
MS200095-0022-VISION,DA,MS200095-0022-VISION-CHN_SITE01-0015,611,REMAMT,Remaining Amount,0.1,TABLET,0.1,0.1,TABLET,197.0,,TREATMENT,2024-11-15,197
MS200095-0022-VISION,DA,MS200095-0022-VISION-CHN_SITE01-0015,612,RETAMT,Returned Amount,0.1,TABLET,0.1,0.1,TABLET,197.0,,TREATMENT,2024-11-15,197
MS200095-0022-VISION,DA,MS200095-0022-VISION-CHN_SITE01-0015,613,DISPAMT,Dispensed Amount,1,TABLET,1,1.0,TABLET,198.0,,TREATMENT,2024-11-16,198
MS200095-0022-VISION,DA,MS200095-0022-VISION-CHN_SITE01-0015,614,REMAMT,Remaining Amount,0.0,TABLET,0.0,0.0,TABLET,198.0,,TREATMENT,2024-11-16,198
MS200095-0022-VISION,DA,MS200095-0022-VISION-CHN_SITE01-0015,615,RETAMT,Returned Amount,0.0,TABLET,0.0,0.0,TABLET,198.0,,TREATMENT,2024-11-16,198
MS200095-0022-VISION,DA,MS200095-0022-VISION-CHN_SITE01-0015,616,DISPAMT,Dispensed Amount,1,TABLET,1,1.0,TABLET,199.0,,TREATMENT,2024-11-17,199
MS200095-0022-VISION,DA,MS200095-0022-VISION-CHN_SITE01-0015,617,REMAMT,Remaining Amount,0.1,TABLET,0.1,0.1,TABLET,199.0,,TREATMENT,2024-11-17,199
MS200095-0022-VISION,DA,MS200095-0022-VISION-CHN_SITE01-0015,618,RETAMT,Returned Amount,0.1,TABLET,0.1,0.1,TABLET,199.0,,TREATMENT,2024-11-17,199
MS200095-0022-VISION,DA,MS200095-0022-VISION-CHN_SITE01-0015,619,DISPAMT,Dispensed Amount,1,TABLET,1,1.0,TABLET,200.0,,TREATMENT,2024-11-18,200
MS200095-0022-VISION,DA,MS200095-0022-VISION-CHN_SITE01-0015,620,REMAMT,Remaining Amount,0.1,TABLET,0.1,0.1,TABLET,200.0,,TREATMENT,2024-11-18,200
MS200095-0022-VISION,DA,MS200095-0022-VISION-CHN_SITE01-0015,621,RETAMT,Returned Amount,0.1,TABLET,0.1,0.1,TABLET,200.0,,TREATMENT,2024-11-18,200
MS200095-0022-VISION,DA,MS200095-0022-VISION-CHN_SITE01-0015,622,DISPAMT,Dispensed Amount,1,TABLET,1,1.0,TABLET,201.0,,TREATMENT,2024-11-19,201
MS200095-0022-VISION,DA,MS200095-0022-VISION-CHN_SITE01-0015,623,REMAMT,Remaining Amount,0.2,TABLET,0.2,0.2,TABLET,201.0,,TREATMENT,2024-11-19,201
MS200095-0022-VISION,DA,MS200095-0022-VISION-CHN_SITE01-0015,624,RETAMT,Returned Amount,0.2,TABLET,0.2,0.2,TABLET,201.0,,TREATMENT,2024-11-19,201
MS200095-0022-VISION,DA,MS200095-0022-VISION-CHN_SITE01-0015,625,DISPAMT,Dispensed Amount,1,TABLET,1,1.0,TABLET,202.0,,TREATMENT,2024-11-20,202
MS200095-0022-VISION,DA,MS200095-0022-VISION-CHN_SITE01-0015,626,REMAMT,Remaining Amount,0.1,TABLET,0.1,0.1,TABLET,202.0,,TREATMENT,2024-11-20,202
MS200095-0022-VISION,DA,MS200095-0022-VISION-CHN_SITE01-0015,627,RETAMT,Returned Amount,0.1,TABLET,0.1,0.1,TABLET,202.0,,TREATMENT,2024-11-20,202
MS200095-0022-VISION,DA,MS200095-0022-VISION-CHN_SITE01-0015,628,DISPAMT,Dispensed Amount,1,TABLET,1,1.0,TABLET,203.0,,TREATMENT,2024-11-21,203
MS200095-0022-VISION,DA,MS200095-0022-VISION-CHN_SITE01-0015,629,REMAMT,Remaining Amount,0.2,TABLET,0.2,0.2,TABLET,203.0,,TREATMENT,2024-11-21,203
MS200095-0022-VISION,DA,MS200095-0022-VISION-CHN_SITE01-0015,630,RETAMT,Returned Amount,0.2,TABLET,0.2,0.2,TABLET,203.0,,TREATMENT,2024-11-21,203
MS200095-0022-VISION,DA,MS200095-0022-VISION-CHN_SITE01-0015,631,DISPAMT,Dispensed Amount,1,TABLET,1,1.0,TABLET,204.0,,TREATMENT,2024-11-22,204
MS200095-0022-VISION,DA,MS200095-0022-VISION-CHN_SITE01-0015,632,REMAMT,Remaining Amount,0.1,TABLET,0.1,0.1,TABLET,204.0,,TREATMENT,2024-11-22,204
MS200095-0022-VISION,DA,MS200095-0022-VISION-CHN_SITE01-0015,633,RETAMT,Returned Amount,0.1,TABLET,0.1,0.1,TABLET,204.0,,TREATMENT,2024-11-22,204
MS200095-0022-VISION,DA,MS200095-0022-VISION-CHN_SITE01-0015,634,DISPAMT,Dispensed Amount,1,TABLET,1,1.0,TABLET,205.0,,TREATMENT,2024-11-23,205
MS200095-0022-VISION,DA,MS200095-0022-VISION-CHN_SITE01-0015,635,REMAMT,Remaining Amount,0.1,TABLET,0.1,0.1,TABLET,205.0,,TREATMENT,2024-11-23,205
MS200095-0022-VISION,DA,MS200095-0022-VISION-CHN_SITE01-0015,636,RETAMT,Returned Amount,0.1,TABLET,0.1,0.1,TABLET,205.0,,TREATMENT,2024-11-23,205
MS200095-0022-VISION,DA,MS200095-0022-VISION-CHN_SITE01-0015,637,DISPAMT,Dispensed Amount,1,TABLET,1,1.0,TABLET,206.0,,TREATMENT,2024-11-24,206
MS200095-0022-VISION,DA,MS200095-0022-VISION-CHN_SITE01-0015,638,REMAMT,Remaining Amount,0.1,TABLET,0.1,0.1,TABLET,206.0,,TREATMENT,2024-11-24,206
MS200095-0022-VISION,DA,MS200095-0022-VISION-CHN_SITE01-0015,639,RETAMT,Returned Amount,0.1,TABLET,0.1,0.1,TABLET,206.0,,TREATMENT,2024-11-24,206
MS200095-0022-VISION,DA,MS200095-0022-VISION-CHN_SITE01-0015,640,DISPAMT,Dispensed Amount,1,TABLET,1,1.0,TABLET,207.0,,TREATMENT,2024-11-25,207
MS200095-0022-VISION,DA,MS200095-0022-VISION-CHN_SITE01-0015,641,REMAMT,Remaining Amount,0.1,TABLET,0.1,0.1,TABLET,207.0,,TREATMENT,2024-11-25,207
MS200095-0022-VISION,DA,MS200095-0022-VISION-CHN_SITE01-0015,642,RETAMT,Returned Amount,0.1,TABLET,0.1,0.1,TABLET,207.0,,TREATMENT,2024-11-25,207
MS200095-0022-VISION,DA,MS200095-0022-VISION-CHN_SITE01-0015,643,DISPAMT,Dispensed Amount,1,TABLET,1,1.0,TABLET,208.0,,TREATMENT,2024-11-26,208
MS200095-0022-VISION,DA,MS200095-0022-VISION-CHN_SITE01-0015,644,REMAMT,Remaining Amount,0.1,TABLET,0.1,0.1,TABLET,208.0,,TREATMENT,2024-11-26,208
MS200095-0022-VISION,DA,MS200095-0022-VISION-CHN_SITE01-0015,645,RETAMT,Returned Amount,0.1,TABLET,0.1,0.1,TABLET,208.0,,TREATMENT,2024-11-26,208
MS200095-0022-VISION,DA,MS200095-0022-VISION-CHN_SITE01-0015,646,DISPAMT,Dispensed Amount,1,TABLET,1,1.0,TABLET,209.0,,TREATMENT,2024-11-27,209
MS200095-0022-VISION,DA,MS200095-0022-VISION-CHN_SITE01-0015,647,REMAMT,Remaining Amount,0.0,TABLET,0.0,0.0,TABLET,209.0,,TREATMENT,2024-11-27,209
MS200095-0022-VISION,DA,MS200095-0022-VISION-CHN_SITE01-0015,648,RETAMT,Returned Amount,0.0,TABLET,0.0,0.0,TABLET,209.0,,TREATMENT,2024-11-27,209
MS200095-0022-VISION,DA,MS200095-0022-VISION-CHN_SITE01-0015,649,DISPAMT,Dispensed Amount,1,TABLET,1,1.0,TABLET,210.0,,TREATMENT,2024-11-28,210
MS200095-0022-VISION,DA,MS200095-0022-VISION-CHN_SITE01-0015,650,REMAMT,Remaining Amount,0.0,TABLET,0.0,0.0,TABLET,210.0,,TREATMENT,2024-11-28,210
MS200095-0022-VISION,DA,MS200095-0022-VISION-CHN_SITE01-0015,651,RETAMT,Returned Amount,0.0,TABLET,0.0,0.0,TABLET,210.0,,TREATMENT,2024-11-28,210
MS200095-0022-VISION,DA,MS200095-0022-VISION-CHN_SITE01-0015,652,DISPAMT,Dispensed Amount,1,TABLET,1,1.0,TABLET,211.0,,TREATMENT,2024-11-29,211
MS200095-0022-VISION,DA,MS200095-0022-VISION-CHN_SITE01-0015,653,REMAMT,Remaining Amount,0.1,TABLET,0.1,0.1,TABLET,211.0,,TREATMENT,2024-11-29,211
MS200095-0022-VISION,DA,MS200095-0022-VISION-CHN_SITE01-0015,654,RETAMT,Returned Amount,0.1,TABLET,0.1,0.1,TABLET,211.0,,TREATMENT,2024-11-29,211
MS200095-0022-VISION,DA,MS200095-0022-VISION-CHN_SITE01-0015,655,DISPAMT,Dispensed Amount,1,TABLET,1,1.0,TABLET,212.0,,TREATMENT,2024-11-30,212
MS200095-0022-VISION,DA,MS200095-0022-VISION-CHN_SITE01-0015,656,REMAMT,Remaining Amount,0.1,TABLET,0.1,0.1,TABLET,212.0,,TREATMENT,2024-11-30,212
MS200095-0022-VISION,DA,MS200095-0022-VISION-CHN_SITE01-0015,657,RETAMT,Returned Amount,0.1,TABLET,0.1,0.1,TABLET,212.0,,TREATMENT,2024-11-30,212
MS200095-0022-VISION,DA,MS200095-0022-VISION-CHN_SITE01-0015,658,DISPAMT,Dispensed Amount,1,TABLET,1,1.0,TABLET,213.0,,TREATMENT,2024-12-01,213
MS200095-0022-VISION,DA,MS200095-0022-VISION-CHN_SITE01-0015,659,REMAMT,Remaining Amount,0.2,TABLET,0.2,0.2,TABLET,213.0,,TREATMENT,2024-12-01,213
MS200095-0022-VISION,DA,MS200095-0022-VISION-CHN_SITE01-0015,660,RETAMT,Returned Amount,0.2,TABLET,0.2,0.2,TABLET,213.0,,TREATMENT,2024-12-01,213
MS200095-0022-VISION,DA,MS200095-0022-VISION-CHN_SITE01-0015,661,DISPAMT,Dispensed Amount,1,TABLET,1,1.0,TABLET,214.0,,TREATMENT,2024-12-02,214
MS200095-0022-VISION,DA,MS200095-0022-VISION-CHN_SITE01-0015,662,REMAMT,Remaining Amount,0.0,TABLET,0.0,0.0,TABLET,214.0,,TREATMENT,2024-12-02,214
MS200095-0022-VISION,DA,MS200095-0022-VISION-CHN_SITE01-0015,663,RETAMT,Returned Amount,0.0,TABLET,0.0,0.0,TABLET,214.0,,TREATMENT,2024-12-02,214
MS200095-0022-VISION,DA,MS200095-0022-VISION-CHN_SITE01-0015,664,DISPAMT,Dispensed Amount,1,TABLET,1,1.0,TABLET,215.0,,TREATMENT,2024-12-03,215
MS200095-0022-VISION,DA,MS200095-0022-VISION-CHN_SITE01-0015,665,REMAMT,Remaining Amount,0.0,TABLET,0.0,0.0,TABLET,215.0,,TREATMENT,2024-12-03,215
MS200095-0022-VISION,DA,MS200095-0022-VISION-CHN_SITE01-0015,666,RETAMT,Returned Amount,0.0,TABLET,0.0,0.0,TABLET,215.0,,TREATMENT,2024-12-03,215
MS200095-0022-VISION,DA,MS200095-0022-VISION-CHN_SITE01-0015,667,DISPAMT,Dispensed Amount,1,TABLET,1,1.0,TABLET,216.0,,TREATMENT,2024-12-04,216
MS200095-0022-VISION,DA,MS200095-0022-VISION-CHN_SITE01-0015,668,REMAMT,Remaining Amount,0.1,TABLET,0.1,0.1,TABLET,216.0,,TREATMENT,2024-12-04,216
MS200095-0022-VISION,DA,MS200095-0022-VISION-CHN_SITE01-0015,669,RETAMT,Returned Amount,0.1,TABLET,0.1,0.1,TABLET,216.0,,TREATMENT,2024-12-04,216
MS200095-0022-VISION,DA,MS200095-0022-VISION-CHN_SITE01-0015,670,DISPAMT,Dispensed Amount,1,TABLET,1,1.0,TABLET,217.0,,TREATMENT,2024-12-05,217
MS200095-0022-VISION,DA,MS200095-0022-VISION-CHN_SITE01-0015,671,REMAMT,Remaining Amount,0.1,TABLET,0.1,0.1,TABLET,217.0,,TREATMENT,2024-12-05,217
MS200095-0022-VISION,DA,MS200095-0022-VISION-CHN_SITE01-0015,672,RETAMT,Returned Amount,0.1,TABLET,0.1,0.1,TABLET,217.0,,TREATMENT,2024-12-05,217
MS200095-0022-VISION,DA,MS200095-0022-VISION-CHN_SITE01-0015,673,DISPAMT,Dispensed Amount,1,TABLET,1,1.0,TABLET,218.0,,TREATMENT,2024-12-06,218
MS200095-0022-VISION,DA,MS200095-0022-VISION-CHN_SITE01-0015,674,REMAMT,Remaining Amount,0.1,TABLET,0.1,0.1,TABLET,218.0,,TREATMENT,2024-12-06,218
MS200095-0022-VISION,DA,MS200095-0022-VISION-CHN_SITE01-0015,675,RETAMT,Returned Amount,0.1,TABLET,0.1,0.1,TABLET,218.0,,TREATMENT,2024-12-06,218
MS200095-0022-VISION,DA,MS200095-0022-VISION-CHN_SITE01-0015,676,DISPAMT,Dispensed Amount,1,TABLET,1,1.0,TABLET,219.0,,TREATMENT,2024-12-07,219
MS200095-0022-VISION,DA,MS200095-0022-VISION-CHN_SITE01-0015,677,REMAMT,Remaining Amount,0.0,TABLET,0.0,0.0,TABLET,219.0,,TREATMENT,2024-12-07,219
MS200095-0022-VISION,DA,MS200095-0022-VISION-CHN_SITE01-0015,678,RETAMT,Returned Amount,0.0,TABLET,0.0,0.0,TABLET,219.0,,TREATMENT,2024-12-07,219
MS200095-0022-VISION,DA,MS200095-0022-VISION-CHN_SITE01-0015,679,DISPAMT,Dispensed Amount,1,TABLET,1,1.0,TABLET,220.0,,TREATMENT,2024-12-08,220
MS200095-0022-VISION,DA,MS200095-0022-VISION-CHN_SITE01-0015,680,REMAMT,Remaining Amount,0.2,TABLET,0.2,0.2,TABLET,220.0,,TREATMENT,2024-12-08,220
MS200095-0022-VISION,DA,MS200095-0022-VISION-CHN_SITE01-0015,681,RETAMT,Returned Amount,0.2,TABLET,0.2,0.2,TABLET,220.0,,TREATMENT,2024-12-08,220
MS200095-0022-VISION,DA,MS200095-0022-VISION-CHN_SITE01-0015,682,DISPAMT,Dispensed Amount,1,TABLET,1,1.0,TABLET,221.0,,TREATMENT,2024-12-09,221
MS200095-0022-VISION,DA,MS200095-0022-VISION-CHN_SITE01-0015,683,REMAMT,Remaining Amount,0.1,TABLET,0.1,0.1,TABLET,221.0,,TREATMENT,2024-12-09,221
MS200095-0022-VISION,DA,MS200095-0022-VISION-CHN_SITE01-0015,684,RETAMT,Returned Amount,0.1,TABLET,0.1,0.1,TABLET,221.0,,TREATMENT,2024-12-09,221
MS200095-0022-VISION,DA,MS200095-0022-VISION-CHN_SITE01-0015,685,DISPAMT,Dispensed Amount,1,TABLET,1,1.0,TABLET,222.0,,TREATMENT,2024-12-10,222
MS200095-0022-VISION,DA,MS200095-0022-VISION-CHN_SITE01-0015,686,REMAMT,Remaining Amount,0.0,TABLET,0.0,0.0,TABLET,222.0,,TREATMENT,2024-12-10,222
MS200095-0022-VISION,DA,MS200095-0022-VISION-CHN_SITE01-0015,687,RETAMT,Returned Amount,0.0,TABLET,0.0,0.0,TABLET,222.0,,TREATMENT,2024-12-10,222
MS200095-0022-VISION,DA,MS200095-0022-VISION-CHN_SITE01-0015,688,DISPAMT,Dispensed Amount,1,TABLET,1,1.0,TABLET,223.0,,TREATMENT,2024-12-11,223
MS200095-0022-VISION,DA,MS200095-0022-VISION-CHN_SITE01-0015,689,REMAMT,Remaining Amount,0.1,TABLET,0.1,0.1,TABLET,223.0,,TREATMENT,2024-12-11,223
MS200095-0022-VISION,DA,MS200095-0022-VISION-CHN_SITE01-0015,690,RETAMT,Returned Amount,0.1,TABLET,0.1,0.1,TABLET,223.0,,TREATMENT,2024-12-11,223
MS200095-0022-VISION,DA,MS200095-0022-VISION-CHN_SITE01-0015,691,DISPAMT,Dispensed Amount,1,TABLET,1,1.0,TABLET,224.0,,TREATMENT,2024-12-12,224
MS200095-0022-VISION,DA,MS200095-0022-VISION-CHN_SITE01-0015,692,REMAMT,Remaining Amount,0.0,TABLET,0.0,0.0,TABLET,224.0,,TREATMENT,2024-12-12,224
MS200095-0022-VISION,DA,MS200095-0022-VISION-CHN_SITE01-0015,693,RETAMT,Returned Amount,0.0,TABLET,0.0,0.0,TABLET,224.0,,TREATMENT,2024-12-12,224
MS200095-0022-VISION,DA,MS200095-0022-VISION-CHN_SITE01-0015,694,DISPAMT,Dispensed Amount,1,TABLET,1,1.0,TABLET,225.0,,TREATMENT,2024-12-13,225
MS200095-0022-VISION,DA,MS200095-0022-VISION-CHN_SITE01-0015,695,REMAMT,Remaining Amount,0.0,TABLET,0.0,0.0,TABLET,225.0,,TREATMENT,2024-12-13,225
MS200095-0022-VISION,DA,MS200095-0022-VISION-CHN_SITE01-0015,696,RETAMT,Returned Amount,0.0,TABLET,0.0,0.0,TABLET,225.0,,TREATMENT,2024-12-13,225
MS200095-0022-VISION,DA,MS200095-0022-VISION-CHN_SITE01-0015,697,DISPAMT,Dispensed Amount,1,TABLET,1,1.0,TABLET,226.0,,TREATMENT,2024-12-14,226
MS200095-0022-VISION,DA,MS200095-0022-VISION-CHN_SITE01-0015,698,REMAMT,Remaining Amount,1,TABLET,1,1.0,TABLET,226.0,,TREATMENT,2024-12-14,226
MS200095-0022-VISION,DA,MS200095-0022-VISION-CHN_SITE01-0015,699,RETAMT,Returned Amount,1,TABLET,1,1.0,TABLET,226.0,,TREATMENT,2024-12-14,226
MS200095-0022-VISION,DA,MS200095-0022-VISION-CHN_SITE01-0015,700,DISPAMT,Dispensed Amount,1,TABLET,1,1.0,TABLET,227.0,,TREATMENT,2024-12-15,227
MS200095-0022-VISION,DA,MS200095-0022-VISION-CHN_SITE01-0015,701,REMAMT,Remaining Amount,0.1,TABLET,0.1,0.1,TABLET,227.0,,TREATMENT,2024-12-15,227
MS200095-0022-VISION,DA,MS200095-0022-VISION-CHN_SITE01-0015,702,RETAMT,Returned Amount,0.1,TABLET,0.1,0.1,TABLET,227.0,,TREATMENT,2024-12-15,227
MS200095-0022-VISION,DA,MS200095-0022-VISION-CHN_SITE01-0015,703,DISPAMT,Dispensed Amount,1,TABLET,1,1.0,TABLET,228.0,,TREATMENT,2024-12-16,228
MS200095-0022-VISION,DA,MS200095-0022-VISION-CHN_SITE01-0015,704,REMAMT,Remaining Amount,0.1,TABLET,0.1,0.1,TABLET,228.0,,TREATMENT,2024-12-16,228
MS200095-0022-VISION,DA,MS200095-0022-VISION-CHN_SITE01-0015,705,RETAMT,Returned Amount,0.1,TABLET,0.1,0.1,TABLET,228.0,,TREATMENT,2024-12-16,228
MS200095-0022-VISION,DA,MS200095-0022-VISION-CHN_SITE01-0015,706,DISPAMT,Dispensed Amount,1,TABLET,1,1.0,TABLET,236.0,,TREATMENT,2024-12-24,236
MS200095-0022-VISION,DA,MS200095-0022-VISION-CHN_SITE01-0015,707,REMAMT,Remaining Amount,0.1,TABLET,0.1,0.1,TABLET,236.0,,TREATMENT,2024-12-24,236
MS200095-0022-VISION,DA,MS200095-0022-VISION-CHN_SITE01-0015,708,RETAMT,Returned Amount,0.1,TABLET,0.1,0.1,TABLET,236.0,,TREATMENT,2024-12-24,236
MS200095-0022-VISION,DA,MS200095-0022-VISION-CHN_SITE01-0015,709,DISPAMT,Dispensed Amount,1,TABLET,1,1.0,TABLET,237.0,,TREATMENT,2024-12-25,237
MS200095-0022-VISION,DA,MS200095-0022-VISION-CHN_SITE01-0015,710,REMAMT,Remaining Amount,0.0,TABLET,0.0,0.0,TABLET,237.0,,TREATMENT,2024-12-25,237
MS200095-0022-VISION,DA,MS200095-0022-VISION-CHN_SITE01-0015,711,RETAMT,Returned Amount,0.0,TABLET,0.0,0.0,TABLET,237.0,,TREATMENT,2024-12-25,237
MS200095-0022-VISION,DA,MS200095-0022-VISION-CHN_SITE01-0015,712,DISPAMT,Dispensed Amount,1,TABLET,1,1.0,TABLET,238.0,,TREATMENT,2024-12-26,238
MS200095-0022-VISION,DA,MS200095-0022-VISION-CHN_SITE01-0015,713,REMAMT,Remaining Amount,0.0,TABLET,0.0,0.0,TABLET,238.0,,TREATMENT,2024-12-26,238
MS200095-0022-VISION,DA,MS200095-0022-VISION-CHN_SITE01-0015,714,RETAMT,Returned Amount,0.0,TABLET,0.0,0.0,TABLET,238.0,,TREATMENT,2024-12-26,238
MS200095-0022-VISION,DA,MS200095-0022-VISION-CHN_SITE01-0015,715,DISPAMT,Dispensed Amount,1,TABLET,1,1.0,TABLET,239.0,,TREATMENT,2024-12-27,239
MS200095-0022-VISION,DA,MS200095-0022-VISION-CHN_SITE01-0015,716,REMAMT,Remaining Amount,0.1,TABLET,0.1,0.1,TABLET,239.0,,TREATMENT,2024-12-27,239
MS200095-0022-VISION,DA,MS200095-0022-VISION-CHN_SITE01-0015,717,RETAMT,Returned Amount,0.1,TABLET,0.1,0.1,TABLET,239.0,,TREATMENT,2024-12-27,239
MS200095-0022-VISION,DA,MS200095-0022-VISION-CHN_SITE01-0015,718,DISPAMT,Dispensed Amount,1,TABLET,1,1.0,TABLET,240.0,,TREATMENT,2024-12-28,240
MS200095-0022-VISION,DA,MS200095-0022-VISION-CHN_SITE01-0015,719,REMAMT,Remaining Amount,0.0,TABLET,0.0,0.0,TABLET,240.0,,TREATMENT,2024-12-28,240
MS200095-0022-VISION,DA,MS200095-0022-VISION-CHN_SITE01-0015,720,RETAMT,Returned Amount,0.0,TABLET,0.0,0.0,TABLET,240.0,,TREATMENT,2024-12-28,240
MS200095-0022-VISION,DA,MS200095-0022-VISION-CHN_SITE01-0015,721,DISPAMT,Dispensed Amount,1,TABLET,1,1.0,TABLET,241.0,,TREATMENT,2024-12-29,241
MS200095-0022-VISION,DA,MS200095-0022-VISION-CHN_SITE01-0015,722,REMAMT,Remaining Amount,0.2,TABLET,0.2,0.2,TABLET,241.0,,TREATMENT,2024-12-29,241
MS200095-0022-VISION,DA,MS200095-0022-VISION-CHN_SITE01-0015,723,RETAMT,Returned Amount,0.2,TABLET,0.2,0.2,TABLET,241.0,,TREATMENT,2024-12-29,241
MS200095-0022-VISION,DA,MS200095-0022-VISION-CHN_SITE01-0015,724,DISPAMT,Dispensed Amount,1,TABLET,1,1.0,TABLET,242.0,,TREATMENT,2024-12-30,242
MS200095-0022-VISION,DA,MS200095-0022-VISION-CHN_SITE01-0015,725,REMAMT,Remaining Amount,0.1,TABLET,0.1,0.1,TABLET,242.0,,TREATMENT,2024-12-30,242
MS200095-0022-VISION,DA,MS200095-0022-VISION-CHN_SITE01-0015,726,RETAMT,Returned Amount,0.1,TABLET,0.1,0.1,TABLET,242.0,,TREATMENT,2024-12-30,242
MS200095-0022-VISION,DA,MS200095-0022-VISION-CHN_SITE01-0015,727,DISPAMT,Dispensed Amount,1,TABLET,1,1.0,TABLET,243.0,,TREATMENT,2024-12-31,243
MS200095-0022-VISION,DA,MS200095-0022-VISION-CHN_SITE01-0015,728,REMAMT,Remaining Amount,0.1,TABLET,0.1,0.1,TABLET,243.0,,TREATMENT,2024-12-31,243
MS200095-0022-VISION,DA,MS200095-0022-VISION-CHN_SITE01-0015,729,RETAMT,Returned Amount,0.1,TABLET,0.1,0.1,TABLET,243.0,,TREATMENT,2024-12-31,243
MS200095-0022-VISION,DA,MS200095-0022-VISION-CHN_SITE01-0015,730,DISPAMT,Dispensed Amount,1,TABLET,1,1.0,TABLET,244.0,,TREATMENT,2025-01-01,244
MS200095-0022-VISION,DA,MS200095-0022-VISION-CHN_SITE01-0015,731,REMAMT,Remaining Amount,0.0,TABLET,0.0,0.0,TABLET,244.0,,TREATMENT,2025-01-01,244
MS200095-0022-VISION,DA,MS200095-0022-VISION-CHN_SITE01-0015,732,RETAMT,Returned Amount,0.0,TABLET,0.0,0.0,TABLET,244.0,,TREATMENT,2025-01-01,244
MS200095-0022-VISION,DA,MS200095-0022-VISION-CHN_SITE01-0015,733,DISPAMT,Dispensed Amount,1,TABLET,1,1.0,TABLET,245.0,,TREATMENT,2025-01-02,245
MS200095-0022-VISION,DA,MS200095-0022-VISION-CHN_SITE01-0015,734,REMAMT,Remaining Amount,0.0,TABLET,0.0,0.0,TABLET,245.0,,TREATMENT,2025-01-02,245
MS200095-0022-VISION,DA,MS200095-0022-VISION-CHN_SITE01-0015,735,RETAMT,Returned Amount,0.0,TABLET,0.0,0.0,TABLET,245.0,,TREATMENT,2025-01-02,245
MS200095-0022-VISION,DA,MS200095-0022-VISION-CHN_SITE01-0015,736,DISPAMT,Dispensed Amount,1,TABLET,1,1.0,TABLET,246.0,,TREATMENT,2025-01-03,246
MS200095-0022-VISION,DA,MS200095-0022-VISION-CHN_SITE01-0015,737,REMAMT,Remaining Amount,0.0,TABLET,0.0,0.0,TABLET,246.0,,TREATMENT,2025-01-03,246
MS200095-0022-VISION,DA,MS200095-0022-VISION-CHN_SITE01-0015,738,RETAMT,Returned Amount,0.0,TABLET,0.0,0.0,TABLET,246.0,,TREATMENT,2025-01-03,246
MS200095-0022-VISION,DA,MS200095-0022-VISION-CHN_SITE01-0015,739,DISPAMT,Dispensed Amount,1,TABLET,1,1.0,TABLET,247.0,,TREATMENT,2025-01-04,247
MS200095-0022-VISION,DA,MS200095-0022-VISION-CHN_SITE01-0015,740,REMAMT,Remaining Amount,0.0,TABLET,0.0,0.0,TABLET,247.0,,TREATMENT,2025-01-04,247
MS200095-0022-VISION,DA,MS200095-0022-VISION-CHN_SITE01-0015,741,RETAMT,Returned Amount,0.0,TABLET,0.0,0.0,TABLET,247.0,,TREATMENT,2025-01-04,247
MS200095-0022-VISION,DA,MS200095-0022-VISION-CHN_SITE01-0015,742,DISPAMT,Dispensed Amount,1,TABLET,1,1.0,TABLET,248.0,,TREATMENT,2025-01-05,248
MS200095-0022-VISION,DA,MS200095-0022-VISION-CHN_SITE01-0015,743,REMAMT,Remaining Amount,0.0,TABLET,0.0,0.0,TABLET,248.0,,TREATMENT,2025-01-05,248
MS200095-0022-VISION,DA,MS200095-0022-VISION-CHN_SITE01-0015,744,RETAMT,Returned Amount,0.0,TABLET,0.0,0.0,TABLET,248.0,,TREATMENT,2025-01-05,248
MS200095-0022-VISION,DA,MS200095-0022-VISION-CHN_SITE01-0015,745,DISPAMT,Dispensed Amount,1,TABLET,1,1.0,TABLET,249.0,,TREATMENT,2025-01-06,249
MS200095-0022-VISION,DA,MS200095-0022-VISION-CHN_SITE01-0015,746,REMAMT,Remaining Amount,0.1,TABLET,0.1,0.1,TABLET,249.0,,TREATMENT,2025-01-06,249
MS200095-0022-VISION,DA,MS200095-0022-VISION-CHN_SITE01-0015,747,RETAMT,Returned Amount,0.1,TABLET,0.1,0.1,TABLET,249.0,,TREATMENT,2025-01-06,249
MS200095-0022-VISION,DA,MS200095-0022-VISION-CHN_SITE01-0015,748,DISPAMT,Dispensed Amount,1,TABLET,1,1.0,TABLET,250.0,,TREATMENT,2025-01-07,250
MS200095-0022-VISION,DA,MS200095-0022-VISION-CHN_SITE01-0015,749,REMAMT,Remaining Amount,0.1,TABLET,0.1,0.1,TABLET,250.0,,TREATMENT,2025-01-07,250
MS200095-0022-VISION,DA,MS200095-0022-VISION-CHN_SITE01-0015,750,RETAMT,Returned Amount,0.1,TABLET,0.1,0.1,TABLET,250.0,,TREATMENT,2025-01-07,250
MS200095-0022-VISION,DA,MS200095-0022-VISION-CHN_SITE01-0015,751,DISPAMT,Dispensed Amount,1,TABLET,1,1.0,TABLET,251.0,,TREATMENT,2025-01-08,251
MS200095-0022-VISION,DA,MS200095-0022-VISION-CHN_SITE01-0015,752,REMAMT,Remaining Amount,0.0,TABLET,0.0,0.0,TABLET,251.0,,TREATMENT,2025-01-08,251
MS200095-0022-VISION,DA,MS200095-0022-VISION-CHN_SITE01-0015,753,RETAMT,Returned Amount,0.0,TABLET,0.0,0.0,TABLET,251.0,,TREATMENT,2025-01-08,251
MS200095-0022-VISION,DA,MS200095-0022-VISION-CHN_SITE01-0015,754,DISPAMT,Dispensed Amount,1,TABLET,1,1.0,TABLET,252.0,,TREATMENT,2025-01-09,252
MS200095-0022-VISION,DA,MS200095-0022-VISION-CHN_SITE01-0015,755,REMAMT,Remaining Amount,0.0,TABLET,0.0,0.0,TABLET,252.0,,TREATMENT,2025-01-09,252
MS200095-0022-VISION,DA,MS200095-0022-VISION-CHN_SITE01-0015,756,RETAMT,Returned Amount,0.0,TABLET,0.0,0.0,TABLET,252.0,,TREATMENT,2025-01-09,252
MS200095-0022-VISION,DA,MS200095-0022-VISION-CHN_SITE01-0015,757,DISPAMT,Dispensed Amount,1,TABLET,1,1.0,TABLET,253.0,,TREATMENT,2025-01-10,253
MS200095-0022-VISION,DA,MS200095-0022-VISION-CHN_SITE01-0015,758,REMAMT,Remaining Amount,0.1,TABLET,0.1,0.1,TABLET,253.0,,TREATMENT,2025-01-10,253
MS200095-0022-VISION,DA,MS200095-0022-VISION-CHN_SITE01-0015,759,RETAMT,Returned Amount,0.1,TABLET,0.1,0.1,TABLET,253.0,,TREATMENT,2025-01-10,253
MS200095-0022-VISION,DA,MS200095-0022-VISION-CHN_SITE01-0015,760,DISPAMT,Dispensed Amount,1,TABLET,1,1.0,TABLET,254.0,,TREATMENT,2025-01-11,254
MS200095-0022-VISION,DA,MS200095-0022-VISION-CHN_SITE01-0015,761,REMAMT,Remaining Amount,0.0,TABLET,0.0,0.0,TABLET,254.0,,TREATMENT,2025-01-11,254
MS200095-0022-VISION,DA,MS200095-0022-VISION-CHN_SITE01-0015,762,RETAMT,Returned Amount,0.0,TABLET,0.0,0.0,TABLET,254.0,,TREATMENT,2025-01-11,254
MS200095-0022-VISION,DA,MS200095-0022-VISION-CHN_SITE01-0015,763,DISPAMT,Dispensed Amount,1,TABLET,1,1.0,TABLET,255.0,,TREATMENT,2025-01-12,255
MS200095-0022-VISION,DA,MS200095-0022-VISION-CHN_SITE01-0015,764,REMAMT,Remaining Amount,1,TABLET,1,1.0,TABLET,255.0,,TREATMENT,2025-01-12,255
MS200095-0022-VISION,DA,MS200095-0022-VISION-CHN_SITE01-0015,765,RETAMT,Returned Amount,1,TABLET,1,1.0,TABLET,255.0,,TREATMENT,2025-01-12,255
MS200095-0022-VISION,DA,MS200095-0022-VISION-CHN_SITE01-0015,766,DISPAMT,Dispensed Amount,1,TABLET,1,1.0,TABLET,256.0,,TREATMENT,2025-01-13,256
MS200095-0022-VISION,DA,MS200095-0022-VISION-CHN_SITE01-0015,767,REMAMT,Remaining Amount,0.1,TABLET,0.1,0.1,TABLET,256.0,,TREATMENT,2025-01-13,256
MS200095-0022-VISION,DA,MS200095-0022-VISION-CHN_SITE01-0015,768,RETAMT,Returned Amount,0.1,TABLET,0.1,0.1,TABLET,256.0,,TREATMENT,2025-01-13,256
MS200095-0022-VISION,DA,MS200095-0022-VISION-CHN_SITE01-0015,769,DISPAMT,Dispensed Amount,1,TABLET,1,1.0,TABLET,257.0,,TREATMENT,2025-01-14,257
MS200095-0022-VISION,DA,MS200095-0022-VISION-CHN_SITE01-0015,770,REMAMT,Remaining Amount,0.1,TABLET,0.1,0.1,TABLET,257.0,,TREATMENT,2025-01-14,257
MS200095-0022-VISION,DA,MS200095-0022-VISION-CHN_SITE01-0015,771,RETAMT,Returned Amount,0.1,TABLET,0.1,0.1,TABLET,257.0,,TREATMENT,2025-01-14,257
MS200095-0022-VISION,DA,MS200095-0022-VISION-CHN_SITE01-0015,772,DISPAMT,Dispensed Amount,1,TABLET,1,1.0,TABLET,258.0,,TREATMENT,2025-01-15,258
MS200095-0022-VISION,DA,MS200095-0022-VISION-CHN_SITE01-0015,773,REMAMT,Remaining Amount,0.1,TABLET,0.1,0.1,TABLET,258.0,,TREATMENT,2025-01-15,258
MS200095-0022-VISION,DA,MS200095-0022-VISION-CHN_SITE01-0015,774,RETAMT,Returned Amount,0.1,TABLET,0.1,0.1,TABLET,258.0,,TREATMENT,2025-01-15,258
MS200095-0022-VISION,DA,MS200095-0022-VISION-CHN_SITE01-0015,775,DISPAMT,Dispensed Amount,1,TABLET,1,1.0,TABLET,259.0,,TREATMENT,2025-01-16,259
MS200095-0022-VISION,DA,MS200095-0022-VISION-CHN_SITE01-0015,776,REMAMT,Remaining Amount,0.1,TABLET,0.1,0.1,TABLET,259.0,,TREATMENT,2025-01-16,259
MS200095-0022-VISION,DA,MS200095-0022-VISION-CHN_SITE01-0015,777,RETAMT,Returned Amount,0.1,TABLET,0.1,0.1,TABLET,259.0,,TREATMENT,2025-01-16,259
MS200095-0022-VISION,DA,MS200095-0022-VISION-CHN_SITE01-0015,778,DISPAMT,Dispensed Amount,1,TABLET,1,1.0,TABLET,260.0,,TREATMENT,2025-01-17,260
MS200095-0022-VISION,DA,MS200095-0022-VISION-CHN_SITE01-0015,779,REMAMT,Remaining Amount,0.1,TABLET,0.1,0.1,TABLET,260.0,,TREATMENT,2025-01-17,260
MS200095-0022-VISION,DA,MS200095-0022-VISION-CHN_SITE01-0015,780,RETAMT,Returned Amount,0.1,TABLET,0.1,0.1,TABLET,260.0,,TREATMENT,2025-01-17,260
MS200095-0022-VISION,DA,MS200095-0022-VISION-CHN_SITE01-0015,781,DISPAMT,Dispensed Amount,1,TABLET,1,1.0,TABLET,261.0,,TREATMENT,2025-01-18,261
MS200095-0022-VISION,DA,MS200095-0022-VISION-CHN_SITE01-0015,782,REMAMT,Remaining Amount,0.1,TABLET,0.1,0.1,TABLET,261.0,,TREATMENT,2025-01-18,261
MS200095-0022-VISION,DA,MS200095-0022-VISION-CHN_SITE01-0015,783,RETAMT,Returned Amount,0.1,TABLET,0.1,0.1,TABLET,261.0,,TREATMENT,2025-01-18,261
MS200095-0022-VISION,DA,MS200095-0022-VISION-CHN_SITE01-0015,784,DISPAMT,Dispensed Amount,1,TABLET,1,1.0,TABLET,262.0,,TREATMENT,2025-01-19,262
MS200095-0022-VISION,DA,MS200095-0022-VISION-CHN_SITE01-0015,785,REMAMT,Remaining Amount,1,TABLET,1,1.0,TABLET,262.0,,TREATMENT,2025-01-19,262
MS200095-0022-VISION,DA,MS200095-0022-VISION-CHN_SITE01-0015,786,RETAMT,Returned Amount,1,TABLET,1,1.0,TABLET,262.0,,TREATMENT,2025-01-19,262
MS200095-0022-VISION,DA,MS200095-0022-VISION-CHN_SITE01-0015,787,DISPAMT,Dispensed Amount,1,TABLET,1,1.0,TABLET,263.0,,TREATMENT,2025-01-20,263
MS200095-0022-VISION,DA,MS200095-0022-VISION-CHN_SITE01-0015,788,REMAMT,Remaining Amount,0.1,TABLET,0.1,0.1,TABLET,263.0,,TREATMENT,2025-01-20,263
MS200095-0022-VISION,DA,MS200095-0022-VISION-CHN_SITE01-0015,789,RETAMT,Returned Amount,0.1,TABLET,0.1,0.1,TABLET,263.0,,TREATMENT,2025-01-20,263
MS200095-0022-VISION,DA,MS200095-0022-VISION-CHN_SITE01-0015,790,DISPAMT,Dispensed Amount,1,TABLET,1,1.0,TABLET,264.0,,TREATMENT,2025-01-21,264
MS200095-0022-VISION,DA,MS200095-0022-VISION-CHN_SITE01-0015,791,REMAMT,Remaining Amount,1,TABLET,1,1.0,TABLET,264.0,,TREATMENT,2025-01-21,264
MS200095-0022-VISION,DA,MS200095-0022-VISION-CHN_SITE01-0015,792,RETAMT,Returned Amount,1,TABLET,1,1.0,TABLET,264.0,,TREATMENT,2025-01-21,264
MS200095-0022-VISION,DA,MS200095-0022-VISION-CHN_SITE01-0015,793,DISPAMT,Dispensed Amount,1,TABLET,1,1.0,TABLET,265.0,,TREATMENT,2025-01-22,265
MS200095-0022-VISION,DA,MS200095-0022-VISION-CHN_SITE01-0015,794,REMAMT,Remaining Amount,0.0,TABLET,0.0,0.0,TABLET,265.0,,TREATMENT,2025-01-22,265
MS200095-0022-VISION,DA,MS200095-0022-VISION-CHN_SITE01-0015,795,RETAMT,Returned Amount,0.0,TABLET,0.0,0.0,TABLET,265.0,,TREATMENT,2025-01-22,265
MS200095-0022-VISION,DA,MS200095-0022-VISION-CHN_SITE01-0015,796,DISPAMT,Dispensed Amount,1,TABLET,1,1.0,TABLET,266.0,,TREATMENT,2025-01-23,266
MS200095-0022-VISION,DA,MS200095-0022-VISION-CHN_SITE01-0015,797,REMAMT,Remaining Amount,0.1,TABLET,0.1,0.1,TABLET,266.0,,TREATMENT,2025-01-23,266
MS200095-0022-VISION,DA,MS200095-0022-VISION-CHN_SITE01-0015,798,RETAMT,Returned Amount,0.1,TABLET,0.1,0.1,TABLET,266.0,,TREATMENT,2025-01-23,266
MS200095-0022-VISION,DA,MS200095-0022-VISION-CHN_SITE01-0015,799,DISPAMT,Dispensed Amount,1,TABLET,1,1.0,TABLET,267.0,,TREATMENT,2025-01-24,267
MS200095-0022-VISION,DA,MS200095-0022-VISION-CHN_SITE01-0015,800,REMAMT,Remaining Amount,0.1,TABLET,0.1,0.1,TABLET,267.0,,TREATMENT,2025-01-24,267
MS200095-0022-VISION,DA,MS200095-0022-VISION-CHN_SITE01-0015,801,RETAMT,Returned Amount,0.1,TABLET,0.1,0.1,TABLET,267.0,,TREATMENT,2025-01-24,267
MS200095-0022-VISION,DA,MS200095-0022-VISION-CHN_SITE01-0015,802,DISPAMT,Dispensed Amount,1,TABLET,1,1.0,TABLET,268.0,,TREATMENT,2025-01-25,268
MS200095-0022-VISION,DA,MS200095-0022-VISION-CHN_SITE01-0015,803,REMAMT,Remaining Amount,0.1,TABLET,0.1,0.1,TABLET,268.0,,TREATMENT,2025-01-25,268
MS200095-0022-VISION,DA,MS200095-0022-VISION-CHN_SITE01-0015,804,RETAMT,Returned Amount,0.1,TABLET,0.1,0.1,TABLET,268.0,,TREATMENT,2025-01-25,268
MS200095-0022-VISION,DA,MS200095-0022-VISION-CHN_SITE01-0015,805,DISPAMT,Dispensed Amount,1,TABLET,1,1.0,TABLET,269.0,,TREATMENT,2025-01-26,269
MS200095-0022-VISION,DA,MS200095-0022-VISION-CHN_SITE01-0015,806,REMAMT,Remaining Amount,0.1,TABLET,0.1,0.1,TABLET,269.0,,TREATMENT,2025-01-26,269
MS200095-0022-VISION,DA,MS200095-0022-VISION-CHN_SITE01-0015,807,RETAMT,Returned Amount,0.1,TABLET,0.1,0.1,TABLET,269.0,,TREATMENT,2025-01-26,269
MS200095-0022-VISION,DA,MS200095-0022-VISION-CHN_SITE01-0015,808,DISPAMT,Dispensed Amount,1,TABLET,1,1.0,TABLET,270.0,,TREATMENT,2025-01-27,270
MS200095-0022-VISION,DA,MS200095-0022-VISION-CHN_SITE01-0015,809,REMAMT,Remaining Amount,0.2,TABLET,0.2,0.2,TABLET,270.0,,TREATMENT,2025-01-27,270
MS200095-0022-VISION,DA,MS200095-0022-VISION-CHN_SITE01-0015,810,RETAMT,Returned Amount,0.2,TABLET,0.2,0.2,TABLET,270.0,,TREATMENT,2025-01-27,270
MS200095-0022-VISION,DA,MS200095-0022-VISION-CHN_SITE01-0015,811,DISPAMT,Dispensed Amount,1,TABLET,1,1.0,TABLET,271.0,,TREATMENT,2025-01-28,271
MS200095-0022-VISION,DA,MS200095-0022-VISION-CHN_SITE01-0015,812,REMAMT,Remaining Amount,0.0,TABLET,0.0,0.0,TABLET,271.0,,TREATMENT,2025-01-28,271
MS200095-0022-VISION,DA,MS200095-0022-VISION-CHN_SITE01-0015,813,RETAMT,Returned Amount,0.0,TABLET,0.0,0.0,TABLET,271.0,,TREATMENT,2025-01-28,271
MS200095-0022-VISION,DA,MS200095-0022-VISION-CHN_SITE01-0015,814,DISPAMT,Dispensed Amount,1,TABLET,1,1.0,TABLET,272.0,,TREATMENT,2025-01-29,272
MS200095-0022-VISION,DA,MS200095-0022-VISION-CHN_SITE01-0015,815,REMAMT,Remaining Amount,0.1,TABLET,0.1,0.1,TABLET,272.0,,TREATMENT,2025-01-29,272
MS200095-0022-VISION,DA,MS200095-0022-VISION-CHN_SITE01-0015,816,RETAMT,Returned Amount,0.1,TABLET,0.1,0.1,TABLET,272.0,,TREATMENT,2025-01-29,272
MS200095-0022-VISION,DA,MS200095-0022-VISION-CHN_SITE01-0015,817,DISPAMT,Dispensed Amount,1,TABLET,1,1.0,TABLET,273.0,,TREATMENT,2025-01-30,273
MS200095-0022-VISION,DA,MS200095-0022-VISION-CHN_SITE01-0015,818,REMAMT,Remaining Amount,0.0,TABLET,0.0,0.0,TABLET,273.0,,TREATMENT,2025-01-30,273
MS200095-0022-VISION,DA,MS200095-0022-VISION-CHN_SITE01-0015,819,RETAMT,Returned Amount,0.0,TABLET,0.0,0.0,TABLET,273.0,,TREATMENT,2025-01-30,273
MS200095-0022-VISION,DA,MS200095-0022-VISION-CHN_SITE01-0015,820,DISPAMT,Dispensed Amount,1,TABLET,1,1.0,TABLET,274.0,,TREATMENT,2025-01-31,274
MS200095-0022-VISION,DA,MS200095-0022-VISION-CHN_SITE01-0015,821,REMAMT,Remaining Amount,0.1,TABLET,0.1,0.1,TABLET,274.0,,TREATMENT,2025-01-31,274
MS200095-0022-VISION,DA,MS200095-0022-VISION-CHN_SITE01-0015,822,RETAMT,Returned Amount,0.1,TABLET,0.1,0.1,TABLET,274.0,,TREATMENT,2025-01-31,274
MS200095-0022-VISION,DA,MS200095-0022-VISION-CHN_SITE01-0015,823,DISPAMT,Dispensed Amount,1,TABLET,1,1.0,TABLET,275.0,,TREATMENT,2025-02-01,275
MS200095-0022-VISION,DA,MS200095-0022-VISION-CHN_SITE01-0015,824,REMAMT,Remaining Amount,0.1,TABLET,0.1,0.1,TABLET,275.0,,TREATMENT,2025-02-01,275
MS200095-0022-VISION,DA,MS200095-0022-VISION-CHN_SITE01-0015,825,RETAMT,Returned Amount,0.1,TABLET,0.1,0.1,TABLET,275.0,,TREATMENT,2025-02-01,275
MS200095-0022-VISION,DA,MS200095-0022-VISION-CHN_SITE01-0015,826,DISPAMT,Dispensed Amount,1,TABLET,1,1.0,TABLET,276.0,,TREATMENT,2025-02-02,276
MS200095-0022-VISION,DA,MS200095-0022-VISION-CHN_SITE01-0015,827,REMAMT,Remaining Amount,0.1,TABLET,0.1,0.1,TABLET,276.0,,TREATMENT,2025-02-02,276
MS200095-0022-VISION,DA,MS200095-0022-VISION-CHN_SITE01-0015,828,RETAMT,Returned Amount,0.1,TABLET,0.1,0.1,TABLET,276.0,,TREATMENT,2025-02-02,276
MS200095-0022-VISION,DA,MS200095-0022-VISION-CHN_SITE01-0015,829,DISPAMT,Dispensed Amount,1,TABLET,1,1.0,TABLET,277.0,,TREATMENT,2025-02-03,277
MS200095-0022-VISION,DA,MS200095-0022-VISION-CHN_SITE01-0015,830,REMAMT,Remaining Amount,1,TABLET,1,1.0,TABLET,277.0,,TREATMENT,2025-02-03,277
MS200095-0022-VISION,DA,MS200095-0022-VISION-CHN_SITE01-0015,831,RETAMT,Returned Amount,1,TABLET,1,1.0,TABLET,277.0,,TREATMENT,2025-02-03,277
MS200095-0022-VISION,DA,MS200095-0022-VISION-CHN_SITE01-0015,832,DISPAMT,Dispensed Amount,1,TABLET,1,1.0,TABLET,278.0,,TREATMENT,2025-02-04,278
MS200095-0022-VISION,DA,MS200095-0022-VISION-CHN_SITE01-0015,833,REMAMT,Remaining Amount,0.1,TABLET,0.1,0.1,TABLET,278.0,,TREATMENT,2025-02-04,278
MS200095-0022-VISION,DA,MS200095-0022-VISION-CHN_SITE01-0015,834,RETAMT,Returned Amount,0.1,TABLET,0.1,0.1,TABLET,278.0,,TREATMENT,2025-02-04,278
MS200095-0022-VISION,DA,MS200095-0022-VISION-CHN_SITE01-0015,835,DISPAMT,Dispensed Amount,1,TABLET,1,1.0,TABLET,279.0,,TREATMENT,2025-02-05,279
MS200095-0022-VISION,DA,MS200095-0022-VISION-CHN_SITE01-0015,836,REMAMT,Remaining Amount,0.2,TABLET,0.2,0.2,TABLET,279.0,,TREATMENT,2025-02-05,279
MS200095-0022-VISION,DA,MS200095-0022-VISION-CHN_SITE01-0015,837,RETAMT,Returned Amount,0.2,TABLET,0.2,0.2,TABLET,279.0,,TREATMENT,2025-02-05,279
MS200095-0022-VISION,DA,MS200095-0022-VISION-CHN_SITE01-0015,838,DISPAMT,Dispensed Amount,1,TABLET,1,1.0,TABLET,280.0,,TREATMENT,2025-02-06,280
MS200095-0022-VISION,DA,MS200095-0022-VISION-CHN_SITE01-0015,839,REMAMT,Remaining Amount,0.0,TABLET,0.0,0.0,TABLET,280.0,,TREATMENT,2025-02-06,280
MS200095-0022-VISION,DA,MS200095-0022-VISION-CHN_SITE01-0015,840,RETAMT,Returned Amount,0.0,TABLET,0.0,0.0,TABLET,280.0,,TREATMENT,2025-02-06,280
MS200095-0022-VISION,DA,MS200095-0022-VISION-CHN_SITE01-0015,841,DISPAMT,Dispensed Amount,1,TABLET,1,1.0,TABLET,281.0,,TREATMENT,2025-02-07,281
MS200095-0022-VISION,DA,MS200095-0022-VISION-CHN_SITE01-0015,842,REMAMT,Remaining Amount,0.1,TABLET,0.1,0.1,TABLET,281.0,,TREATMENT,2025-02-07,281
MS200095-0022-VISION,DA,MS200095-0022-VISION-CHN_SITE01-0015,843,RETAMT,Returned Amount,0.1,TABLET,0.1,0.1,TABLET,281.0,,TREATMENT,2025-02-07,281
MS200095-0022-VISION,DA,MS200095-0022-VISION-CHN_SITE01-0015,844,DISPAMT,Dispensed Amount,1,TABLET,1,1.0,TABLET,282.0,,TREATMENT,2025-02-08,282
MS200095-0022-VISION,DA,MS200095-0022-VISION-CHN_SITE01-0015,845,REMAMT,Remaining Amount,0.2,TABLET,0.2,0.2,TABLET,282.0,,TREATMENT,2025-02-08,282
MS200095-0022-VISION,DA,MS200095-0022-VISION-CHN_SITE01-0015,846,RETAMT,Returned Amount,0.2,TABLET,0.2,0.2,TABLET,282.0,,TREATMENT,2025-02-08,282
MS200095-0022-VISION,DA,MS200095-0022-VISION-CHN_SITE01-0015,847,DISPAMT,Dispensed Amount,1,TABLET,1,1.0,TABLET,283.0,,TREATMENT,2025-02-09,283
MS200095-0022-VISION,DA,MS200095-0022-VISION-CHN_SITE01-0015,848,REMAMT,Remaining Amount,0.1,TABLET,0.1,0.1,TABLET,283.0,,TREATMENT,2025-02-09,283
MS200095-0022-VISION,DA,MS200095-0022-VISION-CHN_SITE01-0015,849,RETAMT,Returned Amount,0.1,TABLET,0.1,0.1,TABLET,283.0,,TREATMENT,2025-02-09,283
MS200095-0022-VISION,DA,MS200095-0022-VISION-CHN_SITE01-0015,850,DISPAMT,Dispensed Amount,1,TABLET,1,1.0,TABLET,284.0,,TREATMENT,2025-02-10,284
MS200095-0022-VISION,DA,MS200095-0022-VISION-CHN_SITE01-0015,851,REMAMT,Remaining Amount,0.1,TABLET,0.1,0.1,TABLET,284.0,,TREATMENT,2025-02-10,284
MS200095-0022-VISION,DA,MS200095-0022-VISION-CHN_SITE01-0015,852,RETAMT,Returned Amount,0.1,TABLET,0.1,0.1,TABLET,284.0,,TREATMENT,2025-02-10,284
MS200095-0022-VISION,DA,MS200095-0022-VISION-CHN_SITE01-0015,853,DISPAMT,Dispensed Amount,1,TABLET,1,1.0,TABLET,285.0,,TREATMENT,2025-02-11,285
MS200095-0022-VISION,DA,MS200095-0022-VISION-CHN_SITE01-0015,854,REMAMT,Remaining Amount,0.1,TABLET,0.1,0.1,TABLET,285.0,,TREATMENT,2025-02-11,285
MS200095-0022-VISION,DA,MS200095-0022-VISION-CHN_SITE01-0015,855,RETAMT,Returned Amount,0.1,TABLET,0.1,0.1,TABLET,285.0,,TREATMENT,2025-02-11,285
MS200095-0022-VISION,DA,MS200095-0022-VISION-CHN_SITE01-0015,856,DISPAMT,Dispensed Amount,1,TABLET,1,1.0,TABLET,286.0,,TREATMENT,2025-02-12,286
MS200095-0022-VISION,DA,MS200095-0022-VISION-CHN_SITE01-0015,857,REMAMT,Remaining Amount,1,TABLET,1,1.0,TABLET,286.0,,TREATMENT,2025-02-12,286
MS200095-0022-VISION,DA,MS200095-0022-VISION-CHN_SITE01-0015,858,RETAMT,Returned Amount,1,TABLET,1,1.0,TABLET,286.0,,TREATMENT,2025-02-12,286
MS200095-0022-VISION,DA,MS200095-0022-VISION-CHN_SITE01-0015,859,DISPAMT,Dispensed Amount,1,TABLET,1,1.0,TABLET,287.0,,TREATMENT,2025-02-13,287
MS200095-0022-VISION,DA,MS200095-0022-VISION-CHN_SITE01-0015,860,REMAMT,Remaining Amount,0.2,TABLET,0.2,0.2,TABLET,287.0,,TREATMENT,2025-02-13,287
MS200095-0022-VISION,DA,MS200095-0022-VISION-CHN_SITE01-0015,861,RETAMT,Returned Amount,0.2,TABLET,0.2,0.2,TABLET,287.0,,TREATMENT,2025-02-13,287
MS200095-0022-VISION,DA,MS200095-0022-VISION-CHN_SITE01-0015,862,DISPAMT,Dispensed Amount,1,TABLET,1,1.0,TABLET,288.0,,TREATMENT,2025-02-14,288
MS200095-0022-VISION,DA,MS200095-0022-VISION-CHN_SITE01-0015,863,REMAMT,Remaining Amount,0.1,TABLET,0.1,0.1,TABLET,288.0,,TREATMENT,2025-02-14,288
MS200095-0022-VISION,DA,MS200095-0022-VISION-CHN_SITE01-0015,864,RETAMT,Returned Amount,0.1,TABLET,0.1,0.1,TABLET,288.0,,TREATMENT,2025-02-14,288
MS200095-0022-VISION,DA,MS200095-0022-VISION-CHN_SITE01-0015,865,DISPAMT,Dispensed Amount,1,TABLET,1,1.0,TABLET,289.0,,TREATMENT,2025-02-15,289
MS200095-0022-VISION,DA,MS200095-0022-VISION-CHN_SITE01-0015,866,REMAMT,Remaining Amount,0.1,TABLET,0.1,0.1,TABLET,289.0,,TREATMENT,2025-02-15,289
MS200095-0022-VISION,DA,MS200095-0022-VISION-CHN_SITE01-0015,867,RETAMT,Returned Amount,0.1,TABLET,0.1,0.1,TABLET,289.0,,TREATMENT,2025-02-15,289
MS200095-0022-VISION,DA,MS200095-0022-VISION-CHN_SITE01-0015,868,DISPAMT,Dispensed Amount,1,TABLET,1,1.0,TABLET,290.0,,TREATMENT,2025-02-16,290
MS200095-0022-VISION,DA,MS200095-0022-VISION-CHN_SITE01-0015,869,REMAMT,Remaining Amount,0.0,TABLET,0.0,0.0,TABLET,290.0,,TREATMENT,2025-02-16,290
MS200095-0022-VISION,DA,MS200095-0022-VISION-CHN_SITE01-0015,870,RETAMT,Returned Amount,0.0,TABLET,0.0,0.0,TABLET,290.0,,TREATMENT,2025-02-16,290
MS200095-0022-VISION,DA,MS200095-0022-VISION-CHN_SITE01-0015,871,DISPAMT,Dispensed Amount,1,TABLET,1,1.0,TABLET,291.0,,TREATMENT,2025-02-17,291
MS200095-0022-VISION,DA,MS200095-0022-VISION-CHN_SITE01-0015,872,REMAMT,Remaining Amount,0.1,TABLET,0.1,0.1,TABLET,291.0,,TREATMENT,2025-02-17,291
MS200095-0022-VISION,DA,MS200095-0022-VISION-CHN_SITE01-0015,873,RETAMT,Returned Amount,0.1,TABLET,0.1,0.1,TABLET,291.0,,TREATMENT,2025-02-17,291
MS200095-0022-VISION,DA,MS200095-0022-VISION-CHN_SITE01-0015,874,DISPAMT,Dispensed Amount,1,TABLET,1,1.0,TABLET,292.0,,TREATMENT,2025-02-18,292
MS200095-0022-VISION,DA,MS200095-0022-VISION-CHN_SITE01-0015,875,REMAMT,Remaining Amount,0.1,TABLET,0.1,0.1,TABLET,292.0,,TREATMENT,2025-02-18,292
MS200095-0022-VISION,DA,MS200095-0022-VISION-CHN_SITE01-0015,876,RETAMT,Returned Amount,0.1,TABLET,0.1,0.1,TABLET,292.0,,TREATMENT,2025-02-18,292
MS200095-0022-VISION,DA,MS200095-0022-VISION-CHN_SITE01-0015,877,DISPAMT,Dispensed Amount,1,TABLET,1,1.0,TABLET,293.0,,TREATMENT,2025-02-19,293
MS200095-0022-VISION,DA,MS200095-0022-VISION-CHN_SITE01-0015,878,REMAMT,Remaining Amount,0.1,TABLET,0.1,0.1,TABLET,293.0,,TREATMENT,2025-02-19,293
MS200095-0022-VISION,DA,MS200095-0022-VISION-CHN_SITE01-0015,879,RETAMT,Returned Amount,0.1,TABLET,0.1,0.1,TABLET,293.0,,TREATMENT,2025-02-19,293
MS200095-0022-VISION,DA,MS200095-0022-VISION-CHN_SITE01-0015,880,DISPAMT,Dispensed Amount,1,TABLET,1,1.0,TABLET,294.0,,TREATMENT,2025-02-20,294
MS200095-0022-VISION,DA,MS200095-0022-VISION-CHN_SITE01-0015,881,REMAMT,Remaining Amount,0.0,TABLET,0.0,0.0,TABLET,294.0,,TREATMENT,2025-02-20,294
MS200095-0022-VISION,DA,MS200095-0022-VISION-CHN_SITE01-0015,882,RETAMT,Returned Amount,0.0,TABLET,0.0,0.0,TABLET,294.0,,TREATMENT,2025-02-20,294
MS200095-0022-VISION,DA,MS200095-0022-VISION-CHN_SITE01-0015,883,DISPAMT,Dispensed Amount,1,TABLET,1,1.0,TABLET,295.0,,TREATMENT,2025-02-21,295
MS200095-0022-VISION,DA,MS200095-0022-VISION-CHN_SITE01-0015,884,REMAMT,Remaining Amount,0.1,TABLET,0.1,0.1,TABLET,295.0,,TREATMENT,2025-02-21,295
MS200095-0022-VISION,DA,MS200095-0022-VISION-CHN_SITE01-0015,885,RETAMT,Returned Amount,0.1,TABLET,0.1,0.1,TABLET,295.0,,TREATMENT,2025-02-21,295
MS200095-0022-VISION,DA,MS200095-0022-VISION-CHN_SITE01-0015,886,DISPAMT,Dispensed Amount,1,TABLET,1,1.0,TABLET,296.0,,TREATMENT,2025-02-22,296
MS200095-0022-VISION,DA,MS200095-0022-VISION-CHN_SITE01-0015,887,REMAMT,Remaining Amount,0.1,TABLET,0.1,0.1,TABLET,296.0,,TREATMENT,2025-02-22,296
MS200095-0022-VISION,DA,MS200095-0022-VISION-CHN_SITE01-0015,888,RETAMT,Returned Amount,0.1,TABLET,0.1,0.1,TABLET,296.0,,TREATMENT,2025-02-22,296
MS200095-0022-VISION,DA,MS200095-0022-VISION-CHN_SITE01-0015,889,DISPAMT,Dispensed Amount,1,TABLET,1,1.0,TABLET,297.0,,TREATMENT,2025-02-23,297
MS200095-0022-VISION,DA,MS200095-0022-VISION-CHN_SITE01-0015,890,REMAMT,Remaining Amount,0.2,TABLET,0.2,0.2,TABLET,297.0,,TREATMENT,2025-02-23,297
MS200095-0022-VISION,DA,MS200095-0022-VISION-CHN_SITE01-0015,891,RETAMT,Returned Amount,0.2,TABLET,0.2,0.2,TABLET,297.0,,TREATMENT,2025-02-23,297
MS200095-0022-VISION,DA,MS200095-0022-VISION-CHN_SITE01-0015,892,DISPAMT,Dispensed Amount,1,TABLET,1,1.0,TABLET,298.0,,TREATMENT,2025-02-24,298
MS200095-0022-VISION,DA,MS200095-0022-VISION-CHN_SITE01-0015,893,REMAMT,Remaining Amount,0.1,TABLET,0.1,0.1,TABLET,298.0,,TREATMENT,2025-02-24,298
MS200095-0022-VISION,DA,MS200095-0022-VISION-CHN_SITE01-0015,894,RETAMT,Returned Amount,0.1,TABLET,0.1,0.1,TABLET,298.0,,TREATMENT,2025-02-24,298
MS200095-0022-VISION,DA,MS200095-0022-VISION-CHN_SITE01-0015,895,DISPAMT,Dispensed Amount,1,TABLET,1,1.0,TABLET,299.0,,TREATMENT,2025-02-25,299
MS200095-0022-VISION,DA,MS200095-0022-VISION-CHN_SITE01-0015,896,REMAMT,Remaining Amount,1,TABLET,1,1.0,TABLET,299.0,,TREATMENT,2025-02-25,299
MS200095-0022-VISION,DA,MS200095-0022-VISION-CHN_SITE01-0015,897,RETAMT,Returned Amount,1,TABLET,1,1.0,TABLET,299.0,,TREATMENT,2025-02-25,299
MS200095-0022-VISION,DA,MS200095-0022-VISION-CHN_SITE01-0015,898,DISPAMT,Dispensed Amount,1,TABLET,1,1.0,TABLET,300.0,,TREATMENT,2025-02-26,300
MS200095-0022-VISION,DA,MS200095-0022-VISION-CHN_SITE01-0015,899,REMAMT,Remaining Amount,0.1,TABLET,0.1,0.1,TABLET,300.0,,TREATMENT,2025-02-26,300
MS200095-0022-VISION,DA,MS200095-0022-VISION-CHN_SITE01-0015,900,RETAMT,Returned Amount,0.1,TABLET,0.1,0.1,TABLET,300.0,,TREATMENT,2025-02-26,300
MS200095-0022-VISION,DA,MS200095-0022-VISION-CHN_SITE01-0015,901,DISPAMT,Dispensed Amount,1,TABLET,1,1.0,TABLET,301.0,,TREATMENT,2025-02-27,301
MS200095-0022-VISION,DA,MS200095-0022-VISION-CHN_SITE01-0015,902,REMAMT,Remaining Amount,0.1,TABLET,0.1,0.1,TABLET,301.0,,TREATMENT,2025-02-27,301
MS200095-0022-VISION,DA,MS200095-0022-VISION-CHN_SITE01-0015,903,RETAMT,Returned Amount,0.1,TABLET,0.1,0.1,TABLET,301.0,,TREATMENT,2025-02-27,301
MS200095-0022-VISION,DA,MS200095-0022-VISION-CHN_SITE01-0015,904,DISPAMT,Dispensed Amount,1,TABLET,1,1.0,TABLET,302.0,,TREATMENT,2025-02-28,302
MS200095-0022-VISION,DA,MS200095-0022-VISION-CHN_SITE01-0015,905,REMAMT,Remaining Amount,0.0,TABLET,0.0,0.0,TABLET,302.0,,TREATMENT,2025-02-28,302
MS200095-0022-VISION,DA,MS200095-0022-VISION-CHN_SITE01-0015,906,RETAMT,Returned Amount,0.0,TABLET,0.0,0.0,TABLET,302.0,,TREATMENT,2025-02-28,302
MS200095-0022-VISION,DA,MS200095-0022-VISION-CHN_SITE01-0015,907,DISPAMT,Dispensed Amount,1,TABLET,1,1.0,TABLET,303.0,,TREATMENT,2025-03-01,303
MS200095-0022-VISION,DA,MS200095-0022-VISION-CHN_SITE01-0015,908,REMAMT,Remaining Amount,1,TABLET,1,1.0,TABLET,303.0,,TREATMENT,2025-03-01,303
MS200095-0022-VISION,DA,MS200095-0022-VISION-CHN_SITE01-0015,909,RETAMT,Returned Amount,1,TABLET,1,1.0,TABLET,303.0,,TREATMENT,2025-03-01,303
MS200095-0022-VISION,DA,MS200095-0022-VISION-CHN_SITE01-0015,910,DISPAMT,Dispensed Amount,1,TABLET,1,1.0,TABLET,304.0,,TREATMENT,2025-03-02,304
MS200095-0022-VISION,DA,MS200095-0022-VISION-CHN_SITE01-0015,911,REMAMT,Remaining Amount,0.1,TABLET,0.1,0.1,TABLET,304.0,,TREATMENT,2025-03-02,304
MS200095-0022-VISION,DA,MS200095-0022-VISION-CHN_SITE01-0015,912,RETAMT,Returned Amount,0.1,TABLET,0.1,0.1,TABLET,304.0,,TREATMENT,2025-03-02,304
MS200095-0022-VISION,DA,MS200095-0022-VISION-CHN_SITE01-0015,913,DISPAMT,Dispensed Amount,1,TABLET,1,1.0,TABLET,305.0,,TREATMENT,2025-03-03,305
MS200095-0022-VISION,DA,MS200095-0022-VISION-CHN_SITE01-0015,914,REMAMT,Remaining Amount,0.0,TABLET,0.0,0.0,TABLET,305.0,,TREATMENT,2025-03-03,305
MS200095-0022-VISION,DA,MS200095-0022-VISION-CHN_SITE01-0015,915,RETAMT,Returned Amount,0.0,TABLET,0.0,0.0,TABLET,305.0,,TREATMENT,2025-03-03,305
MS200095-0022-VISION,DA,MS200095-0022-VISION-CHN_SITE01-0015,916,DISPAMT,Dispensed Amount,1,TABLET,1,1.0,TABLET,306.0,,TREATMENT,2025-03-04,306
MS200095-0022-VISION,DA,MS200095-0022-VISION-CHN_SITE01-0015,917,REMAMT,Remaining Amount,0.1,TABLET,0.1,0.1,TABLET,306.0,,TREATMENT,2025-03-04,306
MS200095-0022-VISION,DA,MS200095-0022-VISION-CHN_SITE01-0015,918,RETAMT,Returned Amount,0.1,TABLET,0.1,0.1,TABLET,306.0,,TREATMENT,2025-03-04,306
MS200095-0022-VISION,DA,MS200095-0022-VISION-CHN_SITE01-0015,919,DISPAMT,Dispensed Amount,1,TABLET,1,1.0,TABLET,307.0,,TREATMENT,2025-03-05,307
MS200095-0022-VISION,DA,MS200095-0022-VISION-CHN_SITE01-0015,920,REMAMT,Remaining Amount,0.2,TABLET,0.2,0.2,TABLET,307.0,,TREATMENT,2025-03-05,307
MS200095-0022-VISION,DA,MS200095-0022-VISION-CHN_SITE01-0015,921,RETAMT,Returned Amount,0.2,TABLET,0.2,0.2,TABLET,307.0,,TREATMENT,2025-03-05,307
MS200095-0022-VISION,DA,MS200095-0022-VISION-CHN_SITE01-0015,922,DISPAMT,Dispensed Amount,1,TABLET,1,1.0,TABLET,308.0,,TREATMENT,2025-03-06,308
MS200095-0022-VISION,DA,MS200095-0022-VISION-CHN_SITE01-0015,923,REMAMT,Remaining Amount,0.1,TABLET,0.1,0.1,TABLET,308.0,,TREATMENT,2025-03-06,308
MS200095-0022-VISION,DA,MS200095-0022-VISION-CHN_SITE01-0015,924,RETAMT,Returned Amount,0.1,TABLET,0.1,0.1,TABLET,308.0,,TREATMENT,2025-03-06,308
MS200095-0022-VISION,DA,MS200095-0022-VISION-CHN_SITE01-0015,925,DISPAMT,Dispensed Amount,1,TABLET,1,1.0,TABLET,309.0,,TREATMENT,2025-03-07,309
MS200095-0022-VISION,DA,MS200095-0022-VISION-CHN_SITE01-0015,926,REMAMT,Remaining Amount,0.1,TABLET,0.1,0.1,TABLET,309.0,,TREATMENT,2025-03-07,309
MS200095-0022-VISION,DA,MS200095-0022-VISION-CHN_SITE01-0015,927,RETAMT,Returned Amount,0.1,TABLET,0.1,0.1,TABLET,309.0,,TREATMENT,2025-03-07,309
MS200095-0022-VISION,DA,MS200095-0022-VISION-CHN_SITE01-0015,928,DISPAMT,Dispensed Amount,1,TABLET,1,1.0,TABLET,310.0,,TREATMENT,2025-03-08,310
MS200095-0022-VISION,DA,MS200095-0022-VISION-CHN_SITE01-0015,929,REMAMT,Remaining Amount,0.1,TABLET,0.1,0.1,TABLET,310.0,,TREATMENT,2025-03-08,310
MS200095-0022-VISION,DA,MS200095-0022-VISION-CHN_SITE01-0015,930,RETAMT,Returned Amount,0.1,TABLET,0.1,0.1,TABLET,310.0,,TREATMENT,2025-03-08,310
MS200095-0022-VISION,DA,MS200095-0022-VISION-CHN_SITE01-0015,931,DISPAMT,Dispensed Amount,1,TABLET,1,1.0,TABLET,311.0,,TREATMENT,2025-03-09,311
MS200095-0022-VISION,DA,MS200095-0022-VISION-CHN_SITE01-0015,932,REMAMT,Remaining Amount,0.1,TABLET,0.1,0.1,TABLET,311.0,,TREATMENT,2025-03-09,311
MS200095-0022-VISION,DA,MS200095-0022-VISION-CHN_SITE01-0015,933,RETAMT,Returned Amount,0.1,TABLET,0.1,0.1,TABLET,311.0,,TREATMENT,2025-03-09,311
MS200095-0022-VISION,DA,MS200095-0022-VISION-CHN_SITE01-0015,934,DISPAMT,Dispensed Amount,1,TABLET,1,1.0,TABLET,312.0,,TREATMENT,2025-03-10,312
MS200095-0022-VISION,DA,MS200095-0022-VISION-CHN_SITE01-0015,935,REMAMT,Remaining Amount,0.0,TABLET,0.0,0.0,TABLET,312.0,,TREATMENT,2025-03-10,312
MS200095-0022-VISION,DA,MS200095-0022-VISION-CHN_SITE01-0015,936,RETAMT,Returned Amount,0.0,TABLET,0.0,0.0,TABLET,312.0,,TREATMENT,2025-03-10,312
MS200095-0022-VISION,DA,MS200095-0022-VISION-CHN_SITE01-0015,937,DISPAMT,Dispensed Amount,1,TABLET,1,1.0,TABLET,313.0,,TREATMENT,2025-03-11,313
MS200095-0022-VISION,DA,MS200095-0022-VISION-CHN_SITE01-0015,938,REMAMT,Remaining Amount,0.1,TABLET,0.1,0.1,TABLET,313.0,,TREATMENT,2025-03-11,313
MS200095-0022-VISION,DA,MS200095-0022-VISION-CHN_SITE01-0015,939,RETAMT,Returned Amount,0.1,TABLET,0.1,0.1,TABLET,313.0,,TREATMENT,2025-03-11,313
MS200095-0022-VISION,DA,MS200095-0022-VISION-CHN_SITE01-0015,940,DISPAMT,Dispensed Amount,1,TABLET,1,1.0,TABLET,314.0,,TREATMENT,2025-03-12,314
MS200095-0022-VISION,DA,MS200095-0022-VISION-CHN_SITE01-0015,941,REMAMT,Remaining Amount,0.1,TABLET,0.1,0.1,TABLET,314.0,,TREATMENT,2025-03-12,314
MS200095-0022-VISION,DA,MS200095-0022-VISION-CHN_SITE01-0015,942,RETAMT,Returned Amount,0.1,TABLET,0.1,0.1,TABLET,314.0,,TREATMENT,2025-03-12,314
MS200095-0022-VISION,DA,MS200095-0022-VISION-CHN_SITE01-0015,943,DISPAMT,Dispensed Amount,1,TABLET,1,1.0,TABLET,315.0,,TREATMENT,2025-03-13,315
MS200095-0022-VISION,DA,MS200095-0022-VISION-CHN_SITE01-0015,944,REMAMT,Remaining Amount,0.0,TABLET,0.0,0.0,TABLET,315.0,,TREATMENT,2025-03-13,315
MS200095-0022-VISION,DA,MS200095-0022-VISION-CHN_SITE01-0015,945,RETAMT,Returned Amount,0.0,TABLET,0.0,0.0,TABLET,315.0,,TREATMENT,2025-03-13,315
MS200095-0022-VISION,DA,MS200095-0022-VISION-CHN_SITE01-0015,946,DISPAMT,Dispensed Amount,1,TABLET,1,1.0,TABLET,316.0,,TREATMENT,2025-03-14,316
MS200095-0022-VISION,DA,MS200095-0022-VISION-CHN_SITE01-0015,947,REMAMT,Remaining Amount,0.0,TABLET,0.0,0.0,TABLET,316.0,,TREATMENT,2025-03-14,316
MS200095-0022-VISION,DA,MS200095-0022-VISION-CHN_SITE01-0015,948,RETAMT,Returned Amount,0.0,TABLET,0.0,0.0,TABLET,316.0,,TREATMENT,2025-03-14,316
MS200095-0022-VISION,DA,MS200095-0022-VISION-CHN_SITE01-0015,949,DISPAMT,Dispensed Amount,1,TABLET,1,1.0,TABLET,317.0,,TREATMENT,2025-03-15,317
MS200095-0022-VISION,DA,MS200095-0022-VISION-CHN_SITE01-0015,950,REMAMT,Remaining Amount,0.0,TABLET,0.0,0.0,TABLET,317.0,,TREATMENT,2025-03-15,317
MS200095-0022-VISION,DA,MS200095-0022-VISION-CHN_SITE01-0015,951,RETAMT,Returned Amount,0.0,TABLET,0.0,0.0,TABLET,317.0,,TREATMENT,2025-03-15,317
MS200095-0022-VISION,DA,MS200095-0022-VISION-CHN_SITE01-0015,952,DISPAMT,Dispensed Amount,1,TABLET,1,1.0,TABLET,318.0,,TREATMENT,2025-03-16,318
MS200095-0022-VISION,DA,MS200095-0022-VISION-CHN_SITE01-0015,953,REMAMT,Remaining Amount,0.0,TABLET,0.0,0.0,TABLET,318.0,,TREATMENT,2025-03-16,318
MS200095-0022-VISION,DA,MS200095-0022-VISION-CHN_SITE01-0015,954,RETAMT,Returned Amount,0.0,TABLET,0.0,0.0,TABLET,318.0,,TREATMENT,2025-03-16,318
MS200095-0022-VISION,DA,MS200095-0022-VISION-CHN_SITE01-0015,955,DISPAMT,Dispensed Amount,1,TABLET,1,1.0,TABLET,319.0,,TREATMENT,2025-03-17,319
MS200095-0022-VISION,DA,MS200095-0022-VISION-CHN_SITE01-0015,956,REMAMT,Remaining Amount,0.0,TABLET,0.0,0.0,TABLET,319.0,,TREATMENT,2025-03-17,319
MS200095-0022-VISION,DA,MS200095-0022-VISION-CHN_SITE01-0015,957,RETAMT,Returned Amount,0.0,TABLET,0.0,0.0,TABLET,319.0,,TREATMENT,2025-03-17,319
MS200095-0022-VISION,DA,MS200095-0022-VISION-CHN_SITE01-0015,958,DISPAMT,Dispensed Amount,1,TABLET,1,1.0,TABLET,320.0,,TREATMENT,2025-03-18,320
MS200095-0022-VISION,DA,MS200095-0022-VISION-CHN_SITE01-0015,959,REMAMT,Remaining Amount,0.1,TABLET,0.1,0.1,TABLET,320.0,,TREATMENT,2025-03-18,320
MS200095-0022-VISION,DA,MS200095-0022-VISION-CHN_SITE01-0015,960,RETAMT,Returned Amount,0.1,TABLET,0.1,0.1,TABLET,320.0,,TREATMENT,2025-03-18,320
MS200095-0022-VISION,DA,MS200095-0022-VISION-CHN_SITE01-0015,961,DISPAMT,Dispensed Amount,1,TABLET,1,1.0,TABLET,321.0,,TREATMENT,2025-03-19,321
MS200095-0022-VISION,DA,MS200095-0022-VISION-CHN_SITE01-0015,962,REMAMT,Remaining Amount,0.1,TABLET,0.1,0.1,TABLET,321.0,,TREATMENT,2025-03-19,321
MS200095-0022-VISION,DA,MS200095-0022-VISION-CHN_SITE01-0015,963,RETAMT,Returned Amount,0.1,TABLET,0.1,0.1,TABLET,321.0,,TREATMENT,2025-03-19,321
MS200095-0022-VISION,DA,MS200095-0022-VISION-CHN_SITE01-0015,964,DISPAMT,Dispensed Amount,1,TABLET,1,1.0,TABLET,322.0,,TREATMENT,2025-03-20,322
MS200095-0022-VISION,DA,MS200095-0022-VISION-CHN_SITE01-0015,965,REMAMT,Remaining Amount,0.1,TABLET,0.1,0.1,TABLET,322.0,,TREATMENT,2025-03-20,322
MS200095-0022-VISION,DA,MS200095-0022-VISION-CHN_SITE01-0015,966,RETAMT,Returned Amount,0.1,TABLET,0.1,0.1,TABLET,322.0,,TREATMENT,2025-03-20,322
MS200095-0022-VISION,DA,MS200095-0022-VISION-CHN_SITE01-0015,967,DISPAMT,Dispensed Amount,1,TABLET,1,1.0,TABLET,323.0,,TREATMENT,2025-03-21,323
MS200095-0022-VISION,DA,MS200095-0022-VISION-CHN_SITE01-0015,968,REMAMT,Remaining Amount,0.1,TABLET,0.1,0.1,TABLET,323.0,,TREATMENT,2025-03-21,323
MS200095-0022-VISION,DA,MS200095-0022-VISION-CHN_SITE01-0015,969,RETAMT,Returned Amount,0.1,TABLET,0.1,0.1,TABLET,323.0,,TREATMENT,2025-03-21,323
MS200095-0022-VISION,DA,MS200095-0022-VISION-CHN_SITE01-0015,970,DISPAMT,Dispensed Amount,1,TABLET,1,1.0,TABLET,324.0,,TREATMENT,2025-03-22,324
MS200095-0022-VISION,DA,MS200095-0022-VISION-CHN_SITE01-0015,971,REMAMT,Remaining Amount,0.1,TABLET,0.1,0.1,TABLET,324.0,,TREATMENT,2025-03-22,324
MS200095-0022-VISION,DA,MS200095-0022-VISION-CHN_SITE01-0015,972,RETAMT,Returned Amount,0.1,TABLET,0.1,0.1,TABLET,324.0,,TREATMENT,2025-03-22,324
MS200095-0022-VISION,DA,MS200095-0022-VISION-CHN_SITE01-0015,973,DISPAMT,Dispensed Amount,1,TABLET,1,1.0,TABLET,325.0,,TREATMENT,2025-03-23,325
MS200095-0022-VISION,DA,MS200095-0022-VISION-CHN_SITE01-0015,974,REMAMT,Remaining Amount,0.1,TABLET,0.1,0.1,TABLET,325.0,,TREATMENT,2025-03-23,325
MS200095-0022-VISION,DA,MS200095-0022-VISION-CHN_SITE01-0015,975,RETAMT,Returned Amount,0.1,TABLET,0.1,0.1,TABLET,325.0,,TREATMENT,2025-03-23,325
MS200095-0022-VISION,DA,MS200095-0022-VISION-CHN_SITE01-0015,976,DISPAMT,Dispensed Amount,1,TABLET,1,1.0,TABLET,326.0,,TREATMENT,2025-03-24,326
MS200095-0022-VISION,DA,MS200095-0022-VISION-CHN_SITE01-0015,977,REMAMT,Remaining Amount,0.0,TABLET,0.0,0.0,TABLET,326.0,,TREATMENT,2025-03-24,326
MS200095-0022-VISION,DA,MS200095-0022-VISION-CHN_SITE01-0015,978,RETAMT,Returned Amount,0.0,TABLET,0.0,0.0,TABLET,326.0,,TREATMENT,2025-03-24,326
MS200095-0022-VISION,DA,MS200095-0022-VISION-CHN_SITE01-0015,979,DISPAMT,Dispensed Amount,1,TABLET,1,1.0,TABLET,327.0,,TREATMENT,2025-03-25,327
MS200095-0022-VISION,DA,MS200095-0022-VISION-CHN_SITE01-0015,980,REMAMT,Remaining Amount,0.1,TABLET,0.1,0.1,TABLET,327.0,,TREATMENT,2025-03-25,327
MS200095-0022-VISION,DA,MS200095-0022-VISION-CHN_SITE01-0015,981,RETAMT,Returned Amount,0.1,TABLET,0.1,0.1,TABLET,327.0,,TREATMENT,2025-03-25,327
MS200095-0022-VISION,DA,MS200095-0022-VISION-CHN_SITE01-0015,982,DISPAMT,Dispensed Amount,1,TABLET,1,1.0,TABLET,328.0,,TREATMENT,2025-03-26,328
MS200095-0022-VISION,DA,MS200095-0022-VISION-CHN_SITE01-0015,983,REMAMT,Remaining Amount,0.1,TABLET,0.1,0.1,TABLET,328.0,,TREATMENT,2025-03-26,328
MS200095-0022-VISION,DA,MS200095-0022-VISION-CHN_SITE01-0015,984,RETAMT,Returned Amount,0.1,TABLET,0.1,0.1,TABLET,328.0,,TREATMENT,2025-03-26,328
MS200095-0022-VISION,DA,MS200095-0022-VISION-CHN_SITE01-0015,985,DISPAMT,Dispensed Amount,1,TABLET,1,1.0,TABLET,329.0,,TREATMENT,2025-03-27,329
MS200095-0022-VISION,DA,MS200095-0022-VISION-CHN_SITE01-0015,986,REMAMT,Remaining Amount,0.0,TABLET,0.0,0.0,TABLET,329.0,,TREATMENT,2025-03-27,329
MS200095-0022-VISION,DA,MS200095-0022-VISION-CHN_SITE01-0015,987,RETAMT,Returned Amount,0.0,TABLET,0.0,0.0,TABLET,329.0,,TREATMENT,2025-03-27,329
MS200095-0022-VISION,DA,MS200095-0022-VISION-CHN_SITE01-0015,988,DISPAMT,Dispensed Amount,1,TABLET,1,1.0,TABLET,330.0,,TREATMENT,2025-03-28,330
MS200095-0022-VISION,DA,MS200095-0022-VISION-CHN_SITE01-0015,989,REMAMT,Remaining Amount,0.1,TABLET,0.1,0.1,TABLET,330.0,,TREATMENT,2025-03-28,330
MS200095-0022-VISION,DA,MS200095-0022-VISION-CHN_SITE01-0015,990,RETAMT,Returned Amount,0.1,TABLET,0.1,0.1,TABLET,330.0,,TREATMENT,2025-03-28,330
MS200095-0022-VISION,DA,MS200095-0022-VISION-CHN_SITE01-0015,991,DISPAMT,Dispensed Amount,1,TABLET,1,1.0,TABLET,331.0,,TREATMENT,2025-03-29,331
MS200095-0022-VISION,DA,MS200095-0022-VISION-CHN_SITE01-0015,992,REMAMT,Remaining Amount,0.1,TABLET,0.1,0.1,TABLET,331.0,,TREATMENT,2025-03-29,331
MS200095-0022-VISION,DA,MS200095-0022-VISION-CHN_SITE01-0015,993,RETAMT,Returned Amount,0.1,TABLET,0.1,0.1,TABLET,331.0,,TREATMENT,2025-03-29,331
MS200095-0022-VISION,DA,MS200095-0022-VISION-CHN_SITE01-0015,994,DISPAMT,Dispensed Amount,1,TABLET,1,1.0,TABLET,332.0,,TREATMENT,2025-03-30,332
MS200095-0022-VISION,DA,MS200095-0022-VISION-CHN_SITE01-0015,995,REMAMT,Remaining Amount,0.2,TABLET,0.2,0.2,TABLET,332.0,,TREATMENT,2025-03-30,332
MS200095-0022-VISION,DA,MS200095-0022-VISION-CHN_SITE01-0015,996,RETAMT,Returned Amount,0.2,TABLET,0.2,0.2,TABLET,332.0,,TREATMENT,2025-03-30,332
MS200095-0022-VISION,DA,MS200095-0022-VISION-CHN_SITE01-0015,997,DISPAMT,Dispensed Amount,1,TABLET,1,1.0,TABLET,333.0,,TREATMENT,2025-03-31,333
MS200095-0022-VISION,DA,MS200095-0022-VISION-CHN_SITE01-0015,998,REMAMT,Remaining Amount,0.1,TABLET,0.1,0.1,TABLET,333.0,,TREATMENT,2025-03-31,333
MS200095-0022-VISION,DA,MS200095-0022-VISION-CHN_SITE01-0015,999,RETAMT,Returned Amount,0.1,TABLET,0.1,0.1,TABLET,333.0,,TREATMENT,2025-03-31,333
MS200095-0022-VISION,DA,MS200095-0022-VISION-CHN_SITE01-0015,1000,DISPAMT,Dispensed Amount,1,TABLET,1,1.0,TABLET,334.0,,TREATMENT,2025-04-01,334
MS200095-0022-VISION,DA,MS200095-0022-VISION-CHN_SITE01-0015,1001,REMAMT,Remaining Amount,0.0,TABLET,0.0,0.0,TABLET,334.0,,TREATMENT,2025-04-01,334
MS200095-0022-VISION,DA,MS200095-0022-VISION-CHN_SITE01-0015,1002,RETAMT,Returned Amount,0.0,TABLET,0.0,0.0,TABLET,334.0,,TREATMENT,2025-04-01,334
MS200095-0022-VISION,DA,MS200095-0022-VISION-CHN_SITE01-0015,1003,DISPAMT,Dispensed Amount,1,TABLET,1,1.0,TABLET,335.0,,TREATMENT,2025-04-02,335
MS200095-0022-VISION,DA,MS200095-0022-VISION-CHN_SITE01-0015,1004,REMAMT,Remaining Amount,0.1,TABLET,0.1,0.1,TABLET,335.0,,TREATMENT,2025-04-02,335
MS200095-0022-VISION,DA,MS200095-0022-VISION-CHN_SITE01-0015,1005,RETAMT,Returned Amount,0.1,TABLET,0.1,0.1,TABLET,335.0,,TREATMENT,2025-04-02,335
MS200095-0022-VISION,DA,MS200095-0022-VISION-CHN_SITE01-0015,1006,DISPAMT,Dispensed Amount,1,TABLET,1,1.0,TABLET,336.0,,TREATMENT,2025-04-03,336
MS200095-0022-VISION,DA,MS200095-0022-VISION-CHN_SITE01-0015,1007,REMAMT,Remaining Amount,0.0,TABLET,0.0,0.0,TABLET,336.0,,TREATMENT,2025-04-03,336
MS200095-0022-VISION,DA,MS200095-0022-VISION-CHN_SITE01-0015,1008,RETAMT,Returned Amount,0.0,TABLET,0.0,0.0,TABLET,336.0,,TREATMENT,2025-04-03,336
MS200095-0022-VISION,DA,MS200095-0022-VISION-CHN_SITE01-0015,1009,DISPAMT,Dispensed Amount,1,TABLET,1,1.0,TABLET,337.0,,TREATMENT,2025-04-04,337
MS200095-0022-VISION,DA,MS200095-0022-VISION-CHN_SITE01-0015,1010,REMAMT,Remaining Amount,0.1,TABLET,0.1,0.1,TABLET,337.0,,TREATMENT,2025-04-04,337
MS200095-0022-VISION,DA,MS200095-0022-VISION-CHN_SITE01-0015,1011,RETAMT,Returned Amount,0.1,TABLET,0.1,0.1,TABLET,337.0,,TREATMENT,2025-04-04,337
MS200095-0022-VISION,DA,MS200095-0022-VISION-CHN_SITE01-0015,1012,DISPAMT,Dispensed Amount,1,TABLET,1,1.0,TABLET,338.0,,TREATMENT,2025-04-05,338
MS200095-0022-VISION,DA,MS200095-0022-VISION-CHN_SITE01-0015,1013,REMAMT,Remaining Amount,0.0,TABLET,0.0,0.0,TABLET,338.0,,TREATMENT,2025-04-05,338
MS200095-0022-VISION,DA,MS200095-0022-VISION-CHN_SITE01-0015,1014,RETAMT,Returned Amount,0.0,TABLET,0.0,0.0,TABLET,338.0,,TREATMENT,2025-04-05,338
MS200095-0022-VISION,DA,MS200095-0022-VISION-CHN_SITE01-0015,1015,DISPAMT,Dispensed Amount,1,TABLET,1,1.0,TABLET,339.0,,TREATMENT,2025-04-06,339
MS200095-0022-VISION,DA,MS200095-0022-VISION-CHN_SITE01-0015,1016,REMAMT,Remaining Amount,0.1,TABLET,0.1,0.1,TABLET,339.0,,TREATMENT,2025-04-06,339
MS200095-0022-VISION,DA,MS200095-0022-VISION-CHN_SITE01-0015,1017,RETAMT,Returned Amount,0.1,TABLET,0.1,0.1,TABLET,339.0,,TREATMENT,2025-04-06,339
MS200095-0022-VISION,DA,MS200095-0022-VISION-CHN_SITE01-0015,1018,DISPAMT,Dispensed Amount,1,TABLET,1,1.0,TABLET,340.0,,TREATMENT,2025-04-07,340
MS200095-0022-VISION,DA,MS200095-0022-VISION-CHN_SITE01-0015,1019,REMAMT,Remaining Amount,0.0,TABLET,0.0,0.0,TABLET,340.0,,TREATMENT,2025-04-07,340
MS200095-0022-VISION,DA,MS200095-0022-VISION-CHN_SITE01-0015,1020,RETAMT,Returned Amount,0.0,TABLET,0.0,0.0,TABLET,340.0,,TREATMENT,2025-04-07,340
MS200095-0022-VISION,DA,MS200095-0022-VISION-CHN_SITE01-0015,1021,DISPAMT,Dispensed Amount,1,TABLET,1,1.0,TABLET,341.0,,TREATMENT,2025-04-08,341
MS200095-0022-VISION,DA,MS200095-0022-VISION-CHN_SITE01-0015,1022,REMAMT,Remaining Amount,0.2,TABLET,0.2,0.2,TABLET,341.0,,TREATMENT,2025-04-08,341
MS200095-0022-VISION,DA,MS200095-0022-VISION-CHN_SITE01-0015,1023,RETAMT,Returned Amount,0.2,TABLET,0.2,0.2,TABLET,341.0,,TREATMENT,2025-04-08,341
MS200095-0022-VISION,DA,MS200095-0022-VISION-CHN_SITE01-0015,1024,DISPAMT,Dispensed Amount,1,TABLET,1,1.0,TABLET,342.0,,TREATMENT,2025-04-09,342
MS200095-0022-VISION,DA,MS200095-0022-VISION-CHN_SITE01-0015,1025,REMAMT,Remaining Amount,0.1,TABLET,0.1,0.1,TABLET,342.0,,TREATMENT,2025-04-09,342
MS200095-0022-VISION,DA,MS200095-0022-VISION-CHN_SITE01-0015,1026,RETAMT,Returned Amount,0.1,TABLET,0.1,0.1,TABLET,342.0,,TREATMENT,2025-04-09,342
MS200095-0022-VISION,DA,MS200095-0022-VISION-CHN_SITE01-0015,1027,DISPAMT,Dispensed Amount,1,TABLET,1,1.0,TABLET,343.0,,TREATMENT,2025-04-10,343
MS200095-0022-VISION,DA,MS200095-0022-VISION-CHN_SITE01-0015,1028,REMAMT,Remaining Amount,0.1,TABLET,0.1,0.1,TABLET,343.0,,TREATMENT,2025-04-10,343
MS200095-0022-VISION,DA,MS200095-0022-VISION-CHN_SITE01-0015,1029,RETAMT,Returned Amount,0.1,TABLET,0.1,0.1,TABLET,343.0,,TREATMENT,2025-04-10,343
MS200095-0022-VISION,DA,MS200095-0022-VISION-CHN_SITE01-0015,1030,DISPAMT,Dispensed Amount,1,TABLET,1,1.0,TABLET,344.0,,TREATMENT,2025-04-11,344
MS200095-0022-VISION,DA,MS200095-0022-VISION-CHN_SITE01-0015,1031,REMAMT,Remaining Amount,0.0,TABLET,0.0,0.0,TABLET,344.0,,TREATMENT,2025-04-11,344
MS200095-0022-VISION,DA,MS200095-0022-VISION-CHN_SITE01-0015,1032,RETAMT,Returned Amount,0.0,TABLET,0.0,0.0,TABLET,344.0,,TREATMENT,2025-04-11,344
MS200095-0022-VISION,DA,MS200095-0022-VISION-CHN_SITE01-0015,1033,DISPAMT,Dispensed Amount,1,TABLET,1,1.0,TABLET,345.0,,TREATMENT,2025-04-12,345
MS200095-0022-VISION,DA,MS200095-0022-VISION-CHN_SITE01-0015,1034,REMAMT,Remaining Amount,0.1,TABLET,0.1,0.1,TABLET,345.0,,TREATMENT,2025-04-12,345
MS200095-0022-VISION,DA,MS200095-0022-VISION-CHN_SITE01-0015,1035,RETAMT,Returned Amount,0.1,TABLET,0.1,0.1,TABLET,345.0,,TREATMENT,2025-04-12,345
MS200095-0022-VISION,DA,MS200095-0022-VISION-CHN_SITE01-0015,1036,DISPAMT,Dispensed Amount,1,TABLET,1,1.0,TABLET,346.0,,TREATMENT,2025-04-13,346
MS200095-0022-VISION,DA,MS200095-0022-VISION-CHN_SITE01-0015,1037,REMAMT,Remaining Amount,0.0,TABLET,0.0,0.0,TABLET,346.0,,TREATMENT,2025-04-13,346
MS200095-0022-VISION,DA,MS200095-0022-VISION-CHN_SITE01-0015,1038,RETAMT,Returned Amount,0.0,TABLET,0.0,0.0,TABLET,346.0,,TREATMENT,2025-04-13,346
MS200095-0022-VISION,DA,MS200095-0022-VISION-CHN_SITE01-0015,1039,DISPAMT,Dispensed Amount,1,TABLET,1,1.0,TABLET,347.0,,TREATMENT,2025-04-14,347
MS200095-0022-VISION,DA,MS200095-0022-VISION-CHN_SITE01-0015,1040,REMAMT,Remaining Amount,0.1,TABLET,0.1,0.1,TABLET,347.0,,TREATMENT,2025-04-14,347
MS200095-0022-VISION,DA,MS200095-0022-VISION-CHN_SITE01-0015,1041,RETAMT,Returned Amount,0.1,TABLET,0.1,0.1,TABLET,347.0,,TREATMENT,2025-04-14,347
MS200095-0022-VISION,DA,MS200095-0022-VISION-CHN_SITE01-0015,1042,DISPAMT,Dispensed Amount,1,TABLET,1,1.0,TABLET,348.0,,TREATMENT,2025-04-15,348
MS200095-0022-VISION,DA,MS200095-0022-VISION-CHN_SITE01-0015,1043,REMAMT,Remaining Amount,0.1,TABLET,0.1,0.1,TABLET,348.0,,TREATMENT,2025-04-15,348
MS200095-0022-VISION,DA,MS200095-0022-VISION-CHN_SITE01-0015,1044,RETAMT,Returned Amount,0.1,TABLET,0.1,0.1,TABLET,348.0,,TREATMENT,2025-04-15,348
MS200095-0022-VISION,DA,MS200095-0022-VISION-CHN_SITE01-0015,1045,DISPAMT,Dispensed Amount,1,TABLET,1,1.0,TABLET,349.0,,TREATMENT,2025-04-16,349
MS200095-0022-VISION,DA,MS200095-0022-VISION-CHN_SITE01-0015,1046,REMAMT,Remaining Amount,0.1,TABLET,0.1,0.1,TABLET,349.0,,TREATMENT,2025-04-16,349
MS200095-0022-VISION,DA,MS200095-0022-VISION-CHN_SITE01-0015,1047,RETAMT,Returned Amount,0.1,TABLET,0.1,0.1,TABLET,349.0,,TREATMENT,2025-04-16,349
MS200095-0022-VISION,DA,MS200095-0022-VISION-CHN_SITE01-0015,1048,DISPAMT,Dispensed Amount,14,TABLET,14,14.0,TABLET,350.0,,TREATMENT,2025-04-17,350
MS200095-0022-VISION,DA,MS200095-0022-VISION-CHN_SITE01-0015,1049,REMAMT,Remaining Amount,2.8,TABLET,2.8,2.8,TABLET,350.0,,TREATMENT,2025-04-17,350
MS200095-0022-VISION,DA,MS200095-0022-VISION-CHN_SITE01-0015,1050,RETAMT,Returned Amount,2.8,TABLET,2.8,2.8,TABLET,350.0,,TREATMENT,2025-04-17,350
MS200095-0022-VISION,DA,MS200095-0022-VISION-DEU_SITE01-0009,1,DISPAMT,Dispensed Amount,1,TABLET,1,1.0,TABLET,2.0,C1D1,TREATMENT,2024-02-07,1
MS200095-0022-VISION,DA,MS200095-0022-VISION-DEU_SITE01-0009,2,DISPAMT,Dispensed Amount,1,TABLET,1,1.0,TABLET,2.0,C1D1,TREATMENT,2024-02-08,2
MS200095-0022-VISION,DA,MS200095-0022-VISION-DEU_SITE01-0009,3,DISPAMT,Dispensed Amount,1,TABLET,1,1.0,TABLET,2.0,C1D1,TREATMENT,2024-02-09,3
MS200095-0022-VISION,DA,MS200095-0022-VISION-DEU_SITE01-0009,4,DISPAMT,Dispensed Amount,1,TABLET,1,1.0,TABLET,2.0,C1D1,TREATMENT,2024-02-10,4
MS200095-0022-VISION,DA,MS200095-0022-VISION-DEU_SITE01-0009,5,REMAMT,Remaining Amount,0.2,TABLET,0.2,0.2,TABLET,2.0,C1D1,TREATMENT,2024-02-07,1
MS200095-0022-VISION,DA,MS200095-0022-VISION-DEU_SITE01-0009,6,REMAMT,Remaining Amount,0.2,TABLET,0.2,0.2,TABLET,2.0,C1D1,TREATMENT,2024-02-08,2
MS200095-0022-VISION,DA,MS200095-0022-VISION-DEU_SITE01-0009,7,REMAMT,Remaining Amount,0.0,TABLET,0.0,0.0,TABLET,2.0,C1D1,TREATMENT,2024-02-09,3
MS200095-0022-VISION,DA,MS200095-0022-VISION-DEU_SITE01-0009,8,REMAMT,Remaining Amount,0.1,TABLET,0.1,0.1,TABLET,2.0,C1D1,TREATMENT,2024-02-10,4
MS200095-0022-VISION,DA,MS200095-0022-VISION-DEU_SITE01-0009,9,RETAMT,Returned Amount,0.2,TABLET,0.2,0.2,TABLET,2.0,C1D1,TREATMENT,2024-02-07,1
MS200095-0022-VISION,DA,MS200095-0022-VISION-DEU_SITE01-0009,10,RETAMT,Returned Amount,0.2,TABLET,0.2,0.2,TABLET,2.0,C1D1,TREATMENT,2024-02-08,2
MS200095-0022-VISION,DA,MS200095-0022-VISION-DEU_SITE01-0009,11,RETAMT,Returned Amount,0.0,TABLET,0.0,0.0,TABLET,2.0,C1D1,TREATMENT,2024-02-09,3
MS200095-0022-VISION,DA,MS200095-0022-VISION-DEU_SITE01-0009,12,RETAMT,Returned Amount,0.1,TABLET,0.1,0.1,TABLET,2.0,C1D1,TREATMENT,2024-02-10,4
MS200095-0022-VISION,DA,MS200095-0022-VISION-DEU_SITE01-0009,13,DISPAMT,Dispensed Amount,1,TABLET,1,1.0,TABLET,3.0,C1D15,TREATMENT,2024-02-18,12
MS200095-0022-VISION,DA,MS200095-0022-VISION-DEU_SITE01-0009,14,DISPAMT,Dispensed Amount,1,TABLET,1,1.0,TABLET,3.0,C1D15,TREATMENT,2024-02-19,13
MS200095-0022-VISION,DA,MS200095-0022-VISION-DEU_SITE01-0009,15,DISPAMT,Dispensed Amount,1,TABLET,1,1.0,TABLET,3.0,C1D15,TREATMENT,2024-02-20,14
MS200095-0022-VISION,DA,MS200095-0022-VISION-DEU_SITE01-0009,16,DISPAMT,Dispensed Amount,1,TABLET,1,1.0,TABLET,3.0,C1D15,TREATMENT,2024-02-21,15
MS200095-0022-VISION,DA,MS200095-0022-VISION-DEU_SITE01-0009,17,DISPAMT,Dispensed Amount,1,TABLET,1,1.0,TABLET,3.0,C1D15,TREATMENT,2024-02-22,16
MS200095-0022-VISION,DA,MS200095-0022-VISION-DEU_SITE01-0009,18,DISPAMT,Dispensed Amount,1,TABLET,1,1.0,TABLET,3.0,C1D15,TREATMENT,2024-02-23,17
MS200095-0022-VISION,DA,MS200095-0022-VISION-DEU_SITE01-0009,19,DISPAMT,Dispensed Amount,1,TABLET,1,1.0,TABLET,3.0,C1D15,TREATMENT,2024-02-24,18
MS200095-0022-VISION,DA,MS200095-0022-VISION-DEU_SITE01-0009,20,REMAMT,Remaining Amount,0.1,TABLET,0.1,0.1,TABLET,3.0,C1D15,TREATMENT,2024-02-18,12
MS200095-0022-VISION,DA,MS200095-0022-VISION-DEU_SITE01-0009,21,REMAMT,Remaining Amount,1,TABLET,1,1.0,TABLET,3.0,C1D15,TREATMENT,2024-02-19,13
MS200095-0022-VISION,DA,MS200095-0022-VISION-DEU_SITE01-0009,22,REMAMT,Remaining Amount,0.1,TABLET,0.1,0.1,TABLET,3.0,C1D15,TREATMENT,2024-02-20,14
MS200095-0022-VISION,DA,MS200095-0022-VISION-DEU_SITE01-0009,23,REMAMT,Remaining Amount,0.1,TABLET,0.1,0.1,TABLET,3.0,C1D15,TREATMENT,2024-02-21,15
MS200095-0022-VISION,DA,MS200095-0022-VISION-DEU_SITE01-0009,24,REMAMT,Remaining Amount,0.0,TABLET,0.0,0.0,TABLET,3.0,C1D15,TREATMENT,2024-02-22,16
MS200095-0022-VISION,DA,MS200095-0022-VISION-DEU_SITE01-0009,25,REMAMT,Remaining Amount,0.2,TABLET,0.2,0.2,TABLET,3.0,C1D15,TREATMENT,2024-02-23,17
MS200095-0022-VISION,DA,MS200095-0022-VISION-DEU_SITE01-0009,26,REMAMT,Remaining Amount,0.1,TABLET,0.1,0.1,TABLET,3.0,C1D15,TREATMENT,2024-02-24,18
MS200095-0022-VISION,DA,MS200095-0022-VISION-DEU_SITE01-0009,27,RETAMT,Returned Amount,0.1,TABLET,0.1,0.1,TABLET,3.0,C1D15,TREATMENT,2024-02-18,12
MS200095-0022-VISION,DA,MS200095-0022-VISION-DEU_SITE01-0009,28,RETAMT,Returned Amount,1,TABLET,1,1.0,TABLET,3.0,C1D15,TREATMENT,2024-02-19,13
MS200095-0022-VISION,DA,MS200095-0022-VISION-DEU_SITE01-0009,29,RETAMT,Returned Amount,0.1,TABLET,0.1,0.1,TABLET,3.0,C1D15,TREATMENT,2024-02-20,14
MS200095-0022-VISION,DA,MS200095-0022-VISION-DEU_SITE01-0009,30,RETAMT,Returned Amount,0.1,TABLET,0.1,0.1,TABLET,3.0,C1D15,TREATMENT,2024-02-21,15
MS200095-0022-VISION,DA,MS200095-0022-VISION-DEU_SITE01-0009,31,RETAMT,Returned Amount,0.0,TABLET,0.0,0.0,TABLET,3.0,C1D15,TREATMENT,2024-02-22,16
MS200095-0022-VISION,DA,MS200095-0022-VISION-DEU_SITE01-0009,32,RETAMT,Returned Amount,0.2,TABLET,0.2,0.2,TABLET,3.0,C1D15,TREATMENT,2024-02-23,17
MS200095-0022-VISION,DA,MS200095-0022-VISION-DEU_SITE01-0009,33,RETAMT,Returned Amount,0.1,TABLET,0.1,0.1,TABLET,3.0,C1D15,TREATMENT,2024-02-24,18
MS200095-0022-VISION,DA,MS200095-0022-VISION-DEU_SITE01-0009,34,DISPAMT,Dispensed Amount,1,TABLET,1,1.0,TABLET,4.0,C2D1,TREATMENT,2024-02-25,19
MS200095-0022-VISION,DA,MS200095-0022-VISION-DEU_SITE01-0009,35,DISPAMT,Dispensed Amount,1,TABLET,1,1.0,TABLET,4.0,C2D1,TREATMENT,2024-02-26,20
MS200095-0022-VISION,DA,MS200095-0022-VISION-DEU_SITE01-0009,36,DISPAMT,Dispensed Amount,1,TABLET,1,1.0,TABLET,4.0,C2D1,TREATMENT,2024-02-27,21
MS200095-0022-VISION,DA,MS200095-0022-VISION-DEU_SITE01-0009,37,DISPAMT,Dispensed Amount,1,TABLET,1,1.0,TABLET,4.0,C2D1,TREATMENT,2024-02-28,22
MS200095-0022-VISION,DA,MS200095-0022-VISION-DEU_SITE01-0009,38,DISPAMT,Dispensed Amount,1,TABLET,1,1.0,TABLET,4.0,C2D1,TREATMENT,2024-02-29,23
MS200095-0022-VISION,DA,MS200095-0022-VISION-DEU_SITE01-0009,39,DISPAMT,Dispensed Amount,1,TABLET,1,1.0,TABLET,4.0,C2D1,TREATMENT,2024-03-01,24
MS200095-0022-VISION,DA,MS200095-0022-VISION-DEU_SITE01-0009,40,DISPAMT,Dispensed Amount,1,TABLET,1,1.0,TABLET,4.0,C2D1,TREATMENT,2024-03-02,25
MS200095-0022-VISION,DA,MS200095-0022-VISION-DEU_SITE01-0009,41,REMAMT,Remaining Amount,0.2,TABLET,0.2,0.2,TABLET,4.0,C2D1,TREATMENT,2024-02-25,19
MS200095-0022-VISION,DA,MS200095-0022-VISION-DEU_SITE01-0009,42,REMAMT,Remaining Amount,0.0,TABLET,0.0,0.0,TABLET,4.0,C2D1,TREATMENT,2024-02-26,20
MS200095-0022-VISION,DA,MS200095-0022-VISION-DEU_SITE01-0009,43,REMAMT,Remaining Amount,0.1,TABLET,0.1,0.1,TABLET,4.0,C2D1,TREATMENT,2024-02-27,21
MS200095-0022-VISION,DA,MS200095-0022-VISION-DEU_SITE01-0009,44,REMAMT,Remaining Amount,0.1,TABLET,0.1,0.1,TABLET,4.0,C2D1,TREATMENT,2024-02-28,22
MS200095-0022-VISION,DA,MS200095-0022-VISION-DEU_SITE01-0009,45,REMAMT,Remaining Amount,0.1,TABLET,0.1,0.1,TABLET,4.0,C2D1,TREATMENT,2024-02-29,23
MS200095-0022-VISION,DA,MS200095-0022-VISION-DEU_SITE01-0009,46,REMAMT,Remaining Amount,0.1,TABLET,0.1,0.1,TABLET,4.0,C2D1,TREATMENT,2024-03-01,24
MS200095-0022-VISION,DA,MS200095-0022-VISION-DEU_SITE01-0009,47,REMAMT,Remaining Amount,0.1,TABLET,0.1,0.1,TABLET,4.0,C2D1,TREATMENT,2024-03-02,25
MS200095-0022-VISION,DA,MS200095-0022-VISION-DEU_SITE01-0009,48,RETAMT,Returned Amount,0.2,TABLET,0.2,0.2,TABLET,4.0,C2D1,TREATMENT,2024-02-25,19
MS200095-0022-VISION,DA,MS200095-0022-VISION-DEU_SITE01-0009,49,RETAMT,Returned Amount,0.0,TABLET,0.0,0.0,TABLET,4.0,C2D1,TREATMENT,2024-02-26,20
MS200095-0022-VISION,DA,MS200095-0022-VISION-DEU_SITE01-0009,50,RETAMT,Returned Amount,0.1,TABLET,0.1,0.1,TABLET,4.0,C2D1,TREATMENT,2024-02-27,21
MS200095-0022-VISION,DA,MS200095-0022-VISION-DEU_SITE01-0009,51,RETAMT,Returned Amount,0.1,TABLET,0.1,0.1,TABLET,4.0,C2D1,TREATMENT,2024-02-28,22
MS200095-0022-VISION,DA,MS200095-0022-VISION-DEU_SITE01-0009,52,RETAMT,Returned Amount,0.1,TABLET,0.1,0.1,TABLET,4.0,C2D1,TREATMENT,2024-02-29,23
MS200095-0022-VISION,DA,MS200095-0022-VISION-DEU_SITE01-0009,53,RETAMT,Returned Amount,0.1,TABLET,0.1,0.1,TABLET,4.0,C2D1,TREATMENT,2024-03-01,24
MS200095-0022-VISION,DA,MS200095-0022-VISION-DEU_SITE01-0009,54,RETAMT,Returned Amount,0.1,TABLET,0.1,0.1,TABLET,4.0,C2D1,TREATMENT,2024-03-02,25
MS200095-0022-VISION,DA,MS200095-0022-VISION-DEU_SITE01-0009,55,DISPAMT,Dispensed Amount,1,TABLET,1,1.0,TABLET,5.0,,TREATMENT,2024-02-11,5
MS200095-0022-VISION,DA,MS200095-0022-VISION-DEU_SITE01-0009,56,DISPAMT,Dispensed Amount,1,TABLET,1,1.0,TABLET,5.0,C3D1,TREATMENT,2024-03-17,40
MS200095-0022-VISION,DA,MS200095-0022-VISION-DEU_SITE01-0009,57,DISPAMT,Dispensed Amount,1,TABLET,1,1.0,TABLET,5.0,C3D1,TREATMENT,2024-03-18,41
MS200095-0022-VISION,DA,MS200095-0022-VISION-DEU_SITE01-0009,58,DISPAMT,Dispensed Amount,1,TABLET,1,1.0,TABLET,5.0,C3D1,TREATMENT,2024-03-19,42
MS200095-0022-VISION,DA,MS200095-0022-VISION-DEU_SITE01-0009,59,DISPAMT,Dispensed Amount,1,TABLET,1,1.0,TABLET,5.0,C3D1,TREATMENT,2024-03-20,43
MS200095-0022-VISION,DA,MS200095-0022-VISION-DEU_SITE01-0009,60,DISPAMT,Dispensed Amount,1,TABLET,1,1.0,TABLET,5.0,C3D1,TREATMENT,2024-03-21,44
MS200095-0022-VISION,DA,MS200095-0022-VISION-DEU_SITE01-0009,61,DISPAMT,Dispensed Amount,1,TABLET,1,1.0,TABLET,5.0,C3D1,TREATMENT,2024-03-22,45
MS200095-0022-VISION,DA,MS200095-0022-VISION-DEU_SITE01-0009,62,DISPAMT,Dispensed Amount,1,TABLET,1,1.0,TABLET,5.0,C3D1,TREATMENT,2024-03-23,46
MS200095-0022-VISION,DA,MS200095-0022-VISION-DEU_SITE01-0009,63,REMAMT,Remaining Amount,0.0,TABLET,0.0,0.0,TABLET,5.0,,TREATMENT,2024-02-11,5
MS200095-0022-VISION,DA,MS200095-0022-VISION-DEU_SITE01-0009,64,REMAMT,Remaining Amount,0.0,TABLET,0.0,0.0,TABLET,5.0,C3D1,TREATMENT,2024-03-17,40
MS200095-0022-VISION,DA,MS200095-0022-VISION-DEU_SITE01-0009,65,REMAMT,Remaining Amount,0.0,TABLET,0.0,0.0,TABLET,5.0,C3D1,TREATMENT,2024-03-18,41
MS200095-0022-VISION,DA,MS200095-0022-VISION-DEU_SITE01-0009,66,REMAMT,Remaining Amount,0.0,TABLET,0.0,0.0,TABLET,5.0,C3D1,TREATMENT,2024-03-19,42
MS200095-0022-VISION,DA,MS200095-0022-VISION-DEU_SITE01-0009,67,REMAMT,Remaining Amount,0.0,TABLET,0.0,0.0,TABLET,5.0,C3D1,TREATMENT,2024-03-20,43
MS200095-0022-VISION,DA,MS200095-0022-VISION-DEU_SITE01-0009,68,REMAMT,Remaining Amount,0.0,TABLET,0.0,0.0,TABLET,5.0,C3D1,TREATMENT,2024-03-21,44
MS200095-0022-VISION,DA,MS200095-0022-VISION-DEU_SITE01-0009,69,REMAMT,Remaining Amount,0.1,TABLET,0.1,0.1,TABLET,5.0,C3D1,TREATMENT,2024-03-22,45
MS200095-0022-VISION,DA,MS200095-0022-VISION-DEU_SITE01-0009,70,REMAMT,Remaining Amount,0.0,TABLET,0.0,0.0,TABLET,5.0,C3D1,TREATMENT,2024-03-23,46
MS200095-0022-VISION,DA,MS200095-0022-VISION-DEU_SITE01-0009,71,RETAMT,Returned Amount,0.0,TABLET,0.0,0.0,TABLET,5.0,,TREATMENT,2024-02-11,5
MS200095-0022-VISION,DA,MS200095-0022-VISION-DEU_SITE01-0009,72,RETAMT,Returned Amount,0.0,TABLET,0.0,0.0,TABLET,5.0,C3D1,TREATMENT,2024-03-17,40
MS200095-0022-VISION,DA,MS200095-0022-VISION-DEU_SITE01-0009,73,RETAMT,Returned Amount,0.0,TABLET,0.0,0.0,TABLET,5.0,C3D1,TREATMENT,2024-03-18,41
MS200095-0022-VISION,DA,MS200095-0022-VISION-DEU_SITE01-0009,74,RETAMT,Returned Amount,0.0,TABLET,0.0,0.0,TABLET,5.0,C3D1,TREATMENT,2024-03-19,42
MS200095-0022-VISION,DA,MS200095-0022-VISION-DEU_SITE01-0009,75,RETAMT,Returned Amount,0.0,TABLET,0.0,0.0,TABLET,5.0,C3D1,TREATMENT,2024-03-20,43
MS200095-0022-VISION,DA,MS200095-0022-VISION-DEU_SITE01-0009,76,RETAMT,Returned Amount,0.0,TABLET,0.0,0.0,TABLET,5.0,C3D1,TREATMENT,2024-03-21,44
MS200095-0022-VISION,DA,MS200095-0022-VISION-DEU_SITE01-0009,77,RETAMT,Returned Amount,0.1,TABLET,0.1,0.1,TABLET,5.0,C3D1,TREATMENT,2024-03-22,45
MS200095-0022-VISION,DA,MS200095-0022-VISION-DEU_SITE01-0009,78,RETAMT,Returned Amount,0.0,TABLET,0.0,0.0,TABLET,5.0,C3D1,TREATMENT,2024-03-23,46
MS200095-0022-VISION,DA,MS200095-0022-VISION-DEU_SITE01-0009,79,DISPAMT,Dispensed Amount,1,TABLET,1,1.0,TABLET,6.0,,TREATMENT,2024-02-12,6
MS200095-0022-VISION,DA,MS200095-0022-VISION-DEU_SITE01-0009,80,DISPAMT,Dispensed Amount,1,TABLET,1,1.0,TABLET,6.0,C4D1,TREATMENT,2024-04-07,61
MS200095-0022-VISION,DA,MS200095-0022-VISION-DEU_SITE01-0009,81,DISPAMT,Dispensed Amount,1,TABLET,1,1.0,TABLET,6.0,C4D1,TREATMENT,2024-04-08,62
MS200095-0022-VISION,DA,MS200095-0022-VISION-DEU_SITE01-0009,82,DISPAMT,Dispensed Amount,1,TABLET,1,1.0,TABLET,6.0,C4D1,TREATMENT,2024-04-09,63
MS200095-0022-VISION,DA,MS200095-0022-VISION-DEU_SITE01-0009,83,DISPAMT,Dispensed Amount,1,TABLET,1,1.0,TABLET,6.0,C4D1,TREATMENT,2024-04-10,64
MS200095-0022-VISION,DA,MS200095-0022-VISION-DEU_SITE01-0009,84,DISPAMT,Dispensed Amount,1,TABLET,1,1.0,TABLET,6.0,C4D1,TREATMENT,2024-04-11,65
MS200095-0022-VISION,DA,MS200095-0022-VISION-DEU_SITE01-0009,85,DISPAMT,Dispensed Amount,1,TABLET,1,1.0,TABLET,6.0,C4D1,TREATMENT,2024-04-12,66
MS200095-0022-VISION,DA,MS200095-0022-VISION-DEU_SITE01-0009,86,DISPAMT,Dispensed Amount,1,TABLET,1,1.0,TABLET,6.0,C4D1,TREATMENT,2024-04-13,67
MS200095-0022-VISION,DA,MS200095-0022-VISION-DEU_SITE01-0009,87,REMAMT,Remaining Amount,0.0,TABLET,0.0,0.0,TABLET,6.0,,TREATMENT,2024-02-12,6
MS200095-0022-VISION,DA,MS200095-0022-VISION-DEU_SITE01-0009,88,REMAMT,Remaining Amount,0.1,TABLET,0.1,0.1,TABLET,6.0,C4D1,TREATMENT,2024-04-07,61
MS200095-0022-VISION,DA,MS200095-0022-VISION-DEU_SITE01-0009,89,REMAMT,Remaining Amount,0.1,TABLET,0.1,0.1,TABLET,6.0,C4D1,TREATMENT,2024-04-08,62
MS200095-0022-VISION,DA,MS200095-0022-VISION-DEU_SITE01-0009,90,REMAMT,Remaining Amount,0.0,TABLET,0.0,0.0,TABLET,6.0,C4D1,TREATMENT,2024-04-09,63
MS200095-0022-VISION,DA,MS200095-0022-VISION-DEU_SITE01-0009,91,REMAMT,Remaining Amount,0.2,TABLET,0.2,0.2,TABLET,6.0,C4D1,TREATMENT,2024-04-10,64
MS200095-0022-VISION,DA,MS200095-0022-VISION-DEU_SITE01-0009,92,REMAMT,Remaining Amount,0.1,TABLET,0.1,0.1,TABLET,6.0,C4D1,TREATMENT,2024-04-11,65
MS200095-0022-VISION,DA,MS200095-0022-VISION-DEU_SITE01-0009,93,REMAMT,Remaining Amount,0.1,TABLET,0.1,0.1,TABLET,6.0,C4D1,TREATMENT,2024-04-12,66
MS200095-0022-VISION,DA,MS200095-0022-VISION-DEU_SITE01-0009,94,REMAMT,Remaining Amount,1,TABLET,1,1.0,TABLET,6.0,C4D1,TREATMENT,2024-04-13,67
MS200095-0022-VISION,DA,MS200095-0022-VISION-DEU_SITE01-0009,95,RETAMT,Returned Amount,0.0,TABLET,0.0,0.0,TABLET,6.0,,TREATMENT,2024-02-12,6
MS200095-0022-VISION,DA,MS200095-0022-VISION-DEU_SITE01-0009,96,RETAMT,Returned Amount,0.1,TABLET,0.1,0.1,TABLET,6.0,C4D1,TREATMENT,2024-04-07,61
MS200095-0022-VISION,DA,MS200095-0022-VISION-DEU_SITE01-0009,97,RETAMT,Returned Amount,0.1,TABLET,0.1,0.1,TABLET,6.0,C4D1,TREATMENT,2024-04-08,62
MS200095-0022-VISION,DA,MS200095-0022-VISION-DEU_SITE01-0009,98,RETAMT,Returned Amount,0.0,TABLET,0.0,0.0,TABLET,6.0,C4D1,TREATMENT,2024-04-09,63
MS200095-0022-VISION,DA,MS200095-0022-VISION-DEU_SITE01-0009,99,RETAMT,Returned Amount,0.2,TABLET,0.2,0.2,TABLET,6.0,C4D1,TREATMENT,2024-04-10,64
MS200095-0022-VISION,DA,MS200095-0022-VISION-DEU_SITE01-0009,100,RETAMT,Returned Amount,0.1,TABLET,0.1,0.1,TABLET,6.0,C4D1,TREATMENT,2024-04-11,65
MS200095-0022-VISION,DA,MS200095-0022-VISION-DEU_SITE01-0009,101,RETAMT,Returned Amount,0.1,TABLET,0.1,0.1,TABLET,6.0,C4D1,TREATMENT,2024-04-12,66
MS200095-0022-VISION,DA,MS200095-0022-VISION-DEU_SITE01-0009,102,RETAMT,Returned Amount,1,TABLET,1,1.0,TABLET,6.0,C4D1,TREATMENT,2024-04-13,67
MS200095-0022-VISION,DA,MS200095-0022-VISION-DEU_SITE01-0009,103,DISPAMT,Dispensed Amount,1,TABLET,1,1.0,TABLET,7.0,,TREATMENT,2024-02-13,7
MS200095-0022-VISION,DA,MS200095-0022-VISION-DEU_SITE01-0009,104,DISPAMT,Dispensed Amount,1,TABLET,1,1.0,TABLET,7.0,C6D1,TREATMENT,2024-05-19,103
MS200095-0022-VISION,DA,MS200095-0022-VISION-DEU_SITE01-0009,105,DISPAMT,Dispensed Amount,1,TABLET,1,1.0,TABLET,7.0,C6D1,TREATMENT,2024-05-20,104
MS200095-0022-VISION,DA,MS200095-0022-VISION-DEU_SITE01-0009,106,DISPAMT,Dispensed Amount,1,TABLET,1,1.0,TABLET,7.0,C6D1,TREATMENT,2024-05-21,105
MS200095-0022-VISION,DA,MS200095-0022-VISION-DEU_SITE01-0009,107,DISPAMT,Dispensed Amount,1,TABLET,1,1.0,TABLET,7.0,C6D1,TREATMENT,2024-05-22,106
MS200095-0022-VISION,DA,MS200095-0022-VISION-DEU_SITE01-0009,108,DISPAMT,Dispensed Amount,1,TABLET,1,1.0,TABLET,7.0,C6D1,TREATMENT,2024-05-23,107
MS200095-0022-VISION,DA,MS200095-0022-VISION-DEU_SITE01-0009,109,DISPAMT,Dispensed Amount,1,TABLET,1,1.0,TABLET,7.0,C6D1,TREATMENT,2024-05-24,108
MS200095-0022-VISION,DA,MS200095-0022-VISION-DEU_SITE01-0009,110,DISPAMT,Dispensed Amount,1,TABLET,1,1.0,TABLET,7.0,C6D1,TREATMENT,2024-05-25,109
MS200095-0022-VISION,DA,MS200095-0022-VISION-DEU_SITE01-0009,111,REMAMT,Remaining Amount,0.1,TABLET,0.1,0.1,TABLET,7.0,,TREATMENT,2024-02-13,7
MS200095-0022-VISION,DA,MS200095-0022-VISION-DEU_SITE01-0009,112,REMAMT,Remaining Amount,0.1,TABLET,0.1,0.1,TABLET,7.0,C6D1,TREATMENT,2024-05-19,103
MS200095-0022-VISION,DA,MS200095-0022-VISION-DEU_SITE01-0009,113,REMAMT,Remaining Amount,0.1,TABLET,0.1,0.1,TABLET,7.0,C6D1,TREATMENT,2024-05-20,104
MS200095-0022-VISION,DA,MS200095-0022-VISION-DEU_SITE01-0009,114,REMAMT,Remaining Amount,0.1,TABLET,0.1,0.1,TABLET,7.0,C6D1,TREATMENT,2024-05-21,105
MS200095-0022-VISION,DA,MS200095-0022-VISION-DEU_SITE01-0009,115,REMAMT,Remaining Amount,0.1,TABLET,0.1,0.1,TABLET,7.0,C6D1,TREATMENT,2024-05-22,106
MS200095-0022-VISION,DA,MS200095-0022-VISION-DEU_SITE01-0009,116,REMAMT,Remaining Amount,0.1,TABLET,0.1,0.1,TABLET,7.0,C6D1,TREATMENT,2024-05-23,107
MS200095-0022-VISION,DA,MS200095-0022-VISION-DEU_SITE01-0009,117,REMAMT,Remaining Amount,0.2,TABLET,0.2,0.2,TABLET,7.0,C6D1,TREATMENT,2024-05-24,108
MS200095-0022-VISION,DA,MS200095-0022-VISION-DEU_SITE01-0009,118,REMAMT,Remaining Amount,0.1,TABLET,0.1,0.1,TABLET,7.0,C6D1,TREATMENT,2024-05-25,109
MS200095-0022-VISION,DA,MS200095-0022-VISION-DEU_SITE01-0009,119,RETAMT,Returned Amount,0.1,TABLET,0.1,0.1,TABLET,7.0,,TREATMENT,2024-02-13,7
MS200095-0022-VISION,DA,MS200095-0022-VISION-DEU_SITE01-0009,120,RETAMT,Returned Amount,0.1,TABLET,0.1,0.1,TABLET,7.0,C6D1,TREATMENT,2024-05-19,103
MS200095-0022-VISION,DA,MS200095-0022-VISION-DEU_SITE01-0009,121,RETAMT,Returned Amount,0.1,TABLET,0.1,0.1,TABLET,7.0,C6D1,TREATMENT,2024-05-20,104
MS200095-0022-VISION,DA,MS200095-0022-VISION-DEU_SITE01-0009,122,RETAMT,Returned Amount,0.1,TABLET,0.1,0.1,TABLET,7.0,C6D1,TREATMENT,2024-05-21,105
MS200095-0022-VISION,DA,MS200095-0022-VISION-DEU_SITE01-0009,123,RETAMT,Returned Amount,0.1,TABLET,0.1,0.1,TABLET,7.0,C6D1,TREATMENT,2024-05-22,106
MS200095-0022-VISION,DA,MS200095-0022-VISION-DEU_SITE01-0009,124,RETAMT,Returned Amount,0.1,TABLET,0.1,0.1,TABLET,7.0,C6D1,TREATMENT,2024-05-23,107
MS200095-0022-VISION,DA,MS200095-0022-VISION-DEU_SITE01-0009,125,RETAMT,Returned Amount,0.2,TABLET,0.2,0.2,TABLET,7.0,C6D1,TREATMENT,2024-05-24,108
MS200095-0022-VISION,DA,MS200095-0022-VISION-DEU_SITE01-0009,126,RETAMT,Returned Amount,0.1,TABLET,0.1,0.1,TABLET,7.0,C6D1,TREATMENT,2024-05-25,109
MS200095-0022-VISION,DA,MS200095-0022-VISION-DEU_SITE01-0009,127,DISPAMT,Dispensed Amount,1,TABLET,1,1.0,TABLET,8.0,,TREATMENT,2024-02-14,8
MS200095-0022-VISION,DA,MS200095-0022-VISION-DEU_SITE01-0009,128,DISPAMT,Dispensed Amount,1,TABLET,1,1.0,TABLET,8.0,C8D1,TREATMENT,2024-06-30,145
MS200095-0022-VISION,DA,MS200095-0022-VISION-DEU_SITE01-0009,129,DISPAMT,Dispensed Amount,1,TABLET,1,1.0,TABLET,8.0,C8D1,TREATMENT,2024-07-01,146
MS200095-0022-VISION,DA,MS200095-0022-VISION-DEU_SITE01-0009,130,DISPAMT,Dispensed Amount,1,TABLET,1,1.0,TABLET,8.0,C8D1,TREATMENT,2024-07-02,147
MS200095-0022-VISION,DA,MS200095-0022-VISION-DEU_SITE01-0009,131,DISPAMT,Dispensed Amount,1,TABLET,1,1.0,TABLET,8.0,C8D1,TREATMENT,2024-07-03,148
MS200095-0022-VISION,DA,MS200095-0022-VISION-DEU_SITE01-0009,132,DISPAMT,Dispensed Amount,1,TABLET,1,1.0,TABLET,8.0,C8D1,TREATMENT,2024-07-04,149
MS200095-0022-VISION,DA,MS200095-0022-VISION-DEU_SITE01-0009,133,DISPAMT,Dispensed Amount,1,TABLET,1,1.0,TABLET,8.0,C8D1,TREATMENT,2024-07-05,150
MS200095-0022-VISION,DA,MS200095-0022-VISION-DEU_SITE01-0009,134,DISPAMT,Dispensed Amount,1,TABLET,1,1.0,TABLET,8.0,C8D1,TREATMENT,2024-07-06,151
MS200095-0022-VISION,DA,MS200095-0022-VISION-DEU_SITE01-0009,135,REMAMT,Remaining Amount,0.1,TABLET,0.1,0.1,TABLET,8.0,,TREATMENT,2024-02-14,8
MS200095-0022-VISION,DA,MS200095-0022-VISION-DEU_SITE01-0009,136,REMAMT,Remaining Amount,0.0,TABLET,0.0,0.0,TABLET,8.0,C8D1,TREATMENT,2024-06-30,145
MS200095-0022-VISION,DA,MS200095-0022-VISION-DEU_SITE01-0009,137,REMAMT,Remaining Amount,0.1,TABLET,0.1,0.1,TABLET,8.0,C8D1,TREATMENT,2024-07-01,146
MS200095-0022-VISION,DA,MS200095-0022-VISION-DEU_SITE01-0009,138,REMAMT,Remaining Amount,0.1,TABLET,0.1,0.1,TABLET,8.0,C8D1,TREATMENT,2024-07-02,147
MS200095-0022-VISION,DA,MS200095-0022-VISION-DEU_SITE01-0009,139,REMAMT,Remaining Amount,0.1,TABLET,0.1,0.1,TABLET,8.0,C8D1,TREATMENT,2024-07-03,148
MS200095-0022-VISION,DA,MS200095-0022-VISION-DEU_SITE01-0009,140,REMAMT,Remaining Amount,0.1,TABLET,0.1,0.1,TABLET,8.0,C8D1,TREATMENT,2024-07-04,149
MS200095-0022-VISION,DA,MS200095-0022-VISION-DEU_SITE01-0009,141,REMAMT,Remaining Amount,0.1,TABLET,0.1,0.1,TABLET,8.0,C8D1,TREATMENT,2024-07-05,150
MS200095-0022-VISION,DA,MS200095-0022-VISION-DEU_SITE01-0009,142,REMAMT,Remaining Amount,0.2,TABLET,0.2,0.2,TABLET,8.0,C8D1,TREATMENT,2024-07-06,151
MS200095-0022-VISION,DA,MS200095-0022-VISION-DEU_SITE01-0009,143,RETAMT,Returned Amount,0.1,TABLET,0.1,0.1,TABLET,8.0,,TREATMENT,2024-02-14,8
MS200095-0022-VISION,DA,MS200095-0022-VISION-DEU_SITE01-0009,144,RETAMT,Returned Amount,0.0,TABLET,0.0,0.0,TABLET,8.0,C8D1,TREATMENT,2024-06-30,145
MS200095-0022-VISION,DA,MS200095-0022-VISION-DEU_SITE01-0009,145,RETAMT,Returned Amount,0.1,TABLET,0.1,0.1,TABLET,8.0,C8D1,TREATMENT,2024-07-01,146
MS200095-0022-VISION,DA,MS200095-0022-VISION-DEU_SITE01-0009,146,RETAMT,Returned Amount,0.1,TABLET,0.1,0.1,TABLET,8.0,C8D1,TREATMENT,2024-07-02,147
MS200095-0022-VISION,DA,MS200095-0022-VISION-DEU_SITE01-0009,147,RETAMT,Returned Amount,0.1,TABLET,0.1,0.1,TABLET,8.0,C8D1,TREATMENT,2024-07-03,148
MS200095-0022-VISION,DA,MS200095-0022-VISION-DEU_SITE01-0009,148,RETAMT,Returned Amount,0.1,TABLET,0.1,0.1,TABLET,8.0,C8D1,TREATMENT,2024-07-04,149
MS200095-0022-VISION,DA,MS200095-0022-VISION-DEU_SITE01-0009,149,RETAMT,Returned Amount,0.1,TABLET,0.1,0.1,TABLET,8.0,C8D1,TREATMENT,2024-07-05,150
MS200095-0022-VISION,DA,MS200095-0022-VISION-DEU_SITE01-0009,150,RETAMT,Returned Amount,0.2,TABLET,0.2,0.2,TABLET,8.0,C8D1,TREATMENT,2024-07-06,151
MS200095-0022-VISION,DA,MS200095-0022-VISION-DEU_SITE01-0009,151,DISPAMT,Dispensed Amount,1,TABLET,1,1.0,TABLET,9.0,,TREATMENT,2024-02-15,9
MS200095-0022-VISION,DA,MS200095-0022-VISION-DEU_SITE01-0009,152,DISPAMT,Dispensed Amount,1,TABLET,1,1.0,TABLET,9.0,C12D1,TREATMENT,2024-09-22,229
MS200095-0022-VISION,DA,MS200095-0022-VISION-DEU_SITE01-0009,153,DISPAMT,Dispensed Amount,1,TABLET,1,1.0,TABLET,9.0,C12D1,TREATMENT,2024-09-23,230
MS200095-0022-VISION,DA,MS200095-0022-VISION-DEU_SITE01-0009,154,DISPAMT,Dispensed Amount,1,TABLET,1,1.0,TABLET,9.0,C12D1,TREATMENT,2024-09-24,231
MS200095-0022-VISION,DA,MS200095-0022-VISION-DEU_SITE01-0009,155,DISPAMT,Dispensed Amount,1,TABLET,1,1.0,TABLET,9.0,C12D1,TREATMENT,2024-09-25,232
MS200095-0022-VISION,DA,MS200095-0022-VISION-DEU_SITE01-0009,156,DISPAMT,Dispensed Amount,1,TABLET,1,1.0,TABLET,9.0,C12D1,TREATMENT,2024-09-26,233
MS200095-0022-VISION,DA,MS200095-0022-VISION-DEU_SITE01-0009,157,DISPAMT,Dispensed Amount,1,TABLET,1,1.0,TABLET,9.0,C12D1,TREATMENT,2024-09-27,234
MS200095-0022-VISION,DA,MS200095-0022-VISION-DEU_SITE01-0009,158,DISPAMT,Dispensed Amount,1,TABLET,1,1.0,TABLET,9.0,C12D1,TREATMENT,2024-09-28,235
MS200095-0022-VISION,DA,MS200095-0022-VISION-DEU_SITE01-0009,159,REMAMT,Remaining Amount,0.1,TABLET,0.1,0.1,TABLET,9.0,,TREATMENT,2024-02-15,9
MS200095-0022-VISION,DA,MS200095-0022-VISION-DEU_SITE01-0009,160,REMAMT,Remaining Amount,0.2,TABLET,0.2,0.2,TABLET,9.0,C12D1,TREATMENT,2024-09-22,229
MS200095-0022-VISION,DA,MS200095-0022-VISION-DEU_SITE01-0009,161,REMAMT,Remaining Amount,0.0,TABLET,0.0,0.0,TABLET,9.0,C12D1,TREATMENT,2024-09-23,230
MS200095-0022-VISION,DA,MS200095-0022-VISION-DEU_SITE01-0009,162,REMAMT,Remaining Amount,0.1,TABLET,0.1,0.1,TABLET,9.0,C12D1,TREATMENT,2024-09-24,231
MS200095-0022-VISION,DA,MS200095-0022-VISION-DEU_SITE01-0009,163,REMAMT,Remaining Amount,0.1,TABLET,0.1,0.1,TABLET,9.0,C12D1,TREATMENT,2024-09-25,232
MS200095-0022-VISION,DA,MS200095-0022-VISION-DEU_SITE01-0009,164,REMAMT,Remaining Amount,0.1,TABLET,0.1,0.1,TABLET,9.0,C12D1,TREATMENT,2024-09-26,233
MS200095-0022-VISION,DA,MS200095-0022-VISION-DEU_SITE01-0009,165,REMAMT,Remaining Amount,0.1,TABLET,0.1,0.1,TABLET,9.0,C12D1,TREATMENT,2024-09-27,234
MS200095-0022-VISION,DA,MS200095-0022-VISION-DEU_SITE01-0009,166,REMAMT,Remaining Amount,0.0,TABLET,0.0,0.0,TABLET,9.0,C12D1,TREATMENT,2024-09-28,235
MS200095-0022-VISION,DA,MS200095-0022-VISION-DEU_SITE01-0009,167,RETAMT,Returned Amount,0.1,TABLET,0.1,0.1,TABLET,9.0,,TREATMENT,2024-02-15,9
MS200095-0022-VISION,DA,MS200095-0022-VISION-DEU_SITE01-0009,168,RETAMT,Returned Amount,0.2,TABLET,0.2,0.2,TABLET,9.0,C12D1,TREATMENT,2024-09-22,229
MS200095-0022-VISION,DA,MS200095-0022-VISION-DEU_SITE01-0009,169,RETAMT,Returned Amount,0.0,TABLET,0.0,0.0,TABLET,9.0,C12D1,TREATMENT,2024-09-23,230
MS200095-0022-VISION,DA,MS200095-0022-VISION-DEU_SITE01-0009,170,RETAMT,Returned Amount,0.1,TABLET,0.1,0.1,TABLET,9.0,C12D1,TREATMENT,2024-09-24,231
MS200095-0022-VISION,DA,MS200095-0022-VISION-DEU_SITE01-0009,171,RETAMT,Returned Amount,0.1,TABLET,0.1,0.1,TABLET,9.0,C12D1,TREATMENT,2024-09-25,232
MS200095-0022-VISION,DA,MS200095-0022-VISION-DEU_SITE01-0009,172,RETAMT,Returned Amount,0.1,TABLET,0.1,0.1,TABLET,9.0,C12D1,TREATMENT,2024-09-26,233
MS200095-0022-VISION,DA,MS200095-0022-VISION-DEU_SITE01-0009,173,RETAMT,Returned Amount,0.1,TABLET,0.1,0.1,TABLET,9.0,C12D1,TREATMENT,2024-09-27,234
MS200095-0022-VISION,DA,MS200095-0022-VISION-DEU_SITE01-0009,174,RETAMT,Returned Amount,0.0,TABLET,0.0,0.0,TABLET,9.0,C12D1,TREATMENT,2024-09-28,235
MS200095-0022-VISION,DA,MS200095-0022-VISION-DEU_SITE01-0009,175,DISPAMT,Dispensed Amount,1,TABLET,1,1.0,TABLET,10.0,,TREATMENT,2024-02-16,10
MS200095-0022-VISION,DA,MS200095-0022-VISION-DEU_SITE01-0009,176,DISPAMT,Dispensed Amount,1,TABLET,1,1.0,TABLET,10.0,C18D1,TREATMENT,2025-01-26,355
MS200095-0022-VISION,DA,MS200095-0022-VISION-DEU_SITE01-0009,177,DISPAMT,Dispensed Amount,1,TABLET,1,1.0,TABLET,10.0,C18D1,TREATMENT,2025-01-27,356
MS200095-0022-VISION,DA,MS200095-0022-VISION-DEU_SITE01-0009,178,DISPAMT,Dispensed Amount,1,TABLET,1,1.0,TABLET,10.0,C18D1,TREATMENT,2025-01-28,357
MS200095-0022-VISION,DA,MS200095-0022-VISION-DEU_SITE01-0009,179,DISPAMT,Dispensed Amount,1,TABLET,1,1.0,TABLET,10.0,C18D1,TREATMENT,2025-01-29,358
MS200095-0022-VISION,DA,MS200095-0022-VISION-DEU_SITE01-0009,180,DISPAMT,Dispensed Amount,1,TABLET,1,1.0,TABLET,10.0,C18D1,TREATMENT,2025-01-30,359
MS200095-0022-VISION,DA,MS200095-0022-VISION-DEU_SITE01-0009,181,DISPAMT,Dispensed Amount,1,TABLET,1,1.0,TABLET,10.0,C18D1,TREATMENT,2025-01-31,360
MS200095-0022-VISION,DA,MS200095-0022-VISION-DEU_SITE01-0009,182,DISPAMT,Dispensed Amount,1,TABLET,1,1.0,TABLET,10.0,C18D1,TREATMENT,2025-02-01,361
MS200095-0022-VISION,DA,MS200095-0022-VISION-DEU_SITE01-0009,183,REMAMT,Remaining Amount,0.1,TABLET,0.1,0.1,TABLET,10.0,,TREATMENT,2024-02-16,10
MS200095-0022-VISION,DA,MS200095-0022-VISION-DEU_SITE01-0009,184,REMAMT,Remaining Amount,0.0,TABLET,0.0,0.0,TABLET,10.0,C18D1,TREATMENT,2025-01-26,355
MS200095-0022-VISION,DA,MS200095-0022-VISION-DEU_SITE01-0009,185,REMAMT,Remaining Amount,0.1,TABLET,0.1,0.1,TABLET,10.0,C18D1,TREATMENT,2025-01-27,356
MS200095-0022-VISION,DA,MS200095-0022-VISION-DEU_SITE01-0009,186,REMAMT,Remaining Amount,0.1,TABLET,0.1,0.1,TABLET,10.0,C18D1,TREATMENT,2025-01-28,357
MS200095-0022-VISION,DA,MS200095-0022-VISION-DEU_SITE01-0009,187,REMAMT,Remaining Amount,0.1,TABLET,0.1,0.1,TABLET,10.0,C18D1,TREATMENT,2025-01-29,358
MS200095-0022-VISION,DA,MS200095-0022-VISION-DEU_SITE01-0009,188,REMAMT,Remaining Amount,0.0,TABLET,0.0,0.0,TABLET,10.0,C18D1,TREATMENT,2025-01-30,359
MS200095-0022-VISION,DA,MS200095-0022-VISION-DEU_SITE01-0009,189,REMAMT,Remaining Amount,0.0,TABLET,0.0,0.0,TABLET,10.0,C18D1,TREATMENT,2025-01-31,360
MS200095-0022-VISION,DA,MS200095-0022-VISION-DEU_SITE01-0009,190,REMAMT,Remaining Amount,0.1,TABLET,0.1,0.1,TABLET,10.0,C18D1,TREATMENT,2025-02-01,361
MS200095-0022-VISION,DA,MS200095-0022-VISION-DEU_SITE01-0009,191,RETAMT,Returned Amount,0.1,TABLET,0.1,0.1,TABLET,10.0,,TREATMENT,2024-02-16,10
MS200095-0022-VISION,DA,MS200095-0022-VISION-DEU_SITE01-0009,192,RETAMT,Returned Amount,0.0,TABLET,0.0,0.0,TABLET,10.0,C18D1,TREATMENT,2025-01-26,355
MS200095-0022-VISION,DA,MS200095-0022-VISION-DEU_SITE01-0009,193,RETAMT,Returned Amount,0.1,TABLET,0.1,0.1,TABLET,10.0,C18D1,TREATMENT,2025-01-27,356
MS200095-0022-VISION,DA,MS200095-0022-VISION-DEU_SITE01-0009,194,RETAMT,Returned Amount,0.1,TABLET,0.1,0.1,TABLET,10.0,C18D1,TREATMENT,2025-01-28,357
MS200095-0022-VISION,DA,MS200095-0022-VISION-DEU_SITE01-0009,195,RETAMT,Returned Amount,0.1,TABLET,0.1,0.1,TABLET,10.0,C18D1,TREATMENT,2025-01-29,358
MS200095-0022-VISION,DA,MS200095-0022-VISION-DEU_SITE01-0009,196,RETAMT,Returned Amount,0.0,TABLET,0.0,0.0,TABLET,10.0,C18D1,TREATMENT,2025-01-30,359
MS200095-0022-VISION,DA,MS200095-0022-VISION-DEU_SITE01-0009,197,RETAMT,Returned Amount,0.0,TABLET,0.0,0.0,TABLET,10.0,C18D1,TREATMENT,2025-01-31,360
MS200095-0022-VISION,DA,MS200095-0022-VISION-DEU_SITE01-0009,198,RETAMT,Returned Amount,0.1,TABLET,0.1,0.1,TABLET,10.0,C18D1,TREATMENT,2025-02-01,361
MS200095-0022-VISION,DA,MS200095-0022-VISION-DEU_SITE01-0009,199,DISPAMT,Dispensed Amount,1,TABLET,1,1.0,TABLET,11.0,,TREATMENT,2024-02-17,11
MS200095-0022-VISION,DA,MS200095-0022-VISION-DEU_SITE01-0009,200,REMAMT,Remaining Amount,0.0,TABLET,0.0,0.0,TABLET,11.0,,TREATMENT,2024-02-17,11
MS200095-0022-VISION,DA,MS200095-0022-VISION-DEU_SITE01-0009,201,RETAMT,Returned Amount,0.0,TABLET,0.0,0.0,TABLET,11.0,,TREATMENT,2024-02-17,11
MS200095-0022-VISION,DA,MS200095-0022-VISION-DEU_SITE01-0009,202,DISPAMT,Dispensed Amount,1,TABLET,1,1.0,TABLET,26.0,,TREATMENT,2024-03-03,26
MS200095-0022-VISION,DA,MS200095-0022-VISION-DEU_SITE01-0009,203,REMAMT,Remaining Amount,0.0,TABLET,0.0,0.0,TABLET,26.0,,TREATMENT,2024-03-03,26
MS200095-0022-VISION,DA,MS200095-0022-VISION-DEU_SITE01-0009,204,RETAMT,Returned Amount,0.0,TABLET,0.0,0.0,TABLET,26.0,,TREATMENT,2024-03-03,26
MS200095-0022-VISION,DA,MS200095-0022-VISION-DEU_SITE01-0009,205,DISPAMT,Dispensed Amount,1,TABLET,1,1.0,TABLET,27.0,,TREATMENT,2024-03-04,27
MS200095-0022-VISION,DA,MS200095-0022-VISION-DEU_SITE01-0009,206,REMAMT,Remaining Amount,0.1,TABLET,0.1,0.1,TABLET,27.0,,TREATMENT,2024-03-04,27
MS200095-0022-VISION,DA,MS200095-0022-VISION-DEU_SITE01-0009,207,RETAMT,Returned Amount,0.1,TABLET,0.1,0.1,TABLET,27.0,,TREATMENT,2024-03-04,27
MS200095-0022-VISION,DA,MS200095-0022-VISION-DEU_SITE01-0009,208,DISPAMT,Dispensed Amount,1,TABLET,1,1.0,TABLET,28.0,,TREATMENT,2024-03-05,28
MS200095-0022-VISION,DA,MS200095-0022-VISION-DEU_SITE01-0009,209,REMAMT,Remaining Amount,0.0,TABLET,0.0,0.0,TABLET,28.0,,TREATMENT,2024-03-05,28
MS200095-0022-VISION,DA,MS200095-0022-VISION-DEU_SITE01-0009,210,RETAMT,Returned Amount,0.0,TABLET,0.0,0.0,TABLET,28.0,,TREATMENT,2024-03-05,28
MS200095-0022-VISION,DA,MS200095-0022-VISION-DEU_SITE01-0009,211,DISPAMT,Dispensed Amount,1,TABLET,1,1.0,TABLET,29.0,,TREATMENT,2024-03-06,29
MS200095-0022-VISION,DA,MS200095-0022-VISION-DEU_SITE01-0009,212,REMAMT,Remaining Amount,0.1,TABLET,0.1,0.1,TABLET,29.0,,TREATMENT,2024-03-06,29
MS200095-0022-VISION,DA,MS200095-0022-VISION-DEU_SITE01-0009,213,RETAMT,Returned Amount,0.1,TABLET,0.1,0.1,TABLET,29.0,,TREATMENT,2024-03-06,29
MS200095-0022-VISION,DA,MS200095-0022-VISION-DEU_SITE01-0009,214,DISPAMT,Dispensed Amount,1,TABLET,1,1.0,TABLET,30.0,,TREATMENT,2024-03-07,30
MS200095-0022-VISION,DA,MS200095-0022-VISION-DEU_SITE01-0009,215,REMAMT,Remaining Amount,0.1,TABLET,0.1,0.1,TABLET,30.0,,TREATMENT,2024-03-07,30
MS200095-0022-VISION,DA,MS200095-0022-VISION-DEU_SITE01-0009,216,RETAMT,Returned Amount,0.1,TABLET,0.1,0.1,TABLET,30.0,,TREATMENT,2024-03-07,30
MS200095-0022-VISION,DA,MS200095-0022-VISION-DEU_SITE01-0009,217,DISPAMT,Dispensed Amount,1,TABLET,1,1.0,TABLET,31.0,,TREATMENT,2024-03-08,31
MS200095-0022-VISION,DA,MS200095-0022-VISION-DEU_SITE01-0009,218,REMAMT,Remaining Amount,0.1,TABLET,0.1,0.1,TABLET,31.0,,TREATMENT,2024-03-08,31
MS200095-0022-VISION,DA,MS200095-0022-VISION-DEU_SITE01-0009,219,RETAMT,Returned Amount,0.1,TABLET,0.1,0.1,TABLET,31.0,,TREATMENT,2024-03-08,31
MS200095-0022-VISION,DA,MS200095-0022-VISION-DEU_SITE01-0009,220,DISPAMT,Dispensed Amount,1,TABLET,1,1.0,TABLET,32.0,,TREATMENT,2024-03-09,32
MS200095-0022-VISION,DA,MS200095-0022-VISION-DEU_SITE01-0009,221,REMAMT,Remaining Amount,0.0,TABLET,0.0,0.0,TABLET,32.0,,TREATMENT,2024-03-09,32
MS200095-0022-VISION,DA,MS200095-0022-VISION-DEU_SITE01-0009,222,RETAMT,Returned Amount,0.0,TABLET,0.0,0.0,TABLET,32.0,,TREATMENT,2024-03-09,32
MS200095-0022-VISION,DA,MS200095-0022-VISION-DEU_SITE01-0009,223,DISPAMT,Dispensed Amount,1,TABLET,1,1.0,TABLET,33.0,,TREATMENT,2024-03-10,33
MS200095-0022-VISION,DA,MS200095-0022-VISION-DEU_SITE01-0009,224,REMAMT,Remaining Amount,0.0,TABLET,0.0,0.0,TABLET,33.0,,TREATMENT,2024-03-10,33
MS200095-0022-VISION,DA,MS200095-0022-VISION-DEU_SITE01-0009,225,RETAMT,Returned Amount,0.0,TABLET,0.0,0.0,TABLET,33.0,,TREATMENT,2024-03-10,33
MS200095-0022-VISION,DA,MS200095-0022-VISION-DEU_SITE01-0009,226,DISPAMT,Dispensed Amount,1,TABLET,1,1.0,TABLET,34.0,,TREATMENT,2024-03-11,34
MS200095-0022-VISION,DA,MS200095-0022-VISION-DEU_SITE01-0009,227,REMAMT,Remaining Amount,0.0,TABLET,0.0,0.0,TABLET,34.0,,TREATMENT,2024-03-11,34
MS200095-0022-VISION,DA,MS200095-0022-VISION-DEU_SITE01-0009,228,RETAMT,Returned Amount,0.0,TABLET,0.0,0.0,TABLET,34.0,,TREATMENT,2024-03-11,34
MS200095-0022-VISION,DA,MS200095-0022-VISION-DEU_SITE01-0009,229,DISPAMT,Dispensed Amount,1,TABLET,1,1.0,TABLET,35.0,,TREATMENT,2024-03-12,35
MS200095-0022-VISION,DA,MS200095-0022-VISION-DEU_SITE01-0009,230,REMAMT,Remaining Amount,0.0,TABLET,0.0,0.0,TABLET,35.0,,TREATMENT,2024-03-12,35
MS200095-0022-VISION,DA,MS200095-0022-VISION-DEU_SITE01-0009,231,RETAMT,Returned Amount,0.0,TABLET,0.0,0.0,TABLET,35.0,,TREATMENT,2024-03-12,35
MS200095-0022-VISION,DA,MS200095-0022-VISION-DEU_SITE01-0009,232,DISPAMT,Dispensed Amount,1,TABLET,1,1.0,TABLET,36.0,,TREATMENT,2024-03-13,36
MS200095-0022-VISION,DA,MS200095-0022-VISION-DEU_SITE01-0009,233,REMAMT,Remaining Amount,0.0,TABLET,0.0,0.0,TABLET,36.0,,TREATMENT,2024-03-13,36
MS200095-0022-VISION,DA,MS200095-0022-VISION-DEU_SITE01-0009,234,RETAMT,Returned Amount,0.0,TABLET,0.0,0.0,TABLET,36.0,,TREATMENT,2024-03-13,36
MS200095-0022-VISION,DA,MS200095-0022-VISION-DEU_SITE01-0009,235,DISPAMT,Dispensed Amount,1,TABLET,1,1.0,TABLET,37.0,,TREATMENT,2024-03-14,37
MS200095-0022-VISION,DA,MS200095-0022-VISION-DEU_SITE01-0009,236,REMAMT,Remaining Amount,0.1,TABLET,0.1,0.1,TABLET,37.0,,TREATMENT,2024-03-14,37
MS200095-0022-VISION,DA,MS200095-0022-VISION-DEU_SITE01-0009,237,RETAMT,Returned Amount,0.1,TABLET,0.1,0.1,TABLET,37.0,,TREATMENT,2024-03-14,37
MS200095-0022-VISION,DA,MS200095-0022-VISION-DEU_SITE01-0009,238,DISPAMT,Dispensed Amount,1,TABLET,1,1.0,TABLET,38.0,,TREATMENT,2024-03-15,38
MS200095-0022-VISION,DA,MS200095-0022-VISION-DEU_SITE01-0009,239,REMAMT,Remaining Amount,0.1,TABLET,0.1,0.1,TABLET,38.0,,TREATMENT,2024-03-15,38
MS200095-0022-VISION,DA,MS200095-0022-VISION-DEU_SITE01-0009,240,RETAMT,Returned Amount,0.1,TABLET,0.1,0.1,TABLET,38.0,,TREATMENT,2024-03-15,38
MS200095-0022-VISION,DA,MS200095-0022-VISION-DEU_SITE01-0009,241,DISPAMT,Dispensed Amount,1,TABLET,1,1.0,TABLET,39.0,,TREATMENT,2024-03-16,39
MS200095-0022-VISION,DA,MS200095-0022-VISION-DEU_SITE01-0009,242,REMAMT,Remaining Amount,0.2,TABLET,0.2,0.2,TABLET,39.0,,TREATMENT,2024-03-16,39
MS200095-0022-VISION,DA,MS200095-0022-VISION-DEU_SITE01-0009,243,RETAMT,Returned Amount,0.2,TABLET,0.2,0.2,TABLET,39.0,,TREATMENT,2024-03-16,39
MS200095-0022-VISION,DA,MS200095-0022-VISION-DEU_SITE01-0009,244,DISPAMT,Dispensed Amount,1,TABLET,1,1.0,TABLET,47.0,,TREATMENT,2024-03-24,47
MS200095-0022-VISION,DA,MS200095-0022-VISION-DEU_SITE01-0009,245,REMAMT,Remaining Amount,0.1,TABLET,0.1,0.1,TABLET,47.0,,TREATMENT,2024-03-24,47
MS200095-0022-VISION,DA,MS200095-0022-VISION-DEU_SITE01-0009,246,RETAMT,Returned Amount,0.1,TABLET,0.1,0.1,TABLET,47.0,,TREATMENT,2024-03-24,47
MS200095-0022-VISION,DA,MS200095-0022-VISION-DEU_SITE01-0009,247,DISPAMT,Dispensed Amount,1,TABLET,1,1.0,TABLET,48.0,,TREATMENT,2024-03-25,48
MS200095-0022-VISION,DA,MS200095-0022-VISION-DEU_SITE01-0009,248,REMAMT,Remaining Amount,0.1,TABLET,0.1,0.1,TABLET,48.0,,TREATMENT,2024-03-25,48
MS200095-0022-VISION,DA,MS200095-0022-VISION-DEU_SITE01-0009,249,RETAMT,Returned Amount,0.1,TABLET,0.1,0.1,TABLET,48.0,,TREATMENT,2024-03-25,48
MS200095-0022-VISION,DA,MS200095-0022-VISION-DEU_SITE01-0009,250,DISPAMT,Dispensed Amount,1,TABLET,1,1.0,TABLET,49.0,,TREATMENT,2024-03-26,49
MS200095-0022-VISION,DA,MS200095-0022-VISION-DEU_SITE01-0009,251,REMAMT,Remaining Amount,0.2,TABLET,0.2,0.2,TABLET,49.0,,TREATMENT,2024-03-26,49
MS200095-0022-VISION,DA,MS200095-0022-VISION-DEU_SITE01-0009,252,RETAMT,Returned Amount,0.2,TABLET,0.2,0.2,TABLET,49.0,,TREATMENT,2024-03-26,49
MS200095-0022-VISION,DA,MS200095-0022-VISION-DEU_SITE01-0009,253,DISPAMT,Dispensed Amount,1,TABLET,1,1.0,TABLET,50.0,,TREATMENT,2024-03-27,50
MS200095-0022-VISION,DA,MS200095-0022-VISION-DEU_SITE01-0009,254,REMAMT,Remaining Amount,0.1,TABLET,0.1,0.1,TABLET,50.0,,TREATMENT,2024-03-27,50
MS200095-0022-VISION,DA,MS200095-0022-VISION-DEU_SITE01-0009,255,RETAMT,Returned Amount,0.1,TABLET,0.1,0.1,TABLET,50.0,,TREATMENT,2024-03-27,50
MS200095-0022-VISION,DA,MS200095-0022-VISION-DEU_SITE01-0009,256,DISPAMT,Dispensed Amount,1,TABLET,1,1.0,TABLET,51.0,,TREATMENT,2024-03-28,51
MS200095-0022-VISION,DA,MS200095-0022-VISION-DEU_SITE01-0009,257,REMAMT,Remaining Amount,0.1,TABLET,0.1,0.1,TABLET,51.0,,TREATMENT,2024-03-28,51
MS200095-0022-VISION,DA,MS200095-0022-VISION-DEU_SITE01-0009,258,RETAMT,Returned Amount,0.1,TABLET,0.1,0.1,TABLET,51.0,,TREATMENT,2024-03-28,51
MS200095-0022-VISION,DA,MS200095-0022-VISION-DEU_SITE01-0009,259,DISPAMT,Dispensed Amount,1,TABLET,1,1.0,TABLET,52.0,,TREATMENT,2024-03-29,52
MS200095-0022-VISION,DA,MS200095-0022-VISION-DEU_SITE01-0009,260,REMAMT,Remaining Amount,0.1,TABLET,0.1,0.1,TABLET,52.0,,TREATMENT,2024-03-29,52
MS200095-0022-VISION,DA,MS200095-0022-VISION-DEU_SITE01-0009,261,RETAMT,Returned Amount,0.1,TABLET,0.1,0.1,TABLET,52.0,,TREATMENT,2024-03-29,52
MS200095-0022-VISION,DA,MS200095-0022-VISION-DEU_SITE01-0009,262,DISPAMT,Dispensed Amount,1,TABLET,1,1.0,TABLET,53.0,,TREATMENT,2024-03-30,53
MS200095-0022-VISION,DA,MS200095-0022-VISION-DEU_SITE01-0009,263,REMAMT,Remaining Amount,0.1,TABLET,0.1,0.1,TABLET,53.0,,TREATMENT,2024-03-30,53
MS200095-0022-VISION,DA,MS200095-0022-VISION-DEU_SITE01-0009,264,RETAMT,Returned Amount,0.1,TABLET,0.1,0.1,TABLET,53.0,,TREATMENT,2024-03-30,53
MS200095-0022-VISION,DA,MS200095-0022-VISION-DEU_SITE01-0009,265,DISPAMT,Dispensed Amount,1,TABLET,1,1.0,TABLET,54.0,,TREATMENT,2024-03-31,54
MS200095-0022-VISION,DA,MS200095-0022-VISION-DEU_SITE01-0009,266,REMAMT,Remaining Amount,1,TABLET,1,1.0,TABLET,54.0,,TREATMENT,2024-03-31,54
MS200095-0022-VISION,DA,MS200095-0022-VISION-DEU_SITE01-0009,267,RETAMT,Returned Amount,1,TABLET,1,1.0,TABLET,54.0,,TREATMENT,2024-03-31,54
MS200095-0022-VISION,DA,MS200095-0022-VISION-DEU_SITE01-0009,268,DISPAMT,Dispensed Amount,1,TABLET,1,1.0,TABLET,55.0,,TREATMENT,2024-04-01,55
MS200095-0022-VISION,DA,MS200095-0022-VISION-DEU_SITE01-0009,269,REMAMT,Remaining Amount,0.1,TABLET,0.1,0.1,TABLET,55.0,,TREATMENT,2024-04-01,55
MS200095-0022-VISION,DA,MS200095-0022-VISION-DEU_SITE01-0009,270,RETAMT,Returned Amount,0.1,TABLET,0.1,0.1,TABLET,55.0,,TREATMENT,2024-04-01,55
MS200095-0022-VISION,DA,MS200095-0022-VISION-DEU_SITE01-0009,271,DISPAMT,Dispensed Amount,1,TABLET,1,1.0,TABLET,56.0,,TREATMENT,2024-04-02,56
MS200095-0022-VISION,DA,MS200095-0022-VISION-DEU_SITE01-0009,272,REMAMT,Remaining Amount,0.1,TABLET,0.1,0.1,TABLET,56.0,,TREATMENT,2024-04-02,56
MS200095-0022-VISION,DA,MS200095-0022-VISION-DEU_SITE01-0009,273,RETAMT,Returned Amount,0.1,TABLET,0.1,0.1,TABLET,56.0,,TREATMENT,2024-04-02,56
MS200095-0022-VISION,DA,MS200095-0022-VISION-DEU_SITE01-0009,274,DISPAMT,Dispensed Amount,1,TABLET,1,1.0,TABLET,57.0,,TREATMENT,2024-04-03,57
MS200095-0022-VISION,DA,MS200095-0022-VISION-DEU_SITE01-0009,275,REMAMT,Remaining Amount,0.1,TABLET,0.1,0.1,TABLET,57.0,,TREATMENT,2024-04-03,57
MS200095-0022-VISION,DA,MS200095-0022-VISION-DEU_SITE01-0009,276,RETAMT,Returned Amount,0.1,TABLET,0.1,0.1,TABLET,57.0,,TREATMENT,2024-04-03,57
MS200095-0022-VISION,DA,MS200095-0022-VISION-DEU_SITE01-0009,277,DISPAMT,Dispensed Amount,1,TABLET,1,1.0,TABLET,58.0,,TREATMENT,2024-04-04,58
MS200095-0022-VISION,DA,MS200095-0022-VISION-DEU_SITE01-0009,278,REMAMT,Remaining Amount,0.2,TABLET,0.2,0.2,TABLET,58.0,,TREATMENT,2024-04-04,58
MS200095-0022-VISION,DA,MS200095-0022-VISION-DEU_SITE01-0009,279,RETAMT,Returned Amount,0.2,TABLET,0.2,0.2,TABLET,58.0,,TREATMENT,2024-04-04,58
MS200095-0022-VISION,DA,MS200095-0022-VISION-DEU_SITE01-0009,280,DISPAMT,Dispensed Amount,1,TABLET,1,1.0,TABLET,59.0,,TREATMENT,2024-04-05,59
MS200095-0022-VISION,DA,MS200095-0022-VISION-DEU_SITE01-0009,281,REMAMT,Remaining Amount,0.1,TABLET,0.1,0.1,TABLET,59.0,,TREATMENT,2024-04-05,59
MS200095-0022-VISION,DA,MS200095-0022-VISION-DEU_SITE01-0009,282,RETAMT,Returned Amount,0.1,TABLET,0.1,0.1,TABLET,59.0,,TREATMENT,2024-04-05,59
MS200095-0022-VISION,DA,MS200095-0022-VISION-DEU_SITE01-0009,283,DISPAMT,Dispensed Amount,1,TABLET,1,1.0,TABLET,60.0,,TREATMENT,2024-04-06,60
MS200095-0022-VISION,DA,MS200095-0022-VISION-DEU_SITE01-0009,284,REMAMT,Remaining Amount,0.1,TABLET,0.1,0.1,TABLET,60.0,,TREATMENT,2024-04-06,60
MS200095-0022-VISION,DA,MS200095-0022-VISION-DEU_SITE01-0009,285,RETAMT,Returned Amount,0.1,TABLET,0.1,0.1,TABLET,60.0,,TREATMENT,2024-04-06,60
MS200095-0022-VISION,DA,MS200095-0022-VISION-DEU_SITE01-0009,286,DISPAMT,Dispensed Amount,1,TABLET,1,1.0,TABLET,68.0,,TREATMENT,2024-04-14,68
MS200095-0022-VISION,DA,MS200095-0022-VISION-DEU_SITE01-0009,287,REMAMT,Remaining Amount,0.1,TABLET,0.1,0.1,TABLET,68.0,,TREATMENT,2024-04-14,68
MS200095-0022-VISION,DA,MS200095-0022-VISION-DEU_SITE01-0009,288,RETAMT,Returned Amount,0.1,TABLET,0.1,0.1,TABLET,68.0,,TREATMENT,2024-04-14,68
MS200095-0022-VISION,DA,MS200095-0022-VISION-DEU_SITE01-0009,289,DISPAMT,Dispensed Amount,1,TABLET,1,1.0,TABLET,69.0,,TREATMENT,2024-04-15,69
MS200095-0022-VISION,DA,MS200095-0022-VISION-DEU_SITE01-0009,290,REMAMT,Remaining Amount,0.0,TABLET,0.0,0.0,TABLET,69.0,,TREATMENT,2024-04-15,69
MS200095-0022-VISION,DA,MS200095-0022-VISION-DEU_SITE01-0009,291,RETAMT,Returned Amount,0.0,TABLET,0.0,0.0,TABLET,69.0,,TREATMENT,2024-04-15,69
MS200095-0022-VISION,DA,MS200095-0022-VISION-DEU_SITE01-0009,292,DISPAMT,Dispensed Amount,1,TABLET,1,1.0,TABLET,70.0,,TREATMENT,2024-04-16,70
MS200095-0022-VISION,DA,MS200095-0022-VISION-DEU_SITE01-0009,293,REMAMT,Remaining Amount,0.2,TABLET,0.2,0.2,TABLET,70.0,,TREATMENT,2024-04-16,70
MS200095-0022-VISION,DA,MS200095-0022-VISION-DEU_SITE01-0009,294,RETAMT,Returned Amount,0.2,TABLET,0.2,0.2,TABLET,70.0,,TREATMENT,2024-04-16,70
MS200095-0022-VISION,DA,MS200095-0022-VISION-DEU_SITE01-0009,295,DISPAMT,Dispensed Amount,1,TABLET,1,1.0,TABLET,71.0,,TREATMENT,2024-04-17,71
MS200095-0022-VISION,DA,MS200095-0022-VISION-DEU_SITE01-0009,296,REMAMT,Remaining Amount,0.2,TABLET,0.2,0.2,TABLET,71.0,,TREATMENT,2024-04-17,71
