{
  "generated_at": "2026-07-07T06:19:01.893636",
  "seed": 42,
  "mode": "compound",
  "source_dir": "/tmp/sdtm_uploads_govv8uli",
  "profile": "all",
  "rate": 0.05,
  "density_cap": 5,
  "rules_available": 467,
  "rules_injectable": 1,
  "rules_skipped": 0,
  "rules_injected": 1,
  "total_mutations": 18,
  "skipped_rules": [],
  "errors": [
    {
      "error_id": "INJ-SD1103-SE-001",
      "rule_id": "SD1103",
      "rule_message": "Missing --STTPT variable, when --STRTPT variable is present",
      "category": "VI1 & VV1",
      "primitive": "add_column",
      "domain": "SE",
      "usubjid": null,
      "row_index": null,
      "csv_line": null,
      "seq_value": null,
      "variables_modified": {
        "SESTRTPT": {
          "original": "absent",
          "injected": "ONGOING"
        }
      },
      "re_derived": {},
      "expected_co_violations": [],
      "notes": null,
      "status": "injected",
      "failure_reason": null,
      "clean_row_index": null
    },
    {
      "error_id": "INJ-SD1103-SV-002",
      "rule_id": "SD1103",
      "rule_message": "Missing --STTPT variable, when --STRTPT variable is present",
      "category": "VI1 & VV1",
      "primitive": "add_column",
      "domain": "SV",
      "usubjid": null,
      "row_index": null,
      "csv_line": null,
      "seq_value": null,
      "variables_modified": {
        "SVSTRTPT": {
          "original": "absent",
          "injected": "ONGOING"
        }
      },
      "re_derived": {},
      "expected_co_violations": [],
      "notes": null,
      "status": "injected",
      "failure_reason": null,
      "clean_row_index": null
    },
    {
      "error_id": "INJ-SD1103-CM-003",
      "rule_id": "SD1103",
      "rule_message": "Missing --STTPT variable, when --STRTPT variable is present",
      "category": "VI1 & VV1",
      "primitive": "add_column",
      "domain": "CM",
      "usubjid": null,
      "row_index": null,
      "csv_line": null,
      "seq_value": null,
      "variables_modified": {
        "CMSTRTPT": {
          "original": "absent",
          "injected": "ONGOING"
        }
      },
      "re_derived": {},
      "expected_co_violations": [],
      "notes": null,
      "status": "injected",
      "failure_reason": null,
      "clean_row_index": null
    },
    {
      "error_id": "INJ-SD1103-EC-004",
      "rule_id": "SD1103",
      "rule_message": "Missing --STTPT variable, when --STRTPT variable is present",
      "category": "VI1 & VV1",
      "primitive": "add_column",
      "domain": "EC",
      "usubjid": null,
      "row_index": null,
      "csv_line": null,
      "seq_value": null,
      "variables_modified": {
        "ECSTRTPT": {
          "original": "absent",
          "injected": "ONGOING"
        }
      },
      "re_derived": {},
      "expected_co_violations": [],
      "notes": null,
      "status": "injected",
      "failure_reason": null,
      "clean_row_index": null
    },
    {
      "error_id": "INJ-SD1103-EX-005",
      "rule_id": "SD1103",
      "rule_message": "Missing --STTPT variable, when --STRTPT variable is present",
      "category": "VI1 & VV1",
      "primitive": "add_column",
      "domain": "EX",
      "usubjid": null,
      "row_index": null,
      "csv_line": null,
      "seq_value": null,
      "variables_modified": {
        "EXSTRTPT": {
          "original": "absent",
          "injected": "ONGOING"
        }
      },
      "re_derived": {},
      "expected_co_violations": [],
      "notes": null,
      "status": "injected",
      "failure_reason": null,
      "clean_row_index": null
    },
    {
      "error_id": "INJ-SD1103-SU-006",
      "rule_id": "SD1103",
      "rule_message": "Missing --STTPT variable, when --STRTPT variable is present",
      "category": "VI1 & VV1",
      "primitive": "add_column",
      "domain": "SU",
      "usubjid": null,
      "row_index": null,
      "csv_line": null,
      "seq_value": null,
      "variables_modified": {
        "SUSTRTPT": {
          "original": "absent",
          "injected": "ONGOING"
        }
      },
      "re_derived": {},
      "expected_co_violations": [],
      "notes": null,
      "status": "injected",
      "failure_reason": null,
      "clean_row_index": null
    },
    {
      "error_id": "INJ-SD1103-AE-007",
      "rule_id": "SD1103",
      "rule_message": "Missing --STTPT variable, when --STRTPT variable is present",
      "category": "VI1 & VV1",
      "primitive": "add_column",
      "domain": "AE",
      "usubjid": null,
      "row_index": null,
      "csv_line": null,
      "seq_value": null,
      "variables_modified": {
        "AESTRTPT": {
          "original": "absent",
          "injected": "ONGOING"
        }
      },
      "re_derived": {},
      "expected_co_violations": [],
      "notes": null,
      "status": "injected",
      "failure_reason": null,
      "clean_row_index": null
    },
    {
      "error_id": "INJ-SD1103-DS-008",
      "rule_id": "SD1103",
      "rule_message": "Missing --STTPT variable, when --STRTPT variable is present",
      "category": "VI1 & VV1",
      "primitive": "add_column",
      "domain": "DS",
      "usubjid": null,
      "row_index": null,
      "csv_line": null,
      "seq_value": null,
      "variables_modified": {
        "DSSTRTPT": {
          "original": "absent",
          "injected": "ONGOING"
        }
      },
      "re_derived": {},
      "expected_co_violations": [],
      "notes": null,
      "status": "injected",
      "failure_reason": null,
      "clean_row_index": null
    },
    {
      "error_id": "INJ-SD1103-DV-009",
      "rule_id": "SD1103",
      "rule_message": "Missing --STTPT variable, when --STRTPT variable is present",
      "category": "VI1 & VV1",
      "primitive": "add_column",
      "domain": "DV",
      "usubjid": null,
      "row_index": null,
      "csv_line": null,
      "seq_value": null,
      "variables_modified": {
        "DVSTRTPT": {
          "original": "absent",
          "injected": "ONGOING"
        }
      },
      "re_derived": {},
      "expected_co_violations": [],
      "notes": null,
      "status": "injected",
      "failure_reason": null,
      "clean_row_index": null
    },
    {
      "error_id": "INJ-SD1103-HO-010",
      "rule_id": "SD1103",
      "rule_message": "Missing --STTPT variable, when --STRTPT variable is present",
      "category": "VI1 & VV1",
      "primitive": "add_column",
      "domain": "HO",
      "usubjid": null,
      "row_index": null,
      "csv_line": null,
      "seq_value": null,
      "variables_modified": {
        "HOSTRTPT": {
          "original": "absent",
          "injected": "ONGOING"
        }
      },
      "re_derived": {},
      "expected_co_violations": [],
      "notes": null,
      "status": "injected",
      "failure_reason": null,
      "clean_row_index": null
    },
    {
      "error_id": "INJ-SD1103-MH-011",
      "rule_id": "SD1103",
      "rule_message": "Missing --STTPT variable, when --STRTPT variable is present",
      "category": "VI1 & VV1",
      "primitive": "add_column",
      "domain": "MH",
      "usubjid": null,
      "row_index": null,
      "csv_line": null,
      "seq_value": null,
      "variables_modified": {
        "MHSTRTPT": {
          "original": "absent",
          "injected": "ONGOING"
        }
      },
      "re_derived": {},
      "expected_co_violations": [],
      "notes": null,
      "status": "injected",
      "failure_reason": null,
      "clean_row_index": null
    },
    {
      "error_id": "INJ-SD1103-DA-012",
      "rule_id": "SD1103",
      "rule_message": "Missing --STTPT variable, when --STRTPT variable is present",
      "category": "VI1 & VV1",
      "primitive": "add_column",
      "domain": "DA",
      "usubjid": null,
      "row_index": null,
      "csv_line": null,
      "seq_value": null,
      "variables_modified": {
        "DASTRTPT": {
          "original": "absent",
          "injected": "ONGOING"
        }
      },
      "re_derived": {},
      "expected_co_violations": [],
      "notes": null,
      "status": "injected",
      "failure_reason": null,
      "clean_row_index": null
    },
    {
      "error_id": "INJ-SD1103-IE-013",
      "rule_id": "SD1103",
      "rule_message": "Missing --STTPT variable, when --STRTPT variable is present",
      "category": "VI1 & VV1",
      "primitive": "add_column",
      "domain": "IE",
      "usubjid": null,
      "row_index": null,
      "csv_line": null,
      "seq_value": null,
      "variables_modified": {
        "IESTRTPT": {
          "original": "absent",
          "injected": "ONGOING"
        }
      },
      "re_derived": {},
      "expected_co_violations": [],
      "notes": null,
      "status": "injected",
      "failure_reason": null,
      "clean_row_index": null
    },
    {
      "error_id": "INJ-SD1103-LB-014",
      "rule_id": "SD1103",
      "rule_message": "Missing --STTPT variable, when --STRTPT variable is present",
      "category": "VI1 & VV1",
      "primitive": "add_column",
      "domain": "LB",
      "usubjid": null,
      "row_index": null,
      "csv_line": null,
      "seq_value": null,
      "variables_modified": {
        "LBSTRTPT": {
          "original": "absent",
          "injected": "ONGOING"
        }
      },
      "re_derived": {},
      "expected_co_violations": [],
      "notes": null,
      "status": "injected",
      "failure_reason": null,
      "clean_row_index": null
    },
    {
      "error_id": "INJ-SD1103-PE-015",
      "rule_id": "SD1103",
      "rule_message": "Missing --STTPT variable, when --STRTPT variable is present",
      "category": "VI1 & VV1",
      "primitive": "add_column",
      "domain": "PE",
      "usubjid": null,
      "row_index": null,
      "csv_line": null,
      "seq_value": null,
      "variables_modified": {
        "PESTRTPT": {
          "original": "absent",
          "injected": "ONGOING"
        }
      },
      "re_derived": {},
      "expected_co_violations": [],
      "notes": null,
      "status": "injected",
      "failure_reason": null,
      "clean_row_index": null
    },
    {
      "error_id": "INJ-SD1103-SC-016",
      "rule_id": "SD1103",
      "rule_message": "Missing --STTPT variable, when --STRTPT variable is present",
      "category": "VI1 & VV1",
      "primitive": "add_column",
      "domain": "SC",
      "usubjid": null,
      "row_index": null,
      "csv_line": null,
      "seq_value": null,
      "variables_modified": {
        "SCSTRTPT": {
          "original": "absent",
          "injected": "ONGOING"
        }
      },
      "re_derived": {},
      "expected_co_violations": [],
      "notes": null,
      "status": "injected",
      "failure_reason": null,
      "clean_row_index": null
    },
    {
      "error_id": "INJ-SD1103-SS-017",
      "rule_id": "SD1103",
      "rule_message": "Missing --STTPT variable, when --STRTPT variable is present",
      "category": "VI1 & VV1",
      "primitive": "add_column",
      "domain": "SS",
      "usubjid": null,
      "row_index": null,
      "csv_line": null,
      "seq_value": null,
      "variables_modified": {
        "SSSTRTPT": {
          "original": "absent",
          "injected": "ONGOING"
        }
      },
      "re_derived": {},
      "expected_co_violations": [],
      "notes": null,
      "status": "injected",
      "failure_reason": null,
      "clean_row_index": null
    },
    {
      "error_id": "INJ-SD1103-VS-018",
      "rule_id": "SD1103",
      "rule_message": "Missing --STTPT variable, when --STRTPT variable is present",
      "category": "VI1 & VV1",
      "primitive": "add_column",
      "domain": "VS",
      "usubjid": null,
      "row_index": null,
      "csv_line": null,
      "seq_value": null,
      "variables_modified": {
        "VSSTRTPT": {
          "original": "absent",
          "injected": "ONGOING"
        }
      },
      "re_derived": {},
      "expected_co_violations": [],
      "notes": null,
      "status": "injected",
      "failure_reason": null,
      "clean_row_index": null
    }
  ],
  "summary_by_rule": {
    "SD1103": 18
  },
  "summary_by_category": {
    "VI1 & VV1": 18
  },
  "summary_by_domain": {
    "SE": 1,
    "SV": 1,
    "CM": 1,
    "EC": 1,
    "EX": 1,
    "SU": 1,
    "AE": 1,
    "DS": 1,
    "DV": 1,
    "HO": 1,
    "MH": 1,
    "DA": 1,
    "IE": 1,
    "LB": 1,
    "PE": 1,
    "SC": 1,
    "SS": 1,
    "VS": 1
  },
  "summary_status": {
    "injected": 18,
    "overwritten": 0,
    "failed_self_validation": 0
  },
  "warnings": [
    "Re-derivation skipped: ConformanceLayer not importable. Derived fields (--DY, EPOCH) may not reflect injected errors."
  ]
}