STUDYID,DOMAIN,USUBJID,DVSEQ,DVTERM,DVDECOD,DVCAT,DVSCAT,EPOCH,DVSTDTC,DVSTDY
M19-977-RISA-PED,DV,M19-977-RISA-PED-CAN_SITE01-0004,1,Dose modified from 75.0 to 150.0 mg,DOSE MODIFICATION,MINOR,DOSING,TREATMENT,2024-02-23,1
M19-977-RISA-PED,DV,M19-977-RISA-PED-CAN_SITE01-0004,2,Dose modified from 75.0 to 150.0 mg,DOSE MODIFICATION,MINOR,DOSING,TREATMENT,2024-03-22,29
M19-977-RISA-PED,DV,M19-977-RISA-PED-CAN_SITE01-0009,1,Dose modified from 75.0 to 150.0 mg,DOSE MODIFICATION,MINOR,DOSING,TREATMENT,2024-04-11,29
M19-977-RISA-PED,DV,M19-977-RISA-PED-CAN_SITE01-0009,2,Visit WEEK 24 occurred 4 days late (Day 173 vs planned Day 169),VISIT OCCURRED OUTSIDE VISIT WINDOW,MINOR,VISIT WINDOW,TREATMENT,2024-09-02,173
M19-977-RISA-PED,DV,M19-977-RISA-PED-CZE_SITE01-0001,1,Dose modified from 75.0 to 150.0 mg,DOSE MODIFICATION,MINOR,DOSING,TREATMENT,2024-05-01,1
M19-977-RISA-PED,DV,M19-977-RISA-PED-CZE_SITE01-0001,2,Dose modified from 75.0 to 150.0 mg,DOSE MODIFICATION,MINOR,DOSING,TREATMENT,2024-08-21,113
M19-977-RISA-PED,DV,M19-977-RISA-PED-CZE_SITE01-0001,3,Visit WEEK 16 occurred 3 days late (Day 116 vs planned Day 113),VISIT OCCURRED OUTSIDE VISIT WINDOW,MINOR,VISIT WINDOW,TREATMENT,2024-08-24,116
M19-977-RISA-PED,DV,M19-977-RISA-PED-CZE_SITE01-0001,4,Dose modified from 75.0 to 150.0 mg,DOSE MODIFICATION,MINOR,DOSING,TREATMENT,2024-11-13,197
M19-977-RISA-PED,DV,M19-977-RISA-PED-CZE_SITE01-0001,5,Vital signs assessment not performed at WEEK 60 FU,MISSED ASSESSMENT,MINOR,ASSESSMENT,FOLLOW-UP,2025-07-02,428
M19-977-RISA-PED,DV,M19-977-RISA-PED-CZE_SITE01-0010,1,Visit WEEK 4 occurred 0 days late (Day 29 vs planned Day 29),VISIT OCCURRED OUTSIDE VISIT WINDOW,MINOR,VISIT WINDOW,TREATMENT,2024-04-13,29
M19-977-RISA-PED,DV,M19-977-RISA-PED-CZE_SITE01-0010,2,Visit WEEK 12 occurred 2 days late (Day 87 vs planned Day 85),VISIT OCCURRED OUTSIDE VISIT WINDOW,MINOR,VISIT WINDOW,TREATMENT,2024-06-10,87
M19-977-RISA-PED,DV,M19-977-RISA-PED-CZE_SITE01-0012,1,Visit WEEK 4 occurred 3 days early (Day 26 vs planned Day 29),VISIT OCCURRED OUTSIDE VISIT WINDOW,MINOR,VISIT WINDOW,TREATMENT,2024-04-01,26
M19-977-RISA-PED,DV,M19-977-RISA-PED-CZE_SITE01-0012,2,Visit WEEK 16 occurred 3 days early (Day 110 vs planned Day 113),VISIT OCCURRED OUTSIDE VISIT WINDOW,MINOR,VISIT WINDOW,TREATMENT,2024-06-24,110
M19-977-RISA-PED,DV,M19-977-RISA-PED-CZE_SITE01-0018,1,Dose modified from 75.0 to 150.0 mg,DOSE MODIFICATION,MINOR,DOSING,TREATMENT,2024-05-10,1
M19-977-RISA-PED,DV,M19-977-RISA-PED-CZE_SITE01-0018,2,Dose modified from 75.0 to 150.0 mg,DOSE MODIFICATION,MINOR,DOSING,TREATMENT,2024-06-07,29
M19-977-RISA-PED,DV,M19-977-RISA-PED-CZE_SITE01-0018,3,Dose modified from 75.0 to 150.0 mg,DOSE MODIFICATION,MINOR,DOSING,TREATMENT,2024-11-22,197
M19-977-RISA-PED,DV,M19-977-RISA-PED-CZE_SITE01-0018,4,Visit WEEK 36 occurred 5 days early (Day 248 vs planned Day 253),VISIT OCCURRED OUTSIDE VISIT WINDOW,MINOR,VISIT WINDOW,TREATMENT,2025-01-12,248
M19-977-RISA-PED,DV,M19-977-RISA-PED-CZE_SITE01-0018,5,Visit WEEK 40 EOT occurred 2 days late (Day 283 vs planned Day 281),VISIT OCCURRED OUTSIDE VISIT WINDOW,MINOR,VISIT WINDOW,FOLLOW-UP,2025-02-16,283
M19-977-RISA-PED,DV,M19-977-RISA-PED-CZE_SITE01-0018,6,Visit WEEK 60 FU occurred 9 days early (Day 412 vs planned Day 421),VISIT OCCURRED OUTSIDE VISIT WINDOW,MINOR,VISIT WINDOW,FOLLOW-UP,2025-06-25,412
M19-977-RISA-PED,DV,M19-977-RISA-PED-DEU_SITE01-0007,1,Vital signs assessment not performed at WEEK 4,MISSED ASSESSMENT,MINOR,ASSESSMENT,TREATMENT,2024-03-23,28
M19-977-RISA-PED,DV,M19-977-RISA-PED-DEU_SITE01-0007,2,Visit WEEK 8 occurred 2 days late (Day 59 vs planned Day 57),VISIT OCCURRED OUTSIDE VISIT WINDOW,MINOR,VISIT WINDOW,TREATMENT,2024-04-23,59
M19-977-RISA-PED,DV,M19-977-RISA-PED-DEU_SITE01-0007,3,Visit WEEK 16 occurred 4 days late (Day 117 vs planned Day 113),VISIT OCCURRED OUTSIDE VISIT WINDOW,MINOR,VISIT WINDOW,TREATMENT,2024-06-20,117
M19-977-RISA-PED,DV,M19-977-RISA-PED-DEU_SITE01-0007,4,Visit WEEK 40 EOT occurred 7 days early (Day 274 vs planned Day 281),VISIT OCCURRED OUTSIDE VISIT WINDOW,MINOR,VISIT WINDOW,TREATMENT,2024-11-24,274
M19-977-RISA-PED,DV,M19-977-RISA-PED-DEU_SITE01-0008,1,Dose modified from 75.0 to 150.0 mg,DOSE MODIFICATION,MINOR,DOSING,TREATMENT,2024-07-08,113
M19-977-RISA-PED,DV,M19-977-RISA-PED-DEU_SITE01-0008,2,Visit WEEK 24 occurred 5 days early (Day 164 vs planned Day 169),VISIT OCCURRED OUTSIDE VISIT WINDOW,MINOR,VISIT WINDOW,TREATMENT,2024-08-28,164
M19-977-RISA-PED,DV,M19-977-RISA-PED-DEU_SITE01-0008,3,Dose modified from 75.0 to 150.0 mg,DOSE MODIFICATION,MINOR,DOSING,TREATMENT,2024-09-30,197
M19-977-RISA-PED,DV,M19-977-RISA-PED-ESP_SITE01-0019,1,Dose modified from 75.0 to 150.0 mg,DOSE MODIFICATION,MINOR,DOSING,TREATMENT,2024-02-09,1
M19-977-RISA-PED,DV,M19-977-RISA-PED-ESP_SITE01-0019,2,Visit WEEK 4 occurred 3 days early (Day 26 vs planned Day 29),VISIT OCCURRED OUTSIDE VISIT WINDOW,MINOR,VISIT WINDOW,TREATMENT,2024-03-05,26
M19-977-RISA-PED,DV,M19-977-RISA-PED-ESP_SITE01-0019,3,Visit WEEK 8 occurred 3 days early (Day 54 vs planned Day 57),VISIT OCCURRED OUTSIDE VISIT WINDOW,MINOR,VISIT WINDOW,TREATMENT,2024-04-02,54
M19-977-RISA-PED,DV,M19-977-RISA-PED-ESP_SITE01-0019,4,Dose modified from 75.0 to 150.0 mg,DOSE MODIFICATION,MINOR,DOSING,TREATMENT,2024-05-31,113
M19-977-RISA-PED,DV,M19-977-RISA-PED-ESP_SITE01-0019,5,Visit WEEK 36 occurred 5 days early (Day 248 vs planned Day 253),VISIT OCCURRED OUTSIDE VISIT WINDOW,MINOR,VISIT WINDOW,TREATMENT,2024-10-13,248
M19-977-RISA-PED,DV,M19-977-RISA-PED-FRA_SITE01-0003,1,Visit WEEK 8 occurred 3 days early (Day 54 vs planned Day 57),VISIT OCCURRED OUTSIDE VISIT WINDOW,MINOR,VISIT WINDOW,TREATMENT,2024-05-12,54
M19-977-RISA-PED,DV,M19-977-RISA-PED-FRA_SITE01-0003,2,Visit WEEK 12 occurred 3 days early (Day 82 vs planned Day 85),VISIT OCCURRED OUTSIDE VISIT WINDOW,MINOR,VISIT WINDOW,TREATMENT,2024-06-09,82
M19-977-RISA-PED,DV,M19-977-RISA-PED-FRA_SITE01-0003,3,Visit WEEK 40 EOT occurred 1 days late (Day 282 vs planned Day 281),VISIT OCCURRED OUTSIDE VISIT WINDOW,MINOR,VISIT WINDOW,FOLLOW-UP,2024-12-26,282
M19-977-RISA-PED,DV,M19-977-RISA-PED-FRA_SITE01-0003,4,Visit WEEK 60 FU occurred 6 days early (Day 415 vs planned Day 421),VISIT OCCURRED OUTSIDE VISIT WINDOW,MINOR,VISIT WINDOW,FOLLOW-UP,2025-05-08,415
M19-977-RISA-PED,DV,M19-977-RISA-PED-GBR_SITE01-0002,1,Dose modified from 75.0 to 150.0 mg,DOSE MODIFICATION,MINOR,DOSING,TREATMENT,2024-02-09,1
M19-977-RISA-PED,DV,M19-977-RISA-PED-GBR_SITE01-0002,2,Visit WEEK 8 occurred 2 days late (Day 59 vs planned Day 57),VISIT OCCURRED OUTSIDE VISIT WINDOW,MINOR,VISIT WINDOW,TREATMENT,2024-04-07,59
M19-977-RISA-PED,DV,M19-977-RISA-PED-GBR_SITE01-0002,3,Dose modified from 75.0 to 150.0 mg,DOSE MODIFICATION,MINOR,DOSING,TREATMENT,2024-05-31,113
M19-977-RISA-PED,DV,M19-977-RISA-PED-GBR_SITE01-0002,4,Visit WEEK 16 occurred 3 days late (Day 116 vs planned Day 113),VISIT OCCURRED OUTSIDE VISIT WINDOW,MINOR,VISIT WINDOW,TREATMENT,2024-06-03,116
M19-977-RISA-PED,DV,M19-977-RISA-PED-GBR_SITE01-0002,5,Visit WEEK 24 occurred 0 days late (Day 169 vs planned Day 169),VISIT OCCURRED OUTSIDE VISIT WINDOW,MINOR,VISIT WINDOW,TREATMENT,2024-07-26,169
M19-977-RISA-PED,DV,M19-977-RISA-PED-GBR_SITE01-0002,6,Visit WEEK 36 occurred 3 days early (Day 250 vs planned Day 253),VISIT OCCURRED OUTSIDE VISIT WINDOW,MINOR,VISIT WINDOW,TREATMENT,2024-10-15,250
M19-977-RISA-PED,DV,M19-977-RISA-PED-KOR_SITE01-0005,1,Visit WEEK 8 occurred 0 days late (Day 57 vs planned Day 57),VISIT OCCURRED OUTSIDE VISIT WINDOW,MINOR,VISIT WINDOW,TREATMENT,2024-05-25,57
M19-977-RISA-PED,DV,M19-977-RISA-PED-KOR_SITE01-0005,2,Dose modified from 75.0 to 150.0 mg,DOSE MODIFICATION,MINOR,DOSING,TREATMENT,2024-07-20,113
M19-977-RISA-PED,DV,M19-977-RISA-PED-KOR_SITE01-0005,3,Visit WEEK 60 FU occurred 13 days late (Day 434 vs planned Day 421),VISIT OCCURRED OUTSIDE VISIT WINDOW,MINOR,VISIT WINDOW,FOLLOW-UP,2025-06-06,434
M19-977-RISA-PED,DV,M19-977-RISA-PED-KOR_SITE01-0011,1,Visit WEEK 8 occurred 2 days late (Day 59 vs planned Day 57),VISIT OCCURRED OUTSIDE VISIT WINDOW,MINOR,VISIT WINDOW,TREATMENT,2024-04-06,59
M19-977-RISA-PED,DV,M19-977-RISA-PED-KOR_SITE01-0011,2,Visit WEEK 16 occurred 5 days early (Day 108 vs planned Day 113),VISIT OCCURRED OUTSIDE VISIT WINDOW,MINOR,VISIT WINDOW,TREATMENT,2024-05-25,108
M19-977-RISA-PED,DV,M19-977-RISA-PED-KOR_SITE01-0011,3,Dose modified from 75.0 to 150.0 mg,DOSE MODIFICATION,MINOR,DOSING,TREATMENT,2024-05-30,113
M19-977-RISA-PED,DV,M19-977-RISA-PED-KOR_SITE01-0011,4,Visit WEEK 24 occurred 1 days late (Day 170 vs planned Day 169),VISIT OCCURRED OUTSIDE VISIT WINDOW,MINOR,VISIT WINDOW,TREATMENT,2024-07-26,170
M19-977-RISA-PED,DV,M19-977-RISA-PED-KOR_SITE01-0011,5,Dose modified from 75.0 to 150.0 mg,DOSE MODIFICATION,MINOR,DOSING,TREATMENT,2024-08-22,197
M19-977-RISA-PED,DV,M19-977-RISA-PED-KOR_SITE01-0014,1,Visit WEEK 4 occurred 3 days early (Day 26 vs planned Day 29),VISIT OCCURRED OUTSIDE VISIT WINDOW,MINOR,VISIT WINDOW,TREATMENT,2024-03-16,26
M19-977-RISA-PED,DV,M19-977-RISA-PED-KOR_SITE01-0014,2,Dose modified from 75.0 to 150.0 mg,DOSE MODIFICATION,MINOR,DOSING,TREATMENT,2024-03-19,29
M19-977-RISA-PED,DV,M19-977-RISA-PED-KOR_SITE01-0014,3,Dose modified from 75.0 to 150.0 mg,DOSE MODIFICATION,MINOR,DOSING,TREATMENT,2024-06-11,113
M19-977-RISA-PED,DV,M19-977-RISA-PED-KOR_SITE01-0014,4,Visit WEEK 16 occurred 1 days late (Day 114 vs planned Day 113),VISIT OCCURRED OUTSIDE VISIT WINDOW,MINOR,VISIT WINDOW,TREATMENT,2024-06-12,114
M19-977-RISA-PED,DV,M19-977-RISA-PED-KOR_SITE01-0014,5,Visit WEEK 40 EOT occurred 6 days early (Day 275 vs planned Day 281),VISIT OCCURRED OUTSIDE VISIT WINDOW,MINOR,VISIT WINDOW,TREATMENT,2024-11-20,275
M19-977-RISA-PED,DV,M19-977-RISA-PED-USA_SITE01-0006,1,Vital signs assessment not performed at WEEK 4,MISSED ASSESSMENT,MINOR,ASSESSMENT,TREATMENT,2024-05-04,27
M19-977-RISA-PED,DV,M19-977-RISA-PED-USA_SITE01-0006,2,Vital signs assessment not performed at WEEK 8,MISSED ASSESSMENT,MINOR,ASSESSMENT,TREATMENT,2024-06-02,56
M19-977-RISA-PED,DV,M19-977-RISA-PED-USA_SITE01-0006,3,Visit WEEK 16 occurred 3 days late (Day 116 vs planned Day 113),VISIT OCCURRED OUTSIDE VISIT WINDOW,MINOR,VISIT WINDOW,TREATMENT,2024-08-01,116
M19-977-RISA-PED,DV,M19-977-RISA-PED-USA_SITE02-0013,1,Visit WEEK 4 occurred 3 days early (Day 26 vs planned Day 29),VISIT OCCURRED OUTSIDE VISIT WINDOW,MINOR,VISIT WINDOW,TREATMENT,2024-04-04,26
M19-977-RISA-PED,DV,M19-977-RISA-PED-USA_SITE02-0013,2,Visit WEEK 8 occurred 1 days late (Day 58 vs planned Day 57),VISIT OCCURRED OUTSIDE VISIT WINDOW,MINOR,VISIT WINDOW,TREATMENT,2024-05-06,58
M19-977-RISA-PED,DV,M19-977-RISA-PED-USA_SITE02-0013,3,Visit WEEK 12 occurred 1 days late (Day 86 vs planned Day 85),VISIT OCCURRED OUTSIDE VISIT WINDOW,MINOR,VISIT WINDOW,TREATMENT,2024-06-03,86
M19-977-RISA-PED,DV,M19-977-RISA-PED-USA_SITE02-0013,4,Dose modified from 75.0 to 150.0 mg,DOSE MODIFICATION,MINOR,DOSING,TREATMENT,2024-06-30,113
M19-977-RISA-PED,DV,M19-977-RISA-PED-USA_SITE02-0013,5,Dose modified from 75.0 to 150.0 mg,DOSE MODIFICATION,MINOR,DOSING,TREATMENT,2024-09-22,197
M19-977-RISA-PED,DV,M19-977-RISA-PED-USA_SITE02-0013,6,Visit WEEK 60 FU occurred 2 days early (Day 419 vs planned Day 421),VISIT OCCURRED OUTSIDE VISIT WINDOW,MINOR,VISIT WINDOW,FOLLOW-UP,2025-05-02,419
M19-977-RISA-PED,DV,M19-977-RISA-PED-USA_SITE02-0016,1,Dose modified from 75.0 to 150.0 mg,DOSE MODIFICATION,MINOR,DOSING,TREATMENT,2024-06-23,113
M19-977-RISA-PED,DV,M19-977-RISA-PED-USA_SITE02-0016,2,Visit WEEK 60 FU occurred 4 days late (Day 425 vs planned Day 421),VISIT OCCURRED OUTSIDE VISIT WINDOW,MINOR,VISIT WINDOW,FOLLOW-UP,2025-05-01,425
