STUDYID,DOMAIN,USUBJID,EXSEQ,EXTRT,EXDOSE,EXDOSU,EXDOSFRM,EXDOSFRQ,EXROUTE,EPOCH,EXSTDTC,EXENDTC,EXSTDY,EXENDY
M19-977-RISA-PED,EX,M19-977-RISA-PED-CAN_SITE01-0004,1,RISANKIZUMAB,150.0,mg,INJECTION,ONCE,SUBCUTANEOUS,TREATMENT,2024-02-23,2024-02-23,1,1
M19-977-RISA-PED,EX,M19-977-RISA-PED-CAN_SITE01-0004,2,RISANKIZUMAB,150.0,mg,INJECTION,ONCE,SUBCUTANEOUS,TREATMENT,2024-03-22,2024-03-22,29,29
M19-977-RISA-PED,EX,M19-977-RISA-PED-CAN_SITE01-0009,1,RISANKIZUMAB,150.0,mg,INJECTION,ONCE,SUBCUTANEOUS,TREATMENT,2024-03-14,2024-03-14,1,1
M19-977-RISA-PED,EX,M19-977-RISA-PED-CAN_SITE01-0009,2,RISANKIZUMAB,150.0,mg,INJECTION,ONCE,SUBCUTANEOUS,TREATMENT,2024-04-11,2024-04-11,29,29
M19-977-RISA-PED,EX,M19-977-RISA-PED-CAN_SITE01-0009,3,RISANKIZUMAB,150.0,mg,INJECTION,Q12W,SUBCUTANEOUS,TREATMENT,2024-07-04,2024-07-04,113,113
M19-977-RISA-PED,EX,M19-977-RISA-PED-CAN_SITE01-0009,4,RISANKIZUMAB,150.0,mg,INJECTION,Q12W,SUBCUTANEOUS,TREATMENT,2024-09-26,2024-09-26,197,197
M19-977-RISA-PED,EX,M19-977-RISA-PED-CZE_SITE01-0001,1,RISANKIZUMAB,150.0,mg,INJECTION,ONCE,SUBCUTANEOUS,TREATMENT,2024-05-01,2024-05-01,1,1
M19-977-RISA-PED,EX,M19-977-RISA-PED-CZE_SITE01-0001,2,RISANKIZUMAB,150.0,mg,INJECTION,ONCE,SUBCUTANEOUS,TREATMENT,2024-05-29,2024-05-29,29,29
M19-977-RISA-PED,EX,M19-977-RISA-PED-CZE_SITE01-0001,3,RISANKIZUMAB,150.0,mg,INJECTION,Q12W,SUBCUTANEOUS,TREATMENT,2024-08-21,2024-08-21,113,113
M19-977-RISA-PED,EX,M19-977-RISA-PED-CZE_SITE01-0001,4,RISANKIZUMAB,150.0,mg,INJECTION,Q12W,SUBCUTANEOUS,TREATMENT,2024-11-13,2024-11-13,197,197
M19-977-RISA-PED,EX,M19-977-RISA-PED-CZE_SITE01-0010,1,RISANKIZUMAB,150.0,mg,INJECTION,ONCE,SUBCUTANEOUS,TREATMENT,2024-03-16,2024-03-16,1,1
M19-977-RISA-PED,EX,M19-977-RISA-PED-CZE_SITE01-0010,2,RISANKIZUMAB,150.0,mg,INJECTION,ONCE,SUBCUTANEOUS,TREATMENT,2024-04-13,2024-04-13,29,29
M19-977-RISA-PED,EX,M19-977-RISA-PED-CZE_SITE01-0010,3,RISANKIZUMAB,150.0,mg,INJECTION,Q12W,SUBCUTANEOUS,TREATMENT,2024-07-06,2024-07-06,113,113
M19-977-RISA-PED,EX,M19-977-RISA-PED-CZE_SITE01-0012,1,RISANKIZUMAB,150.0,mg,INJECTION,ONCE,SUBCUTANEOUS,TREATMENT,2024-03-07,2024-03-07,1,1
M19-977-RISA-PED,EX,M19-977-RISA-PED-CZE_SITE01-0012,2,RISANKIZUMAB,150.0,mg,INJECTION,ONCE,SUBCUTANEOUS,TREATMENT,2024-04-04,2024-04-04,29,29
M19-977-RISA-PED,EX,M19-977-RISA-PED-CZE_SITE01-0018,1,RISANKIZUMAB,150.0,mg,INJECTION,ONCE,SUBCUTANEOUS,TREATMENT,2024-05-10,2024-05-10,1,1
M19-977-RISA-PED,EX,M19-977-RISA-PED-CZE_SITE01-0018,2,RISANKIZUMAB,150.0,mg,INJECTION,ONCE,SUBCUTANEOUS,TREATMENT,2024-06-07,2024-06-07,29,29
M19-977-RISA-PED,EX,M19-977-RISA-PED-CZE_SITE01-0018,3,RISANKIZUMAB,150.0,mg,INJECTION,Q12W,SUBCUTANEOUS,TREATMENT,2024-08-30,2024-08-30,113,113
M19-977-RISA-PED,EX,M19-977-RISA-PED-CZE_SITE01-0018,4,RISANKIZUMAB,150.0,mg,INJECTION,Q12W,SUBCUTANEOUS,TREATMENT,2024-11-22,2024-11-22,197,197
M19-977-RISA-PED,EX,M19-977-RISA-PED-DEU_SITE01-0007,1,RISANKIZUMAB,150.0,mg,INJECTION,ONCE,SUBCUTANEOUS,TREATMENT,2024-02-25,2024-02-25,1,1
M19-977-RISA-PED,EX,M19-977-RISA-PED-DEU_SITE01-0007,2,RISANKIZUMAB,150.0,mg,INJECTION,ONCE,SUBCUTANEOUS,TREATMENT,2024-03-24,2024-03-24,29,29
M19-977-RISA-PED,EX,M19-977-RISA-PED-DEU_SITE01-0007,3,RISANKIZUMAB,150.0,mg,INJECTION,Q12W,SUBCUTANEOUS,TREATMENT,2024-06-16,2024-06-16,113,113
M19-977-RISA-PED,EX,M19-977-RISA-PED-DEU_SITE01-0007,4,RISANKIZUMAB,150.0,mg,INJECTION,Q12W,SUBCUTANEOUS,TREATMENT,2024-09-08,2024-09-08,197,197
M19-977-RISA-PED,EX,M19-977-RISA-PED-DEU_SITE01-0008,1,RISANKIZUMAB,150.0,mg,INJECTION,ONCE,SUBCUTANEOUS,TREATMENT,2024-03-18,2024-03-18,1,1
M19-977-RISA-PED,EX,M19-977-RISA-PED-DEU_SITE01-0008,2,RISANKIZUMAB,150.0,mg,INJECTION,ONCE,SUBCUTANEOUS,TREATMENT,2024-04-15,2024-04-15,29,29
M19-977-RISA-PED,EX,M19-977-RISA-PED-DEU_SITE01-0008,3,RISANKIZUMAB,150.0,mg,INJECTION,Q12W,SUBCUTANEOUS,TREATMENT,2024-07-08,2024-07-08,113,113
M19-977-RISA-PED,EX,M19-977-RISA-PED-DEU_SITE01-0008,4,RISANKIZUMAB,150.0,mg,INJECTION,Q12W,SUBCUTANEOUS,TREATMENT,2024-09-30,2024-09-30,197,197
M19-977-RISA-PED,EX,M19-977-RISA-PED-ESP_SITE01-0019,1,RISANKIZUMAB,150.0,mg,INJECTION,ONCE,SUBCUTANEOUS,TREATMENT,2024-02-09,2024-02-09,1,1
M19-977-RISA-PED,EX,M19-977-RISA-PED-ESP_SITE01-0019,2,RISANKIZUMAB,150.0,mg,INJECTION,ONCE,SUBCUTANEOUS,TREATMENT,2024-03-08,2024-03-08,29,29
M19-977-RISA-PED,EX,M19-977-RISA-PED-ESP_SITE01-0019,3,RISANKIZUMAB,150.0,mg,INJECTION,Q12W,SUBCUTANEOUS,TREATMENT,2024-05-31,2024-05-31,113,113
M19-977-RISA-PED,EX,M19-977-RISA-PED-ESP_SITE01-0019,4,RISANKIZUMAB,150.0,mg,INJECTION,Q12W,SUBCUTANEOUS,TREATMENT,2024-08-23,2024-08-23,197,197
M19-977-RISA-PED,EX,M19-977-RISA-PED-FRA_SITE01-0003,1,USTEKINUMAB,45.0,mg,INJECTION,ONCE,SUBCUTANEOUS,TREATMENT,2024-03-20,2024-03-20,1,1
M19-977-RISA-PED,EX,M19-977-RISA-PED-FRA_SITE01-0003,2,USTEKINUMAB,45.0,mg,INJECTION,ONCE,SUBCUTANEOUS,TREATMENT,2024-04-17,2024-04-17,29,29
M19-977-RISA-PED,EX,M19-977-RISA-PED-FRA_SITE01-0003,3,USTEKINUMAB,45.0,mg,INJECTION,Q12W,SUBCUTANEOUS,TREATMENT,2024-07-10,2024-07-10,113,113
M19-977-RISA-PED,EX,M19-977-RISA-PED-FRA_SITE01-0003,4,USTEKINUMAB,45.0,mg,INJECTION,Q12W,SUBCUTANEOUS,TREATMENT,2024-10-02,2024-10-02,197,197
M19-977-RISA-PED,EX,M19-977-RISA-PED-GBR_SITE01-0002,1,RISANKIZUMAB,150.0,mg,INJECTION,ONCE,SUBCUTANEOUS,TREATMENT,2024-02-09,2024-02-09,1,1
M19-977-RISA-PED,EX,M19-977-RISA-PED-GBR_SITE01-0002,2,RISANKIZUMAB,150.0,mg,INJECTION,ONCE,SUBCUTANEOUS,TREATMENT,2024-03-08,2024-03-08,29,29
M19-977-RISA-PED,EX,M19-977-RISA-PED-GBR_SITE01-0002,3,RISANKIZUMAB,150.0,mg,INJECTION,Q12W,SUBCUTANEOUS,TREATMENT,2024-05-31,2024-05-31,113,113
M19-977-RISA-PED,EX,M19-977-RISA-PED-GBR_SITE01-0002,4,RISANKIZUMAB,150.0,mg,INJECTION,Q12W,SUBCUTANEOUS,TREATMENT,2024-08-23,2024-08-23,197,197
M19-977-RISA-PED,EX,M19-977-RISA-PED-KOR_SITE01-0005,1,RISANKIZUMAB,150.0,mg,INJECTION,ONCE,SUBCUTANEOUS,TREATMENT,2024-03-30,2024-03-30,1,1
M19-977-RISA-PED,EX,M19-977-RISA-PED-KOR_SITE01-0005,2,RISANKIZUMAB,150.0,mg,INJECTION,ONCE,SUBCUTANEOUS,TREATMENT,2024-04-27,2024-04-27,29,29
M19-977-RISA-PED,EX,M19-977-RISA-PED-KOR_SITE01-0005,3,RISANKIZUMAB,150.0,mg,INJECTION,Q12W,SUBCUTANEOUS,TREATMENT,2024-07-20,2024-07-20,113,113
M19-977-RISA-PED,EX,M19-977-RISA-PED-KOR_SITE01-0005,4,RISANKIZUMAB,150.0,mg,INJECTION,Q12W,SUBCUTANEOUS,TREATMENT,2024-10-12,2024-10-12,197,197
M19-977-RISA-PED,EX,M19-977-RISA-PED-KOR_SITE01-0011,1,RISANKIZUMAB,150.0,mg,INJECTION,ONCE,SUBCUTANEOUS,TREATMENT,2024-02-08,2024-02-08,1,1
M19-977-RISA-PED,EX,M19-977-RISA-PED-KOR_SITE01-0011,2,RISANKIZUMAB,150.0,mg,INJECTION,ONCE,SUBCUTANEOUS,TREATMENT,2024-03-07,2024-03-07,29,29
M19-977-RISA-PED,EX,M19-977-RISA-PED-KOR_SITE01-0011,3,RISANKIZUMAB,150.0,mg,INJECTION,Q12W,SUBCUTANEOUS,TREATMENT,2024-05-30,2024-05-30,113,113
M19-977-RISA-PED,EX,M19-977-RISA-PED-KOR_SITE01-0011,4,RISANKIZUMAB,150.0,mg,INJECTION,Q12W,SUBCUTANEOUS,TREATMENT,2024-08-22,2024-08-22,197,197
M19-977-RISA-PED,EX,M19-977-RISA-PED-KOR_SITE01-0014,1,RISANKIZUMAB,150.0,mg,INJECTION,ONCE,SUBCUTANEOUS,TREATMENT,2024-02-20,2024-02-20,1,1
M19-977-RISA-PED,EX,M19-977-RISA-PED-KOR_SITE01-0014,2,RISANKIZUMAB,150.0,mg,INJECTION,ONCE,SUBCUTANEOUS,TREATMENT,2024-03-19,2024-03-19,29,29
M19-977-RISA-PED,EX,M19-977-RISA-PED-KOR_SITE01-0014,3,RISANKIZUMAB,150.0,mg,INJECTION,Q12W,SUBCUTANEOUS,TREATMENT,2024-06-11,2024-06-11,113,113
M19-977-RISA-PED,EX,M19-977-RISA-PED-KOR_SITE01-0014,4,RISANKIZUMAB,150.0,mg,INJECTION,Q12W,SUBCUTANEOUS,TREATMENT,2024-09-03,2024-09-03,197,197
M19-977-RISA-PED,EX,M19-977-RISA-PED-USA_SITE01-0006,1,USTEKINUMAB,45.0,mg,INJECTION,ONCE,SUBCUTANEOUS,TREATMENT,2024-04-08,2024-04-08,1,1
M19-977-RISA-PED,EX,M19-977-RISA-PED-USA_SITE01-0006,2,USTEKINUMAB,45.0,mg,INJECTION,ONCE,SUBCUTANEOUS,TREATMENT,2024-05-06,2024-05-06,29,29
M19-977-RISA-PED,EX,M19-977-RISA-PED-USA_SITE01-0006,3,USTEKINUMAB,45.0,mg,INJECTION,Q12W,SUBCUTANEOUS,TREATMENT,2024-07-29,2024-07-29,113,113
M19-977-RISA-PED,EX,M19-977-RISA-PED-USA_SITE01-0006,4,USTEKINUMAB,45.0,mg,INJECTION,Q12W,SUBCUTANEOUS,TREATMENT,2024-10-21,2024-10-21,197,197
M19-977-RISA-PED,EX,M19-977-RISA-PED-USA_SITE02-0013,1,RISANKIZUMAB,150.0,mg,INJECTION,ONCE,SUBCUTANEOUS,TREATMENT,2024-03-10,2024-03-10,1,1
M19-977-RISA-PED,EX,M19-977-RISA-PED-USA_SITE02-0013,2,RISANKIZUMAB,150.0,mg,INJECTION,ONCE,SUBCUTANEOUS,TREATMENT,2024-04-07,2024-04-07,29,29
M19-977-RISA-PED,EX,M19-977-RISA-PED-USA_SITE02-0013,3,RISANKIZUMAB,150.0,mg,INJECTION,Q12W,SUBCUTANEOUS,TREATMENT,2024-06-30,2024-06-30,113,113
M19-977-RISA-PED,EX,M19-977-RISA-PED-USA_SITE02-0013,4,RISANKIZUMAB,150.0,mg,INJECTION,Q12W,SUBCUTANEOUS,TREATMENT,2024-09-22,2024-09-22,197,197
M19-977-RISA-PED,EX,M19-977-RISA-PED-USA_SITE02-0016,1,RISANKIZUMAB,150.0,mg,INJECTION,ONCE,SUBCUTANEOUS,TREATMENT,2024-03-03,2024-03-03,1,1
M19-977-RISA-PED,EX,M19-977-RISA-PED-USA_SITE02-0016,2,RISANKIZUMAB,150.0,mg,INJECTION,ONCE,SUBCUTANEOUS,TREATMENT,2024-03-31,2024-03-31,29,29
M19-977-RISA-PED,EX,M19-977-RISA-PED-USA_SITE02-0016,3,RISANKIZUMAB,150.0,mg,INJECTION,Q12W,SUBCUTANEOUS,TREATMENT,2024-06-23,2024-06-23,113,113
M19-977-RISA-PED,EX,M19-977-RISA-PED-USA_SITE02-0016,4,RISANKIZUMAB,150.0,mg,INJECTION,Q12W,SUBCUTANEOUS,TREATMENT,2024-09-15,2024-09-15,197,197
