STUDYID,DOMAIN,USUBJID,IESEQ,IETESTCD,IETEST,IECAT,IEORRES,IESTRESC,VISITNUM,VISIT,EPOCH,IEDTC,IEDY
M19-977-RISA-PED,IE,M19-977-RISA-PED-DEU_SITE01-0015,1,INCL01,Subject is >= 18 years of age,INCLUSION,N,N,1.0,SCREENING,SCREENING,2024-02-12,
M19-977-RISA-PED,IE,M19-977-RISA-PED-GBR_SITE01-0020,1,EXCL03,Subject has severe hepatic impairment (ALT/AST > 5x ULN),EXCLUSION,Y,Y,1.0,SCREENING,SCREENING,2024-02-21,
M19-977-RISA-PED,IE,M19-977-RISA-PED-USA_SITE02-0017,1,INCL03,Subject meets diagnosis criteria for the study indication,INCLUSION,N,N,1.0,SCREENING,SCREENING,2024-03-15,
