STUDYID,DOMAIN,USUBJID,MHSEQ,MHTERM,MHDECOD,MHCAT,MHSCAT,MHBODSYS,EPOCH,MHSTDTC,MHENDTC,MHSTDY,MHENDY,MHENRF
M19-977-RISA-PED,MH,M19-977-RISA-PED-CAN_SITE01-0004,1,HYPERLIPIDEMIA,HYPERLIPIDEMIA,METABOLIC,,,SCREENING,2012-02-12,2016-11-13,-4394,-2658,BEFORE
M19-977-RISA-PED,MH,M19-977-RISA-PED-CAN_SITE01-0004,2,OBESITY,OBESITY,METABOLIC,,,SCREENING,2015-02-11,,-3299,,DURING/AFTER
M19-977-RISA-PED,MH,M19-977-RISA-PED-CAN_SITE01-0004,3,PSORIASIS,PSORIASIS,DERMATOLOGICAL,,,,2014-02,,-3664,,DURING/AFTER
M19-977-RISA-PED,MH,M19-977-RISA-PED-CAN_SITE01-0009,1,PSORIASIS,PSORIASIS,DERMATOLOGICAL,,,SCREENING,2022-02-25,,-748,,DURING/AFTER
M19-977-RISA-PED,MH,M19-977-RISA-PED-CZE_SITE01-0001,1,PSORIASIS,PSORIASIS,DERMATOLOGICAL,,,SCREENING,2020-03-31,,-1492,,DURING/AFTER
M19-977-RISA-PED,MH,M19-977-RISA-PED-CZE_SITE01-0010,1,OBESITY,OBESITY,METABOLIC,,,,2020-02,2023-09-24,-1492,-174,BEFORE
M19-977-RISA-PED,MH,M19-977-RISA-PED-CZE_SITE01-0010,2,PSORIASIS,PSORIASIS,DERMATOLOGICAL,,,,2016-02,2022-11-19,-2952,-483,BEFORE
M19-977-RISA-PED,MH,M19-977-RISA-PED-CZE_SITE01-0012,1,HYPERTENSION,HYPERTENSION,CARDIOVASCULAR,,,SCREENING,2020-02-29,2022-11-20,-1468,-473,BEFORE
M19-977-RISA-PED,MH,M19-977-RISA-PED-CZE_SITE01-0012,2,PSORIASIS,PSORIASIS,DERMATOLOGICAL,,,SCREENING,2013-03-02,2015-07-07,-4023,-3166,BEFORE
M19-977-RISA-PED,MH,M19-977-RISA-PED-CZE_SITE01-0018,1,PSORIASIS,PSORIASIS,DERMATOLOGICAL,,,SCREENING,2018-04-13,2022-04-06,-2219,-765,BEFORE
M19-977-RISA-PED,MH,M19-977-RISA-PED-CZE_SITE01-0018,2,PSORIATIC ARTHRITIS,PSORIATIC ARTHRITIS,MUSCULOSKELETAL,,,SCREENING,2016-04-13,2023-10-18,-2949,-205,BEFORE
M19-977-RISA-PED,MH,M19-977-RISA-PED-DEU_SITE01-0007,1,DIABETES MELLITUS TYPE 2,DIABETES MELLITUS TYPE 2,ENDOCRINE,,,SCREENING,2013-02-14,2020-05-07,-4028,-1389,BEFORE
M19-977-RISA-PED,MH,M19-977-RISA-PED-DEU_SITE01-0007,2,HYPERTENSION,HYPERTENSION,CARDIOVASCULAR,,,SCREENING,2021-02-12,2021-07-04,-1108,-966,BEFORE
M19-977-RISA-PED,MH,M19-977-RISA-PED-DEU_SITE01-0007,3,PSORIASIS,PSORIASIS,DERMATOLOGICAL,,,SCREENING,2016-02-14,2016-03-12,-2933,-2906,BEFORE
M19-977-RISA-PED,MH,M19-977-RISA-PED-DEU_SITE01-0008,1,HYPERTENSION,HYPERTENSION,CARDIOVASCULAR,,,SCREENING,2020-03-01,,-1478,,DURING/AFTER
M19-977-RISA-PED,MH,M19-977-RISA-PED-DEU_SITE01-0008,2,OBESITY,OBESITY,METABOLIC,,,SCREENING,2017-03-02,,-2573,,DURING/AFTER
M19-977-RISA-PED,MH,M19-977-RISA-PED-DEU_SITE01-0008,3,PSORIASIS,PSORIASIS,DERMATOLOGICAL,,,,2023-03,,-383,,DURING/AFTER
M19-977-RISA-PED,MH,M19-977-RISA-PED-ESP_SITE01-0019,1,DIABETES MELLITUS TYPE 2,DIABETES MELLITUS TYPE 2,ENDOCRINE,,,SCREENING,2013-02-04,,-4022,,DURING/AFTER
M19-977-RISA-PED,MH,M19-977-RISA-PED-ESP_SITE01-0019,2,PSORIASIS,PSORIASIS,DERMATOLOGICAL,,,,2023-02,2023-10-21,-372,-111,BEFORE
M19-977-RISA-PED,MH,M19-977-RISA-PED-FRA_SITE01-0003,1,PSORIASIS,PSORIASIS,DERMATOLOGICAL,,,,2014-02,,-3677,,DURING/AFTER
M19-977-RISA-PED,MH,M19-977-RISA-PED-FRA_SITE01-0003,2,PSORIATIC ARTHRITIS,PSORIATIC ARTHRITIS,MUSCULOSKELETAL,,,SCREENING,2015-02-24,,-3312,,DURING/AFTER
M19-977-RISA-PED,MH,M19-977-RISA-PED-GBR_SITE01-0002,1,HYPERTENSION,HYPERTENSION,CARDIOVASCULAR,,,SCREENING,2023-01-21,,-384,,DURING/AFTER
M19-977-RISA-PED,MH,M19-977-RISA-PED-GBR_SITE01-0002,2,OBESITY,OBESITY,METABOLIC,,,SCREENING,2012-01-24,,-4399,,DURING/AFTER
M19-977-RISA-PED,MH,M19-977-RISA-PED-GBR_SITE01-0002,3,PSORIASIS,PSORIASIS,DERMATOLOGICAL,,,SCREENING,2020-01-22,,-1479,,DURING/AFTER
M19-977-RISA-PED,MH,M19-977-RISA-PED-KOR_SITE01-0005,1,HYPERTENSION,HYPERTENSION,CARDIOVASCULAR,,,SCREENING,2018-03-02,2024-01-09,-2220,-81,BEFORE
M19-977-RISA-PED,MH,M19-977-RISA-PED-KOR_SITE01-0005,2,PSORIASIS,PSORIASIS,DERMATOLOGICAL,,,SCREENING,2014-03-03,2019-08-13,-3680,-1691,BEFORE
M19-977-RISA-PED,MH,M19-977-RISA-PED-KOR_SITE01-0011,1,DEPRESSION,DEPRESSION,PSYCHIATRIC,,,,2013-01,2018-04-23,-4038,-2117,BEFORE
M19-977-RISA-PED,MH,M19-977-RISA-PED-KOR_SITE01-0011,2,HYPERLIPIDEMIA,HYPERLIPIDEMIA,METABOLIC,,,SCREENING,2015-01-18,,-3308,,DURING/AFTER
M19-977-RISA-PED,MH,M19-977-RISA-PED-KOR_SITE01-0011,3,PSORIASIS,PSORIASIS,DERMATOLOGICAL,,,,2016-01,,-2943,,DURING/AFTER
M19-977-RISA-PED,MH,M19-977-RISA-PED-KOR_SITE01-0014,1,DEPRESSION,DEPRESSION,PSYCHIATRIC,,,SCREENING,2023-01-21,2023-02-25,-395,-360,BEFORE
M19-977-RISA-PED,MH,M19-977-RISA-PED-KOR_SITE01-0014,2,HYPERLIPIDEMIA,HYPERLIPIDEMIA,METABOLIC,,,,2021-01,,-1125,,DURING/AFTER
M19-977-RISA-PED,MH,M19-977-RISA-PED-KOR_SITE01-0014,3,PSORIASIS,PSORIASIS,DERMATOLOGICAL,,,SCREENING,2012-01-24,2016-01-24,-4410,-2949,BEFORE
M19-977-RISA-PED,MH,M19-977-RISA-PED-USA_SITE01-0006,1,PSORIASIS,PSORIASIS,DERMATOLOGICAL,,,SCREENING,2023-03-09,2023-12-06,-396,-124,BEFORE
M19-977-RISA-PED,MH,M19-977-RISA-PED-USA_SITE02-0013,1,HYPERLIPIDEMIA,HYPERLIPIDEMIA,METABOLIC,,,SCREENING,2023-02-21,2023-11-29,-383,-102,BEFORE
M19-977-RISA-PED,MH,M19-977-RISA-PED-USA_SITE02-0013,2,PSORIASIS,PSORIASIS,DERMATOLOGICAL,,,SCREENING,2021-02-21,2022-06-21,-1113,-628,BEFORE
M19-977-RISA-PED,MH,M19-977-RISA-PED-USA_SITE02-0013,3,PSORIATIC ARTHRITIS,PSORIATIC ARTHRITIS,MUSCULOSKELETAL,,,SCREENING,2020-02-22,,-1478,,DURING/AFTER
M19-977-RISA-PED,MH,M19-977-RISA-PED-USA_SITE02-0016,1,DIABETES MELLITUS TYPE 2,DIABETES MELLITUS TYPE 2,ENDOCRINE,,,SCREENING,2018-02-22,,-2201,,DURING/AFTER
M19-977-RISA-PED,MH,M19-977-RISA-PED-USA_SITE02-0016,2,PSORIASIS,PSORIASIS,DERMATOLOGICAL,,,,2016-02,,-2931,,DURING/AFTER
M19-977-RISA-PED,MH,M19-977-RISA-PED-USA_SITE02-0016,3,PSORIATIC ARTHRITIS,PSORIATIC ARTHRITIS,MUSCULOSKELETAL,,,SCREENING,2016-02-23,,-2931,,DURING/AFTER
