STUDYID,DOMAIN,USUBJID,VSSEQ,VSTESTCD,VSTEST,VSORRES,VSORRESU,VSSTRESC,VSSTRESN,VSSTRESU,VSSTAT,VSLOBXFL,VSBLFL,VSDRVFL,VISITNUM,VISIT,EPOCH,VSDTC,VSDY,VSTPT,VSTPTNUM,VSELTM,VSTPTREF,VSRFTDTC
M19-977-RISA-PED,VS,M19-977-RISA-PED-CAN_SITE01-0004,1,BMI,BMI,,,17.2,17.2,kg/m2,,,,Y,1.0,SCREENING,SCREENING,2023-12-15,-70,,,,,
M19-977-RISA-PED,VS,M19-977-RISA-PED-CAN_SITE01-0004,2,DIABP,Diastolic Blood Pressure,82.5,mmHg,82.5,82.5,mmHg,,,,,1.0,SCREENING,SCREENING,2023-12-15,-70,,,,,
M19-977-RISA-PED,VS,M19-977-RISA-PED-CAN_SITE01-0004,3,HEIGHT,Height,155.8,cm,155.8,155.8,cm,,,,,1.0,SCREENING,SCREENING,2023-12-15,-70,,,,,
M19-977-RISA-PED,VS,M19-977-RISA-PED-CAN_SITE01-0004,4,PULSE,Pulse Rate,68.3,beats/min,68.3,68.3,beats/min,,,,,1.0,SCREENING,SCREENING,2023-12-15,-70,,,,,
M19-977-RISA-PED,VS,M19-977-RISA-PED-CAN_SITE01-0004,5,RESP,Respiratory Rate,14.4,breaths/min,14.4,14.4,breaths/min,,,,,1.0,SCREENING,SCREENING,2023-12-15,-70,,,,,
M19-977-RISA-PED,VS,M19-977-RISA-PED-CAN_SITE01-0004,6,SYSBP,Systolic Blood Pressure,98.6,mmHg,98.6,98.6,mmHg,,,,,1.0,SCREENING,SCREENING,2023-12-15,-70,,,,,
M19-977-RISA-PED,VS,M19-977-RISA-PED-CAN_SITE01-0004,7,TEMP,Temperature,37.6,C,37.6,37.6,C,,,,,1.0,SCREENING,SCREENING,2023-12-15,-70,,,,,
M19-977-RISA-PED,VS,M19-977-RISA-PED-CAN_SITE01-0004,8,WEIGHT,Weight,41.7,kg,41.7,41.7,kg,,,,,1.0,SCREENING,SCREENING,2023-12-15,-70,,,,,
M19-977-RISA-PED,VS,M19-977-RISA-PED-CAN_SITE01-0004,9,BMI,BMI,,,17.9,17.9,kg/m2,,Y,Y,Y,2.0,WEEK 0 BASELINE,TREATMENT,2024-02-23,1,,,,,
M19-977-RISA-PED,VS,M19-977-RISA-PED-CAN_SITE01-0004,10,DIABP,Diastolic Blood Pressure,80.6,mmHg,80.6,80.6,mmHg,,Y,Y,,2.0,WEEK 0 BASELINE,TREATMENT,2024-02-23,1,,,,,
M19-977-RISA-PED,VS,M19-977-RISA-PED-CAN_SITE01-0004,11,HEIGHT,Height,156.8,cm,156.8,156.8,cm,,Y,Y,,2.0,WEEK 0 BASELINE,TREATMENT,2024-02-23,1,,,,,
M19-977-RISA-PED,VS,M19-977-RISA-PED-CAN_SITE01-0004,12,PULSE,Pulse Rate,65.3,beats/min,65.3,65.3,beats/min,,Y,Y,,2.0,WEEK 0 BASELINE,TREATMENT,2024-02-23,1,,,,,
M19-977-RISA-PED,VS,M19-977-RISA-PED-CAN_SITE01-0004,13,RESP,Respiratory Rate,15.7,breaths/min,15.7,15.7,breaths/min,,Y,Y,,2.0,WEEK 0 BASELINE,TREATMENT,2024-02-23,1,,,,,
M19-977-RISA-PED,VS,M19-977-RISA-PED-CAN_SITE01-0004,14,SYSBP,Systolic Blood Pressure,98.3,mmHg,98.3,98.3,mmHg,,Y,Y,,2.0,WEEK 0 BASELINE,TREATMENT,2024-02-23,1,,,,,
M19-977-RISA-PED,VS,M19-977-RISA-PED-CAN_SITE01-0004,15,TEMP,Temperature,37.5,C,37.5,37.5,C,,Y,Y,,2.0,WEEK 0 BASELINE,TREATMENT,2024-02-23,1,,,,,
M19-977-RISA-PED,VS,M19-977-RISA-PED-CAN_SITE01-0004,16,WEIGHT,Weight,43.9,kg,43.9,43.9,kg,,Y,Y,,2.0,WEEK 0 BASELINE,TREATMENT,2024-02-23,1,,,,,
M19-977-RISA-PED,VS,M19-977-RISA-PED-CAN_SITE01-0004,17,DIABP,Diastolic Blood Pressure,,,,,,NOT DONE,,,,3.0,WEEK 4,TREATMENT,2024-03-20,27,,,,,
M19-977-RISA-PED,VS,M19-977-RISA-PED-CAN_SITE01-0004,18,HEIGHT,Height,,,,,,NOT DONE,,,,3.0,WEEK 4,TREATMENT,2024-03-20,27,,,,,
M19-977-RISA-PED,VS,M19-977-RISA-PED-CAN_SITE01-0004,19,PULSE,Pulse Rate,67.3,beats/min,67.3,67.3,beats/min,,,,,3.0,WEEK 4,TREATMENT,2024-03-20,27,,,,,
M19-977-RISA-PED,VS,M19-977-RISA-PED-CAN_SITE01-0004,20,RESP,Respiratory Rate,16.4,breaths/min,16.4,16.4,breaths/min,,,,,3.0,WEEK 4,TREATMENT,2024-03-20,27,,,,,
M19-977-RISA-PED,VS,M19-977-RISA-PED-CAN_SITE01-0004,21,SYSBP,Systolic Blood Pressure,100.0,mmHg,100.0,100.0,mmHg,,,,,3.0,WEEK 4,TREATMENT,2024-03-20,27,,,,,
M19-977-RISA-PED,VS,M19-977-RISA-PED-CAN_SITE01-0004,22,TEMP,Temperature,37.8,C,37.8,37.8,C,,,,,3.0,WEEK 4,TREATMENT,2024-03-20,27,,,,,
M19-977-RISA-PED,VS,M19-977-RISA-PED-CAN_SITE01-0004,23,WEIGHT,Weight,43.1,kg,43.1,43.1,kg,,,,,3.0,WEEK 4,TREATMENT,2024-03-20,27,,,,,
M19-977-RISA-PED,VS,M19-977-RISA-PED-CAN_SITE01-0009,1,BMI,BMI,,,26.5,26.5,kg/m2,,,,Y,1.0,SCREENING,SCREENING,2024-01-20,-54,,,,,
M19-977-RISA-PED,VS,M19-977-RISA-PED-CAN_SITE01-0009,2,DIABP,Diastolic Blood Pressure,72.6,mmHg,72.6,72.6,mmHg,,,,,1.0,SCREENING,SCREENING,2024-01-20,-54,,,,,
M19-977-RISA-PED,VS,M19-977-RISA-PED-CAN_SITE01-0009,3,HEIGHT,Height,158.6,cm,158.6,158.6,cm,,,,,1.0,SCREENING,SCREENING,2024-01-20,-54,,,,,
M19-977-RISA-PED,VS,M19-977-RISA-PED-CAN_SITE01-0009,4,PULSE,Pulse Rate,88.6,beats/min,88.6,88.6,beats/min,,,,,1.0,SCREENING,SCREENING,2024-01-20,-54,,,,,
M19-977-RISA-PED,VS,M19-977-RISA-PED-CAN_SITE01-0009,5,RESP,Respiratory Rate,23.4,breaths/min,23.4,23.4,breaths/min,,,,,1.0,SCREENING,SCREENING,2024-01-20,-54,,,,,
M19-977-RISA-PED,VS,M19-977-RISA-PED-CAN_SITE01-0009,6,SYSBP,Systolic Blood Pressure,91.9,mmHg,91.9,91.9,mmHg,,,,,1.0,SCREENING,SCREENING,2024-01-20,-54,,,,,
M19-977-RISA-PED,VS,M19-977-RISA-PED-CAN_SITE01-0009,7,TEMP,Temperature,37.1,C,37.1,37.1,C,,,,,1.0,SCREENING,SCREENING,2024-01-20,-54,,,,,
M19-977-RISA-PED,VS,M19-977-RISA-PED-CAN_SITE01-0009,8,WEIGHT,Weight,66.7,kg,66.7,66.7,kg,,,,,1.0,SCREENING,SCREENING,2024-01-20,-54,,,,,
M19-977-RISA-PED,VS,M19-977-RISA-PED-CAN_SITE01-0009,9,BMI,BMI,,,26.7,26.7,kg/m2,,Y,Y,Y,2.0,WEEK 0 BASELINE,TREATMENT,2024-03-14,1,,,,,
M19-977-RISA-PED,VS,M19-977-RISA-PED-CAN_SITE01-0009,10,DIABP,Diastolic Blood Pressure,75.5,mmHg,75.5,75.5,mmHg,,Y,Y,,2.0,WEEK 0 BASELINE,TREATMENT,2024-03-14,1,,,,,
M19-977-RISA-PED,VS,M19-977-RISA-PED-CAN_SITE01-0009,11,HEIGHT,Height,158.2,cm,158.2,158.2,cm,,Y,Y,,2.0,WEEK 0 BASELINE,TREATMENT,2024-03-14,1,,,,,
M19-977-RISA-PED,VS,M19-977-RISA-PED-CAN_SITE01-0009,12,PULSE,Pulse Rate,93.8,beats/min,93.8,93.8,beats/min,,Y,Y,,2.0,WEEK 0 BASELINE,TREATMENT,2024-03-14,1,,,,,
M19-977-RISA-PED,VS,M19-977-RISA-PED-CAN_SITE01-0009,13,RESP,Respiratory Rate,22.4,breaths/min,22.4,22.4,breaths/min,,Y,Y,,2.0,WEEK 0 BASELINE,TREATMENT,2024-03-14,1,,,,,
M19-977-RISA-PED,VS,M19-977-RISA-PED-CAN_SITE01-0009,14,SYSBP,Systolic Blood Pressure,92.1,mmHg,92.1,92.1,mmHg,,Y,Y,,2.0,WEEK 0 BASELINE,TREATMENT,2024-03-14,1,,,,,
M19-977-RISA-PED,VS,M19-977-RISA-PED-CAN_SITE01-0009,15,TEMP,Temperature,37.0,C,37.0,37.0,C,,Y,Y,,2.0,WEEK 0 BASELINE,TREATMENT,2024-03-14,1,,,,,
M19-977-RISA-PED,VS,M19-977-RISA-PED-CAN_SITE01-0009,16,WEIGHT,Weight,66.9,kg,66.9,66.9,kg,,Y,Y,,2.0,WEEK 0 BASELINE,TREATMENT,2024-03-14,1,,,,,
M19-977-RISA-PED,VS,M19-977-RISA-PED-CAN_SITE01-0009,17,BMI,BMI,,,26.9,26.9,kg/m2,,,,Y,3.0,WEEK 4,TREATMENT,2024-04-12,30,,,,,
M19-977-RISA-PED,VS,M19-977-RISA-PED-CAN_SITE01-0009,18,DIABP,Diastolic Blood Pressure,76.8,mmHg,76.8,76.8,mmHg,,,,,3.0,WEEK 4,TREATMENT,2024-04-12,30,,,,,
M19-977-RISA-PED,VS,M19-977-RISA-PED-CAN_SITE01-0009,19,HEIGHT,Height,157.2,cm,157.2,157.2,cm,,,,,3.0,WEEK 4,TREATMENT,2024-04-12,30,,,,,
M19-977-RISA-PED,VS,M19-977-RISA-PED-CAN_SITE01-0009,20,PULSE,Pulse Rate,97.9,beats/min,97.9,97.9,beats/min,,,,,3.0,WEEK 4,TREATMENT,2024-04-12,30,,,,,
M19-977-RISA-PED,VS,M19-977-RISA-PED-CAN_SITE01-0009,21,RESP,Respiratory Rate,,,,,,NOT DONE,,,,3.0,WEEK 4,TREATMENT,2024-04-12,30,,,,,
M19-977-RISA-PED,VS,M19-977-RISA-PED-CAN_SITE01-0009,22,SYSBP,Systolic Blood Pressure,93.9,mmHg,93.9,93.9,mmHg,,,,,3.0,WEEK 4,TREATMENT,2024-04-12,30,,,,,
M19-977-RISA-PED,VS,M19-977-RISA-PED-CAN_SITE01-0009,23,TEMP,Temperature,37.1,C,37.1,37.1,C,,,,,3.0,WEEK 4,TREATMENT,2024-04-12,30,,,,,
M19-977-RISA-PED,VS,M19-977-RISA-PED-CAN_SITE01-0009,24,WEIGHT,Weight,66.5,kg,66.5,66.5,kg,,,,,3.0,WEEK 4,TREATMENT,2024-04-12,30,,,,,
M19-977-RISA-PED,VS,M19-977-RISA-PED-CAN_SITE01-0009,25,BMI,BMI,,,27.5,27.5,kg/m2,,,,Y,4.0,WEEK 8,TREATMENT,2024-05-10,58,,,,,
M19-977-RISA-PED,VS,M19-977-RISA-PED-CAN_SITE01-0009,26,DIABP,Diastolic Blood Pressure,75.6,mmHg,75.6,75.6,mmHg,,,,,4.0,WEEK 8,TREATMENT,2024-05-10,58,,,,,
M19-977-RISA-PED,VS,M19-977-RISA-PED-CAN_SITE01-0009,27,HEIGHT,Height,156.9,cm,156.9,156.9,cm,,,,,4.0,WEEK 8,TREATMENT,2024-05-10,58,,,,,
M19-977-RISA-PED,VS,M19-977-RISA-PED-CAN_SITE01-0009,28,PULSE,Pulse Rate,93.6,beats/min,93.6,93.6,beats/min,,,,,4.0,WEEK 8,TREATMENT,2024-05-10,58,,,,,
M19-977-RISA-PED,VS,M19-977-RISA-PED-CAN_SITE01-0009,29,RESP,Respiratory Rate,,,,,,NOT DONE,,,,4.0,WEEK 8,TREATMENT,2024-05-10,58,,,,,
M19-977-RISA-PED,VS,M19-977-RISA-PED-CAN_SITE01-0009,30,SYSBP,Systolic Blood Pressure,94.0,mmHg,94.0,94.0,mmHg,,,,,4.0,WEEK 8,TREATMENT,2024-05-10,58,,,,,
M19-977-RISA-PED,VS,M19-977-RISA-PED-CAN_SITE01-0009,31,TEMP,Temperature,37.2,C,37.2,37.2,C,,,,,4.0,WEEK 8,TREATMENT,2024-05-10,58,,,,,
M19-977-RISA-PED,VS,M19-977-RISA-PED-CAN_SITE01-0009,32,WEIGHT,Weight,67.8,kg,67.8,67.8,kg,,,,,4.0,WEEK 8,TREATMENT,2024-05-10,58,,,,,
M19-977-RISA-PED,VS,M19-977-RISA-PED-CAN_SITE01-0009,33,BMI,BMI,,,27.4,27.4,kg/m2,,,,Y,5.0,WEEK 12,TREATMENT,2024-06-04,83,,,,,
M19-977-RISA-PED,VS,M19-977-RISA-PED-CAN_SITE01-0009,34,DIABP,Diastolic Blood Pressure,75.5,mmHg,75.5,75.5,mmHg,,,,,5.0,WEEK 12,TREATMENT,2024-06-04,83,,,,,
M19-977-RISA-PED,VS,M19-977-RISA-PED-CAN_SITE01-0009,35,HEIGHT,Height,156.0,cm,156.0,156.0,cm,,,,,5.0,WEEK 12,TREATMENT,2024-06-04,83,,,,,
M19-977-RISA-PED,VS,M19-977-RISA-PED-CAN_SITE01-0009,36,PULSE,Pulse Rate,100.6,beats/min,100.6,100.6,beats/min,,,,,5.0,WEEK 12,TREATMENT,2024-06-04,83,,,,,
M19-977-RISA-PED,VS,M19-977-RISA-PED-CAN_SITE01-0009,37,RESP,Respiratory Rate,25.2,breaths/min,25.2,25.2,breaths/min,,,,,5.0,WEEK 12,TREATMENT,2024-06-04,83,,,,,
M19-977-RISA-PED,VS,M19-977-RISA-PED-CAN_SITE01-0009,38,SYSBP,Systolic Blood Pressure,93.1,mmHg,93.1,93.1,mmHg,,,,,5.0,WEEK 12,TREATMENT,2024-06-04,83,,,,,
M19-977-RISA-PED,VS,M19-977-RISA-PED-CAN_SITE01-0009,39,TEMP,Temperature,37.1,C,37.1,37.1,C,,,,,5.0,WEEK 12,TREATMENT,2024-06-04,83,,,,,
M19-977-RISA-PED,VS,M19-977-RISA-PED-CAN_SITE01-0009,40,WEIGHT,Weight,66.6,kg,66.6,66.6,kg,,,,,5.0,WEEK 12,TREATMENT,2024-06-04,83,,,,,
M19-977-RISA-PED,VS,M19-977-RISA-PED-CAN_SITE01-0009,41,BMI,BMI,,,27.6,27.6,kg/m2,,,,Y,6.0,WEEK 16,TREATMENT,2024-07-05,114,,,,,
M19-977-RISA-PED,VS,M19-977-RISA-PED-CAN_SITE01-0009,42,DIABP,Diastolic Blood Pressure,72.0,mmHg,72.0,72.0,mmHg,,,,,6.0,WEEK 16,TREATMENT,2024-07-05,114,,,,,
M19-977-RISA-PED,VS,M19-977-RISA-PED-CAN_SITE01-0009,43,HEIGHT,Height,155.6,cm,155.6,155.6,cm,,,,,6.0,WEEK 16,TREATMENT,2024-07-05,114,,,,,
M19-977-RISA-PED,VS,M19-977-RISA-PED-CAN_SITE01-0009,44,PULSE,Pulse Rate,101.0,beats/min,101.0,101.0,beats/min,,,,,6.0,WEEK 16,TREATMENT,2024-07-05,114,,,,,
M19-977-RISA-PED,VS,M19-977-RISA-PED-CAN_SITE01-0009,45,RESP,Respiratory Rate,24.9,breaths/min,24.9,24.9,breaths/min,,,,,6.0,WEEK 16,TREATMENT,2024-07-05,114,,,,,
M19-977-RISA-PED,VS,M19-977-RISA-PED-CAN_SITE01-0009,46,SYSBP,Systolic Blood Pressure,90.8,mmHg,90.8,90.8,mmHg,,,,,6.0,WEEK 16,TREATMENT,2024-07-05,114,,,,,
M19-977-RISA-PED,VS,M19-977-RISA-PED-CAN_SITE01-0009,47,TEMP,Temperature,37.1,C,37.1,37.1,C,,,,,6.0,WEEK 16,TREATMENT,2024-07-05,114,,,,,
M19-977-RISA-PED,VS,M19-977-RISA-PED-CAN_SITE01-0009,48,WEIGHT,Weight,66.9,kg,66.9,66.9,kg,,,,,6.0,WEEK 16,TREATMENT,2024-07-05,114,,,,,
M19-977-RISA-PED,VS,M19-977-RISA-PED-CAN_SITE01-0009,49,BMI,BMI,,,27.2,27.2,kg/m2,,,,Y,7.0,WEEK 24,TREATMENT,2024-09-02,173,,,,,
M19-977-RISA-PED,VS,M19-977-RISA-PED-CAN_SITE01-0009,50,DIABP,Diastolic Blood Pressure,72.6,mmHg,72.6,72.6,mmHg,,,,,7.0,WEEK 24,TREATMENT,2024-09-02,173,,,,,
M19-977-RISA-PED,VS,M19-977-RISA-PED-CAN_SITE01-0009,51,HEIGHT,Height,156.4,cm,156.4,156.4,cm,,,,,7.0,WEEK 24,TREATMENT,2024-09-02,173,,,,,
M19-977-RISA-PED,VS,M19-977-RISA-PED-CAN_SITE01-0009,52,PULSE,Pulse Rate,96.5,beats/min,96.5,96.5,beats/min,,,,,7.0,WEEK 24,TREATMENT,2024-09-02,173,,,,,
M19-977-RISA-PED,VS,M19-977-RISA-PED-CAN_SITE01-0009,53,RESP,Respiratory Rate,23.3,breaths/min,23.3,23.3,breaths/min,,,,,7.0,WEEK 24,TREATMENT,2024-09-02,173,,,,,
M19-977-RISA-PED,VS,M19-977-RISA-PED-CAN_SITE01-0009,54,SYSBP,Systolic Blood Pressure,90.6,mmHg,90.6,90.6,mmHg,,,,,7.0,WEEK 24,TREATMENT,2024-09-02,173,,,,,
M19-977-RISA-PED,VS,M19-977-RISA-PED-CAN_SITE01-0009,55,TEMP,Temperature,37.2,C,37.2,37.2,C,,,,,7.0,WEEK 24,TREATMENT,2024-09-02,173,,,,,
M19-977-RISA-PED,VS,M19-977-RISA-PED-CAN_SITE01-0009,56,WEIGHT,Weight,66.6,kg,66.6,66.6,kg,,,,,7.0,WEEK 24,TREATMENT,2024-09-02,173,,,,,
M19-977-RISA-PED,VS,M19-977-RISA-PED-CAN_SITE01-0009,57,BMI,BMI,,,27.5,27.5,kg/m2,,,,Y,9.0,WEEK 40 EOT,TREATMENT,2024-12-20,282,,,,,
M19-977-RISA-PED,VS,M19-977-RISA-PED-CAN_SITE01-0009,58,DIABP,Diastolic Blood Pressure,74.5,mmHg,74.5,74.5,mmHg,,,,,9.0,WEEK 40 EOT,TREATMENT,2024-12-20,282,,,,,
M19-977-RISA-PED,VS,M19-977-RISA-PED-CAN_SITE01-0009,59,HEIGHT,Height,157.2,cm,157.2,157.2,cm,,,,,9.0,WEEK 40 EOT,TREATMENT,2024-12-20,282,,,,,
M19-977-RISA-PED,VS,M19-977-RISA-PED-CAN_SITE01-0009,60,PULSE,Pulse Rate,94.4,beats/min,94.4,94.4,beats/min,,,,,9.0,WEEK 40 EOT,TREATMENT,2024-12-20,282,,,,,
M19-977-RISA-PED,VS,M19-977-RISA-PED-CAN_SITE01-0009,61,RESP,Respiratory Rate,24.7,breaths/min,24.7,24.7,breaths/min,,,,,9.0,WEEK 40 EOT,TREATMENT,2024-12-20,282,,,,,
M19-977-RISA-PED,VS,M19-977-RISA-PED-CAN_SITE01-0009,62,SYSBP,Systolic Blood Pressure,94.2,mmHg,94.2,94.2,mmHg,,,,,9.0,WEEK 40 EOT,TREATMENT,2024-12-20,282,,,,,
M19-977-RISA-PED,VS,M19-977-RISA-PED-CAN_SITE01-0009,63,TEMP,Temperature,37.3,C,37.3,37.3,C,,,,,9.0,WEEK 40 EOT,TREATMENT,2024-12-20,282,,,,,
M19-977-RISA-PED,VS,M19-977-RISA-PED-CAN_SITE01-0009,64,WEIGHT,Weight,68.0,kg,68.0,68.0,kg,,,,,9.0,WEEK 40 EOT,TREATMENT,2024-12-20,282,,,,,
M19-977-RISA-PED,VS,M19-977-RISA-PED-CZE_SITE01-0001,1,BMI,BMI,,,24.4,24.4,kg/m2,,,,Y,1.0,SCREENING,SCREENING,2024-03-21,-41,,,,,
M19-977-RISA-PED,VS,M19-977-RISA-PED-CZE_SITE01-0001,2,DIABP,Diastolic Blood Pressure,77.7,mmHg,77.7,77.7,mmHg,,,,,1.0,SCREENING,SCREENING,2024-03-21,-41,,,,,
M19-977-RISA-PED,VS,M19-977-RISA-PED-CZE_SITE01-0001,3,HEIGHT,Height,158.6,cm,158.6,158.6,cm,,,,,1.0,SCREENING,SCREENING,2024-03-21,-41,,,,,
M19-977-RISA-PED,VS,M19-977-RISA-PED-CZE_SITE01-0001,4,PULSE,Pulse Rate,91.1,beats/min,91.1,91.1,beats/min,,,,,1.0,SCREENING,SCREENING,2024-03-21,-41,,,,,
M19-977-RISA-PED,VS,M19-977-RISA-PED-CZE_SITE01-0001,5,RESP,Respiratory Rate,18.2,breaths/min,18.2,18.2,breaths/min,,,,,1.0,SCREENING,SCREENING,2024-03-21,-41,,,,,
M19-977-RISA-PED,VS,M19-977-RISA-PED-CZE_SITE01-0001,6,SYSBP,Systolic Blood Pressure,103.6,mmHg,103.6,103.6,mmHg,,,,,1.0,SCREENING,SCREENING,2024-03-21,-41,,,,,
M19-977-RISA-PED,VS,M19-977-RISA-PED-CZE_SITE01-0001,7,TEMP,Temperature,36.9,C,36.9,36.9,C,,,,,1.0,SCREENING,SCREENING,2024-03-21,-41,,,,,
M19-977-RISA-PED,VS,M19-977-RISA-PED-CZE_SITE01-0001,8,WEIGHT,Weight,61.5,kg,61.5,61.5,kg,,,,,1.0,SCREENING,SCREENING,2024-03-21,-41,,,,,
M19-977-RISA-PED,VS,M19-977-RISA-PED-CZE_SITE01-0001,9,BMI,BMI,,,23.9,23.9,kg/m2,,Y,Y,Y,2.0,WEEK 0 BASELINE,TREATMENT,2024-05-01,1,,,,,
M19-977-RISA-PED,VS,M19-977-RISA-PED-CZE_SITE01-0001,10,DIABP,Diastolic Blood Pressure,78.4,mmHg,78.4,78.4,mmHg,,Y,Y,,2.0,WEEK 0 BASELINE,TREATMENT,2024-05-01,1,,,,,
M19-977-RISA-PED,VS,M19-977-RISA-PED-CZE_SITE01-0001,11,HEIGHT,Height,158.9,cm,158.9,158.9,cm,,Y,Y,,2.0,WEEK 0 BASELINE,TREATMENT,2024-05-01,1,,,,,
M19-977-RISA-PED,VS,M19-977-RISA-PED-CZE_SITE01-0001,12,PULSE,Pulse Rate,90.7,beats/min,90.7,90.7,beats/min,,Y,Y,,2.0,WEEK 0 BASELINE,TREATMENT,2024-05-01,1,,,,,
M19-977-RISA-PED,VS,M19-977-RISA-PED-CZE_SITE01-0001,13,RESP,Respiratory Rate,15.2,breaths/min,15.2,15.2,breaths/min,,Y,Y,,2.0,WEEK 0 BASELINE,TREATMENT,2024-05-01,1,,,,,
M19-977-RISA-PED,VS,M19-977-RISA-PED-CZE_SITE01-0001,14,SYSBP,Systolic Blood Pressure,104.1,mmHg,104.1,104.1,mmHg,,Y,Y,,2.0,WEEK 0 BASELINE,TREATMENT,2024-05-01,1,,,,,
M19-977-RISA-PED,VS,M19-977-RISA-PED-CZE_SITE01-0001,15,TEMP,Temperature,37.1,C,37.1,37.1,C,,Y,Y,,2.0,WEEK 0 BASELINE,TREATMENT,2024-05-01,1,,,,,
M19-977-RISA-PED,VS,M19-977-RISA-PED-CZE_SITE01-0001,16,WEIGHT,Weight,60.4,kg,60.4,60.4,kg,,Y,Y,,2.0,WEEK 0 BASELINE,TREATMENT,2024-05-01,1,,,,,
M19-977-RISA-PED,VS,M19-977-RISA-PED-CZE_SITE01-0001,17,BMI,BMI,,,24.0,24.0,kg/m2,,,,Y,3.0,WEEK 4,TREATMENT,2024-05-26,26,,,,,
M19-977-RISA-PED,VS,M19-977-RISA-PED-CZE_SITE01-0001,18,DIABP,Diastolic Blood Pressure,75.4,mmHg,75.4,75.4,mmHg,,,,,3.0,WEEK 4,TREATMENT,2024-05-26,26,,,,,
M19-977-RISA-PED,VS,M19-977-RISA-PED-CZE_SITE01-0001,19,HEIGHT,Height,160.3,cm,160.3,160.3,cm,,,,,3.0,WEEK 4,TREATMENT,2024-05-26,26,,,,,
M19-977-RISA-PED,VS,M19-977-RISA-PED-CZE_SITE01-0001,20,PULSE,Pulse Rate,93.0,beats/min,93.0,93.0,beats/min,,,,,3.0,WEEK 4,TREATMENT,2024-05-26,26,,,,,
M19-977-RISA-PED,VS,M19-977-RISA-PED-CZE_SITE01-0001,21,RESP,Respiratory Rate,16.6,breaths/min,16.6,16.6,breaths/min,,,,,3.0,WEEK 4,TREATMENT,2024-05-26,26,,,,,
M19-977-RISA-PED,VS,M19-977-RISA-PED-CZE_SITE01-0001,22,SYSBP,Systolic Blood Pressure,101.1,mmHg,101.1,101.1,mmHg,,,,,3.0,WEEK 4,TREATMENT,2024-05-26,26,,,,,
M19-977-RISA-PED,VS,M19-977-RISA-PED-CZE_SITE01-0001,23,TEMP,Temperature,37.1,C,37.1,37.1,C,,,,,3.0,WEEK 4,TREATMENT,2024-05-26,26,,,,,
M19-977-RISA-PED,VS,M19-977-RISA-PED-CZE_SITE01-0001,24,WEIGHT,Weight,61.7,kg,61.7,61.7,kg,,,,,3.0,WEEK 4,TREATMENT,2024-05-26,26,,,,,
M19-977-RISA-PED,VS,M19-977-RISA-PED-CZE_SITE01-0001,25,BMI,BMI,,,24.1,24.1,kg/m2,,,,Y,4.0,WEEK 8,TREATMENT,2024-06-25,56,,,,,
M19-977-RISA-PED,VS,M19-977-RISA-PED-CZE_SITE01-0001,26,DIABP,Diastolic Blood Pressure,75.5,mmHg,75.5,75.5,mmHg,,,,,4.0,WEEK 8,TREATMENT,2024-06-25,56,,,,,
M19-977-RISA-PED,VS,M19-977-RISA-PED-CZE_SITE01-0001,27,HEIGHT,Height,160.6,cm,160.6,160.6,cm,,,,,4.0,WEEK 8,TREATMENT,2024-06-25,56,,,,,
M19-977-RISA-PED,VS,M19-977-RISA-PED-CZE_SITE01-0001,28,PULSE,Pulse Rate,98.5,beats/min,98.5,98.5,beats/min,,,,,4.0,WEEK 8,TREATMENT,2024-06-25,56,,,,,
M19-977-RISA-PED,VS,M19-977-RISA-PED-CZE_SITE01-0001,29,RESP,Respiratory Rate,17.4,breaths/min,17.4,17.4,breaths/min,,,,,4.0,WEEK 8,TREATMENT,2024-06-25,56,,,,,
M19-977-RISA-PED,VS,M19-977-RISA-PED-CZE_SITE01-0001,30,SYSBP,Systolic Blood Pressure,98.1,mmHg,98.1,98.1,mmHg,,,,,4.0,WEEK 8,TREATMENT,2024-06-25,56,,,,,
M19-977-RISA-PED,VS,M19-977-RISA-PED-CZE_SITE01-0001,31,TEMP,Temperature,37.3,C,37.3,37.3,C,,,,,4.0,WEEK 8,TREATMENT,2024-06-25,56,,,,,
M19-977-RISA-PED,VS,M19-977-RISA-PED-CZE_SITE01-0001,32,WEIGHT,Weight,62.2,kg,62.2,62.2,kg,,,,,4.0,WEEK 8,TREATMENT,2024-06-25,56,,,,,
M19-977-RISA-PED,VS,M19-977-RISA-PED-CZE_SITE01-0001,33,BMI,BMI,,,24.3,24.3,kg/m2,,,,Y,5.0,WEEK 12,TREATMENT,2024-07-25,86,,,,,
M19-977-RISA-PED,VS,M19-977-RISA-PED-CZE_SITE01-0001,34,DIABP,Diastolic Blood Pressure,74.8,mmHg,74.8,74.8,mmHg,,,,,5.0,WEEK 12,TREATMENT,2024-07-25,86,,,,,
M19-977-RISA-PED,VS,M19-977-RISA-PED-CZE_SITE01-0001,35,HEIGHT,Height,160.9,cm,160.9,160.9,cm,,,,,5.0,WEEK 12,TREATMENT,2024-07-25,86,,,,,
M19-977-RISA-PED,VS,M19-977-RISA-PED-CZE_SITE01-0001,36,PULSE,Pulse Rate,99.3,beats/min,99.3,99.3,beats/min,,,,,5.0,WEEK 12,TREATMENT,2024-07-25,86,,,,,
M19-977-RISA-PED,VS,M19-977-RISA-PED-CZE_SITE01-0001,37,RESP,Respiratory Rate,17.4,breaths/min,17.4,17.4,breaths/min,,,,,5.0,WEEK 12,TREATMENT,2024-07-25,86,,,,,
M19-977-RISA-PED,VS,M19-977-RISA-PED-CZE_SITE01-0001,38,SYSBP,Systolic Blood Pressure,95.1,mmHg,95.1,95.1,mmHg,,,,,5.0,WEEK 12,TREATMENT,2024-07-25,86,,,,,
M19-977-RISA-PED,VS,M19-977-RISA-PED-CZE_SITE01-0001,39,TEMP,Temperature,37.4,C,37.4,37.4,C,,,,,5.0,WEEK 12,TREATMENT,2024-07-25,86,,,,,
M19-977-RISA-PED,VS,M19-977-RISA-PED-CZE_SITE01-0001,40,WEIGHT,Weight,62.9,kg,62.9,62.9,kg,,,,,5.0,WEEK 12,TREATMENT,2024-07-25,86,,,,,
M19-977-RISA-PED,VS,M19-977-RISA-PED-CZE_SITE01-0001,41,BMI,BMI,,,24.4,24.4,kg/m2,,,,Y,6.0,WEEK 16,TREATMENT,2024-08-24,116,,,,,
M19-977-RISA-PED,VS,M19-977-RISA-PED-CZE_SITE01-0001,42,DIABP,Diastolic Blood Pressure,,,,,,NOT DONE,,,,6.0,WEEK 16,TREATMENT,2024-08-24,116,,,,,
M19-977-RISA-PED,VS,M19-977-RISA-PED-CZE_SITE01-0001,43,HEIGHT,Height,161.3,cm,161.3,161.3,cm,,,,,6.0,WEEK 16,TREATMENT,2024-08-24,116,,,,,
M19-977-RISA-PED,VS,M19-977-RISA-PED-CZE_SITE01-0001,44,PULSE,Pulse Rate,95.1,beats/min,95.1,95.1,beats/min,,,,,6.0,WEEK 16,TREATMENT,2024-08-24,116,,,,,
M19-977-RISA-PED,VS,M19-977-RISA-PED-CZE_SITE01-0001,45,RESP,Respiratory Rate,17.7,breaths/min,17.7,17.7,breaths/min,,,,,6.0,WEEK 16,TREATMENT,2024-08-24,116,,,,,
M19-977-RISA-PED,VS,M19-977-RISA-PED-CZE_SITE01-0001,46,SYSBP,Systolic Blood Pressure,95.5,mmHg,95.5,95.5,mmHg,,,,,6.0,WEEK 16,TREATMENT,2024-08-24,116,,,,,
M19-977-RISA-PED,VS,M19-977-RISA-PED-CZE_SITE01-0001,47,TEMP,Temperature,37.3,C,37.3,37.3,C,,,,,6.0,WEEK 16,TREATMENT,2024-08-24,116,,,,,
M19-977-RISA-PED,VS,M19-977-RISA-PED-CZE_SITE01-0001,48,WEIGHT,Weight,63.6,kg,63.6,63.6,kg,,,,,6.0,WEEK 16,TREATMENT,2024-08-24,116,,,,,
M19-977-RISA-PED,VS,M19-977-RISA-PED-CZE_SITE01-0001,49,BMI,BMI,,,24.3,24.3,kg/m2,,,,Y,7.0,WEEK 24,TREATMENT,2024-10-21,174,,,,,
M19-977-RISA-PED,VS,M19-977-RISA-PED-CZE_SITE01-0001,50,DIABP,Diastolic Blood Pressure,76.2,mmHg,76.2,76.2,mmHg,,,,,7.0,WEEK 24,TREATMENT,2024-10-21,174,,,,,
M19-977-RISA-PED,VS,M19-977-RISA-PED-CZE_SITE01-0001,51,HEIGHT,Height,161.3,cm,161.3,161.3,cm,,,,,7.0,WEEK 24,TREATMENT,2024-10-21,174,,,,,
M19-977-RISA-PED,VS,M19-977-RISA-PED-CZE_SITE01-0001,52,PULSE,Pulse Rate,97.3,beats/min,97.3,97.3,beats/min,,,,,7.0,WEEK 24,TREATMENT,2024-10-21,174,,,,,
M19-977-RISA-PED,VS,M19-977-RISA-PED-CZE_SITE01-0001,53,RESP,Respiratory Rate,17.4,breaths/min,17.4,17.4,breaths/min,,,,,7.0,WEEK 24,TREATMENT,2024-10-21,174,,,,,
M19-977-RISA-PED,VS,M19-977-RISA-PED-CZE_SITE01-0001,54,SYSBP,Systolic Blood Pressure,93.9,mmHg,93.9,93.9,mmHg,,,,,7.0,WEEK 24,TREATMENT,2024-10-21,174,,,,,
M19-977-RISA-PED,VS,M19-977-RISA-PED-CZE_SITE01-0001,55,TEMP,Temperature,37.4,C,37.4,37.4,C,,,,,7.0,WEEK 24,TREATMENT,2024-10-21,174,,,,,
M19-977-RISA-PED,VS,M19-977-RISA-PED-CZE_SITE01-0001,56,WEIGHT,Weight,63.2,kg,63.2,63.2,kg,,,,,7.0,WEEK 24,TREATMENT,2024-10-21,174,,,,,
M19-977-RISA-PED,VS,M19-977-RISA-PED-CZE_SITE01-0001,57,BMI,BMI,,,24.0,24.0,kg/m2,,,,Y,8.0,WEEK 36,TREATMENT,2025-01-06,251,,,,,
M19-977-RISA-PED,VS,M19-977-RISA-PED-CZE_SITE01-0001,58,DIABP,Diastolic Blood Pressure,77.1,mmHg,77.1,77.1,mmHg,,,,,8.0,WEEK 36,TREATMENT,2025-01-06,251,,,,,
M19-977-RISA-PED,VS,M19-977-RISA-PED-CZE_SITE01-0001,59,HEIGHT,Height,161.9,cm,161.9,161.9,cm,,,,,8.0,WEEK 36,TREATMENT,2025-01-06,251,,,,,
M19-977-RISA-PED,VS,M19-977-RISA-PED-CZE_SITE01-0001,60,PULSE,Pulse Rate,94.7,beats/min,94.7,94.7,beats/min,,,,,8.0,WEEK 36,TREATMENT,2025-01-06,251,,,,,
M19-977-RISA-PED,VS,M19-977-RISA-PED-CZE_SITE01-0001,61,RESP,Respiratory Rate,17.6,breaths/min,17.6,17.6,breaths/min,,,,,8.0,WEEK 36,TREATMENT,2025-01-06,251,,,,,
M19-977-RISA-PED,VS,M19-977-RISA-PED-CZE_SITE01-0001,62,SYSBP,Systolic Blood Pressure,97.7,mmHg,97.7,97.7,mmHg,,,,,8.0,WEEK 36,TREATMENT,2025-01-06,251,,,,,
M19-977-RISA-PED,VS,M19-977-RISA-PED-CZE_SITE01-0001,63,TEMP,Temperature,37.2,C,37.2,37.2,C,,,,,8.0,WEEK 36,TREATMENT,2025-01-06,251,,,,,
M19-977-RISA-PED,VS,M19-977-RISA-PED-CZE_SITE01-0001,64,WEIGHT,Weight,62.9,kg,62.9,62.9,kg,,,,,8.0,WEEK 36,TREATMENT,2025-01-06,251,,,,,
M19-977-RISA-PED,VS,M19-977-RISA-PED-CZE_SITE01-0001,65,BMI,BMI,,,23.2,23.2,kg/m2,,,,Y,9.0,WEEK 40 EOT,TREATMENT,2025-02-12,288,,,,,
M19-977-RISA-PED,VS,M19-977-RISA-PED-CZE_SITE01-0001,66,DIABP,Diastolic Blood Pressure,76.2,mmHg,76.2,76.2,mmHg,,,,,9.0,WEEK 40 EOT,TREATMENT,2025-02-12,288,,,,,
M19-977-RISA-PED,VS,M19-977-RISA-PED-CZE_SITE01-0001,67,HEIGHT,Height,162.0,cm,162.0,162.0,cm,,,,,9.0,WEEK 40 EOT,TREATMENT,2025-02-12,288,,,,,
M19-977-RISA-PED,VS,M19-977-RISA-PED-CZE_SITE01-0001,68,PULSE,Pulse Rate,90.8,beats/min,90.8,90.8,beats/min,,,,,9.0,WEEK 40 EOT,TREATMENT,2025-02-12,288,,,,,
M19-977-RISA-PED,VS,M19-977-RISA-PED-CZE_SITE01-0001,69,RESP,Respiratory Rate,16.2,breaths/min,16.2,16.2,breaths/min,,,,,9.0,WEEK 40 EOT,TREATMENT,2025-02-12,288,,,,,
M19-977-RISA-PED,VS,M19-977-RISA-PED-CZE_SITE01-0001,70,SYSBP,Systolic Blood Pressure,99.3,mmHg,99.3,99.3,mmHg,,,,,9.0,WEEK 40 EOT,TREATMENT,2025-02-12,288,,,,,
M19-977-RISA-PED,VS,M19-977-RISA-PED-CZE_SITE01-0001,71,TEMP,Temperature,36.9,C,36.9,36.9,C,,,,,9.0,WEEK 40 EOT,TREATMENT,2025-02-12,288,,,,,
M19-977-RISA-PED,VS,M19-977-RISA-PED-CZE_SITE01-0001,72,WEIGHT,Weight,60.9,kg,60.9,60.9,kg,,,,,9.0,WEEK 40 EOT,TREATMENT,2025-02-12,288,,,,,
M19-977-RISA-PED,VS,M19-977-RISA-PED-CZE_SITE01-0001,73,BMI,BMI,,,22.4,22.4,kg/m2,,,,Y,10.0,WEEK 60 FU,FOLLOW-UP,2025-07-02,428,,,,,
M19-977-RISA-PED,VS,M19-977-RISA-PED-CZE_SITE01-0001,74,DIABP,Diastolic Blood Pressure,74.1,mmHg,74.1,74.1,mmHg,,,,,10.0,WEEK 60 FU,FOLLOW-UP,2025-07-02,428,,,,,
M19-977-RISA-PED,VS,M19-977-RISA-PED-CZE_SITE01-0001,75,HEIGHT,Height,162.4,cm,162.4,162.4,cm,,,,,10.0,WEEK 60 FU,FOLLOW-UP,2025-07-02,428,,,,,
M19-977-RISA-PED,VS,M19-977-RISA-PED-CZE_SITE01-0001,76,PULSE,Pulse Rate,84.6,beats/min,84.6,84.6,beats/min,,,,,10.0,WEEK 60 FU,FOLLOW-UP,2025-07-02,428,,,,,
M19-977-RISA-PED,VS,M19-977-RISA-PED-CZE_SITE01-0001,77,RESP,Respiratory Rate,,,,,,NOT DONE,,,,10.0,WEEK 60 FU,FOLLOW-UP,2025-07-02,428,,,,,
M19-977-RISA-PED,VS,M19-977-RISA-PED-CZE_SITE01-0001,78,SYSBP,Systolic Blood Pressure,98.9,mmHg,98.9,98.9,mmHg,,,,,10.0,WEEK 60 FU,FOLLOW-UP,2025-07-02,428,,,,,
M19-977-RISA-PED,VS,M19-977-RISA-PED-CZE_SITE01-0001,79,TEMP,Temperature,37.3,C,37.3,37.3,C,,,,,10.0,WEEK 60 FU,FOLLOW-UP,2025-07-02,428,,,,,
M19-977-RISA-PED,VS,M19-977-RISA-PED-CZE_SITE01-0001,80,WEIGHT,Weight,59.2,kg,59.2,59.2,kg,,,,,10.0,WEEK 60 FU,FOLLOW-UP,2025-07-02,428,,,,,
M19-977-RISA-PED,VS,M19-977-RISA-PED-CZE_SITE01-0010,1,BMI,BMI,,,18.0,18.0,kg/m2,,,,Y,1.0,SCREENING,SCREENING,2024-01-27,-49,,,,,
M19-977-RISA-PED,VS,M19-977-RISA-PED-CZE_SITE01-0010,2,DIABP,Diastolic Blood Pressure,70.0,mmHg,70.0,70.0,mmHg,,,,,1.0,SCREENING,SCREENING,2024-01-27,-49,,,,,
M19-977-RISA-PED,VS,M19-977-RISA-PED-CZE_SITE01-0010,3,HEIGHT,Height,153.1,cm,153.1,153.1,cm,,,,,1.0,SCREENING,SCREENING,2024-01-27,-49,,,,,
M19-977-RISA-PED,VS,M19-977-RISA-PED-CZE_SITE01-0010,4,PULSE,Pulse Rate,70.3,beats/min,70.3,70.3,beats/min,,,,,1.0,SCREENING,SCREENING,2024-01-27,-49,,,,,
M19-977-RISA-PED,VS,M19-977-RISA-PED-CZE_SITE01-0010,5,RESP,Respiratory Rate,15.8,breaths/min,15.8,15.8,breaths/min,,,,,1.0,SCREENING,SCREENING,2024-01-27,-49,,,,,
M19-977-RISA-PED,VS,M19-977-RISA-PED-CZE_SITE01-0010,6,SYSBP,Systolic Blood Pressure,73.0,mmHg,73.0,73.0,mmHg,,,,,1.0,SCREENING,SCREENING,2024-01-27,-49,,,,,
M19-977-RISA-PED,VS,M19-977-RISA-PED-CZE_SITE01-0010,7,TEMP,Temperature,36.6,C,36.6,36.6,C,,,,,1.0,SCREENING,SCREENING,2024-01-27,-49,,,,,
M19-977-RISA-PED,VS,M19-977-RISA-PED-CZE_SITE01-0010,8,WEIGHT,Weight,42.2,kg,42.2,42.2,kg,,,,,1.0,SCREENING,SCREENING,2024-01-27,-49,,,,,
M19-977-RISA-PED,VS,M19-977-RISA-PED-CZE_SITE01-0010,9,BMI,BMI,,,17.8,17.8,kg/m2,,Y,Y,Y,2.0,WEEK 0 BASELINE,TREATMENT,2024-03-16,1,,,,,
M19-977-RISA-PED,VS,M19-977-RISA-PED-CZE_SITE01-0010,10,DIABP,Diastolic Blood Pressure,70.0,mmHg,70.0,70.0,mmHg,,Y,Y,,2.0,WEEK 0 BASELINE,TREATMENT,2024-03-16,1,,,,,
M19-977-RISA-PED,VS,M19-977-RISA-PED-CZE_SITE01-0010,11,HEIGHT,Height,153.2,cm,153.2,153.2,cm,,Y,Y,,2.0,WEEK 0 BASELINE,TREATMENT,2024-03-16,1,,,,,
M19-977-RISA-PED,VS,M19-977-RISA-PED-CZE_SITE01-0010,12,PULSE,Pulse Rate,72.0,beats/min,72.0,72.0,beats/min,,Y,Y,,2.0,WEEK 0 BASELINE,TREATMENT,2024-03-16,1,,,,,
M19-977-RISA-PED,VS,M19-977-RISA-PED-CZE_SITE01-0010,13,RESP,Respiratory Rate,17.2,breaths/min,17.2,17.2,breaths/min,,Y,Y,,2.0,WEEK 0 BASELINE,TREATMENT,2024-03-16,1,,,,,
M19-977-RISA-PED,VS,M19-977-RISA-PED-CZE_SITE01-0010,14,SYSBP,Systolic Blood Pressure,73.6,mmHg,73.6,73.6,mmHg,,Y,Y,,2.0,WEEK 0 BASELINE,TREATMENT,2024-03-16,1,,,,,
M19-977-RISA-PED,VS,M19-977-RISA-PED-CZE_SITE01-0010,15,TEMP,Temperature,36.6,C,36.6,36.6,C,,Y,Y,,2.0,WEEK 0 BASELINE,TREATMENT,2024-03-16,1,,,,,
M19-977-RISA-PED,VS,M19-977-RISA-PED-CZE_SITE01-0010,16,WEIGHT,Weight,41.8,kg,41.8,41.8,kg,,Y,Y,,2.0,WEEK 0 BASELINE,TREATMENT,2024-03-16,1,,,,,
M19-977-RISA-PED,VS,M19-977-RISA-PED-CZE_SITE01-0010,17,BMI,BMI,,,17.4,17.4,kg/m2,,,,Y,3.0,WEEK 4,TREATMENT,2024-04-13,29,,,,,
M19-977-RISA-PED,VS,M19-977-RISA-PED-CZE_SITE01-0010,18,DIABP,Diastolic Blood Pressure,70.0,mmHg,70.0,70.0,mmHg,,,,,3.0,WEEK 4,TREATMENT,2024-04-13,29,,,,,
M19-977-RISA-PED,VS,M19-977-RISA-PED-CZE_SITE01-0010,19,HEIGHT,Height,153.4,cm,153.4,153.4,cm,,,,,3.0,WEEK 4,TREATMENT,2024-04-13,29,,,,,
M19-977-RISA-PED,VS,M19-977-RISA-PED-CZE_SITE01-0010,20,PULSE,Pulse Rate,69.4,beats/min,69.4,69.4,beats/min,,,,,3.0,WEEK 4,TREATMENT,2024-04-13,29,,,,,
M19-977-RISA-PED,VS,M19-977-RISA-PED-CZE_SITE01-0010,21,RESP,Respiratory Rate,16.3,breaths/min,16.3,16.3,breaths/min,,,,,3.0,WEEK 4,TREATMENT,2024-04-13,29,,,,,
M19-977-RISA-PED,VS,M19-977-RISA-PED-CZE_SITE01-0010,22,SYSBP,Systolic Blood Pressure,73.0,mmHg,73.0,73.0,mmHg,,,,,3.0,WEEK 4,TREATMENT,2024-04-13,29,,,,,
M19-977-RISA-PED,VS,M19-977-RISA-PED-CZE_SITE01-0010,23,TEMP,Temperature,36.7,C,36.7,36.7,C,,,,,3.0,WEEK 4,TREATMENT,2024-04-13,29,,,,,
M19-977-RISA-PED,VS,M19-977-RISA-PED-CZE_SITE01-0010,24,WEIGHT,Weight,41.0,kg,41.0,41.0,kg,,,,,3.0,WEEK 4,TREATMENT,2024-04-13,29,,,,,
M19-977-RISA-PED,VS,M19-977-RISA-PED-CZE_SITE01-0010,25,BMI,BMI,,,17.8,17.8,kg/m2,,,,Y,4.0,WEEK 8,TREATMENT,2024-05-11,57,,,,,
M19-977-RISA-PED,VS,M19-977-RISA-PED-CZE_SITE01-0010,26,DIABP,Diastolic Blood Pressure,70.0,mmHg,70.0,70.0,mmHg,,,,,4.0,WEEK 8,TREATMENT,2024-05-11,57,,,,,
M19-977-RISA-PED,VS,M19-977-RISA-PED-CZE_SITE01-0010,27,HEIGHT,Height,152.9,cm,152.9,152.9,cm,,,,,4.0,WEEK 8,TREATMENT,2024-05-11,57,,,,,
M19-977-RISA-PED,VS,M19-977-RISA-PED-CZE_SITE01-0010,28,PULSE,Pulse Rate,67.4,beats/min,67.4,67.4,beats/min,,,,,4.0,WEEK 8,TREATMENT,2024-05-11,57,,,,,
M19-977-RISA-PED,VS,M19-977-RISA-PED-CZE_SITE01-0010,29,RESP,Respiratory Rate,15.0,breaths/min,15.0,15.0,breaths/min,,,,,4.0,WEEK 8,TREATMENT,2024-05-11,57,,,,,
M19-977-RISA-PED,VS,M19-977-RISA-PED-CZE_SITE01-0010,30,SYSBP,Systolic Blood Pressure,72.6,mmHg,72.6,72.6,mmHg,,,,,4.0,WEEK 8,TREATMENT,2024-05-11,57,,,,,
M19-977-RISA-PED,VS,M19-977-RISA-PED-CZE_SITE01-0010,31,TEMP,Temperature,36.5,C,36.5,36.5,C,,,,,4.0,WEEK 8,TREATMENT,2024-05-11,57,,,,,
M19-977-RISA-PED,VS,M19-977-RISA-PED-CZE_SITE01-0010,32,WEIGHT,Weight,41.5,kg,41.5,41.5,kg,,,,,4.0,WEEK 8,TREATMENT,2024-05-11,57,,,,,
M19-977-RISA-PED,VS,M19-977-RISA-PED-CZE_SITE01-0010,33,BMI,BMI,,,17.4,17.4,kg/m2,,,,Y,5.0,WEEK 12,TREATMENT,2024-06-10,87,,,,,
M19-977-RISA-PED,VS,M19-977-RISA-PED-CZE_SITE01-0010,34,DIABP,Diastolic Blood Pressure,70.0,mmHg,70.0,70.0,mmHg,,,,,5.0,WEEK 12,TREATMENT,2024-06-10,87,,,,,
M19-977-RISA-PED,VS,M19-977-RISA-PED-CZE_SITE01-0010,35,HEIGHT,Height,153.5,cm,153.5,153.5,cm,,,,,5.0,WEEK 12,TREATMENT,2024-06-10,87,,,,,
M19-977-RISA-PED,VS,M19-977-RISA-PED-CZE_SITE01-0010,36,PULSE,Pulse Rate,67.8,beats/min,67.8,67.8,beats/min,,,,,5.0,WEEK 12,TREATMENT,2024-06-10,87,,,,,
M19-977-RISA-PED,VS,M19-977-RISA-PED-CZE_SITE01-0010,37,RESP,Respiratory Rate,14.9,breaths/min,14.9,14.9,breaths/min,,,,,5.0,WEEK 12,TREATMENT,2024-06-10,87,,,,,
M19-977-RISA-PED,VS,M19-977-RISA-PED-CZE_SITE01-0010,38,SYSBP,Systolic Blood Pressure,72.7,mmHg,72.7,72.7,mmHg,,,,,5.0,WEEK 12,TREATMENT,2024-06-10,87,,,,,
M19-977-RISA-PED,VS,M19-977-RISA-PED-CZE_SITE01-0010,39,TEMP,Temperature,36.6,C,36.6,36.6,C,,,,,5.0,WEEK 12,TREATMENT,2024-06-10,87,,,,,
M19-977-RISA-PED,VS,M19-977-RISA-PED-CZE_SITE01-0010,40,WEIGHT,Weight,40.9,kg,40.9,40.9,kg,,,,,5.0,WEEK 12,TREATMENT,2024-06-10,87,,,,,
M19-977-RISA-PED,VS,M19-977-RISA-PED-CZE_SITE01-0010,41,BMI,BMI,,,17.2,17.2,kg/m2,,,,Y,6.0,WEEK 16,TREATMENT,2024-07-02,109,,,,,
M19-977-RISA-PED,VS,M19-977-RISA-PED-CZE_SITE01-0010,42,DIABP,Diastolic Blood Pressure,70.0,mmHg,70.0,70.0,mmHg,,,,,6.0,WEEK 16,TREATMENT,2024-07-02,109,,,,,
M19-977-RISA-PED,VS,M19-977-RISA-PED-CZE_SITE01-0010,43,HEIGHT,Height,154.1,cm,154.1,154.1,cm,,,,,6.0,WEEK 16,TREATMENT,2024-07-02,109,,,,,
M19-977-RISA-PED,VS,M19-977-RISA-PED-CZE_SITE01-0010,44,PULSE,Pulse Rate,64.3,beats/min,64.3,64.3,beats/min,,,,,6.0,WEEK 16,TREATMENT,2024-07-02,109,,,,,
M19-977-RISA-PED,VS,M19-977-RISA-PED-CZE_SITE01-0010,45,RESP,Respiratory Rate,16.5,breaths/min,16.5,16.5,breaths/min,,,,,6.0,WEEK 16,TREATMENT,2024-07-02,109,,,,,
M19-977-RISA-PED,VS,M19-977-RISA-PED-CZE_SITE01-0010,46,SYSBP,Systolic Blood Pressure,73.3,mmHg,73.3,73.3,mmHg,,,,,6.0,WEEK 16,TREATMENT,2024-07-02,109,,,,,
M19-977-RISA-PED,VS,M19-977-RISA-PED-CZE_SITE01-0010,47,TEMP,Temperature,36.7,C,36.7,36.7,C,,,,,6.0,WEEK 16,TREATMENT,2024-07-02,109,,,,,
M19-977-RISA-PED,VS,M19-977-RISA-PED-CZE_SITE01-0010,48,WEIGHT,Weight,40.9,kg,40.9,40.9,kg,,,,,6.0,WEEK 16,TREATMENT,2024-07-02,109,,,,,
M19-977-RISA-PED,VS,M19-977-RISA-PED-CZE_SITE01-0012,1,BMI,BMI,,,38.0,38.0,kg/m2,,,,Y,1.0,SCREENING,SCREENING,2024-01-21,-46,,,,,
M19-977-RISA-PED,VS,M19-977-RISA-PED-CZE_SITE01-0012,2,DIABP,Diastolic Blood Pressure,79.1,mmHg,79.1,79.1,mmHg,,,,,1.0,SCREENING,SCREENING,2024-01-21,-46,,,,,
M19-977-RISA-PED,VS,M19-977-RISA-PED-CZE_SITE01-0012,3,HEIGHT,Height,157.7,cm,157.7,157.7,cm,,,,,1.0,SCREENING,SCREENING,2024-01-21,-46,,,,,
M19-977-RISA-PED,VS,M19-977-RISA-PED-CZE_SITE01-0012,4,PULSE,Pulse Rate,84.4,beats/min,84.4,84.4,beats/min,,,,,1.0,SCREENING,SCREENING,2024-01-21,-46,,,,,
M19-977-RISA-PED,VS,M19-977-RISA-PED-CZE_SITE01-0012,5,RESP,Respiratory Rate,15.8,breaths/min,15.8,15.8,breaths/min,,,,,1.0,SCREENING,SCREENING,2024-01-21,-46,,,,,
M19-977-RISA-PED,VS,M19-977-RISA-PED-CZE_SITE01-0012,6,SYSBP,Systolic Blood Pressure,143.8,mmHg,143.8,143.8,mmHg,,,,,1.0,SCREENING,SCREENING,2024-01-21,-46,,,,,
M19-977-RISA-PED,VS,M19-977-RISA-PED-CZE_SITE01-0012,7,TEMP,Temperature,37.1,C,37.1,37.1,C,,,,,1.0,SCREENING,SCREENING,2024-01-21,-46,,,,,
M19-977-RISA-PED,VS,M19-977-RISA-PED-CZE_SITE01-0012,8,WEIGHT,Weight,94.4,kg,94.4,94.4,kg,,,,,1.0,SCREENING,SCREENING,2024-01-21,-46,,,,,
M19-977-RISA-PED,VS,M19-977-RISA-PED-CZE_SITE01-0012,9,BMI,BMI,,,38.8,38.8,kg/m2,,Y,Y,Y,2.0,WEEK 0 BASELINE,TREATMENT,2024-03-07,1,,,,,
M19-977-RISA-PED,VS,M19-977-RISA-PED-CZE_SITE01-0012,10,DIABP,Diastolic Blood Pressure,80.0,mmHg,80.0,80.0,mmHg,,Y,Y,,2.0,WEEK 0 BASELINE,TREATMENT,2024-03-07,1,,,,,
M19-977-RISA-PED,VS,M19-977-RISA-PED-CZE_SITE01-0012,11,HEIGHT,Height,157.7,cm,157.7,157.7,cm,,Y,Y,,2.0,WEEK 0 BASELINE,TREATMENT,2024-03-07,1,,,,,
M19-977-RISA-PED,VS,M19-977-RISA-PED-CZE_SITE01-0012,12,PULSE,Pulse Rate,84.9,beats/min,84.9,84.9,beats/min,,Y,Y,,2.0,WEEK 0 BASELINE,TREATMENT,2024-03-07,1,,,,,
M19-977-RISA-PED,VS,M19-977-RISA-PED-CZE_SITE01-0012,13,RESP,Respiratory Rate,15.7,breaths/min,15.7,15.7,breaths/min,,Y,Y,,2.0,WEEK 0 BASELINE,TREATMENT,2024-03-07,1,,,,,
M19-977-RISA-PED,VS,M19-977-RISA-PED-CZE_SITE01-0012,14,SYSBP,Systolic Blood Pressure,143.8,mmHg,143.8,143.8,mmHg,,Y,Y,,2.0,WEEK 0 BASELINE,TREATMENT,2024-03-07,1,,,,,
M19-977-RISA-PED,VS,M19-977-RISA-PED-CZE_SITE01-0012,15,TEMP,Temperature,37.0,C,37.0,37.0,C,,Y,Y,,2.0,WEEK 0 BASELINE,TREATMENT,2024-03-07,1,,,,,
M19-977-RISA-PED,VS,M19-977-RISA-PED-CZE_SITE01-0012,16,WEIGHT,Weight,96.5,kg,96.5,96.5,kg,,Y,Y,,2.0,WEEK 0 BASELINE,TREATMENT,2024-03-07,1,,,,,
M19-977-RISA-PED,VS,M19-977-RISA-PED-CZE_SITE01-0012,17,BMI,BMI,,,39.0,39.0,kg/m2,,,,Y,3.0,WEEK 4,TREATMENT,2024-04-01,26,,,,,
M19-977-RISA-PED,VS,M19-977-RISA-PED-CZE_SITE01-0012,18,DIABP,Diastolic Blood Pressure,78.6,mmHg,78.6,78.6,mmHg,,,,,3.0,WEEK 4,TREATMENT,2024-04-01,26,,,,,
M19-977-RISA-PED,VS,M19-977-RISA-PED-CZE_SITE01-0012,19,HEIGHT,Height,157.4,cm,157.4,157.4,cm,,,,,3.0,WEEK 4,TREATMENT,2024-04-01,26,,,,,
M19-977-RISA-PED,VS,M19-977-RISA-PED-CZE_SITE01-0012,20,PULSE,Pulse Rate,90.4,beats/min,90.4,90.4,beats/min,,,,,3.0,WEEK 4,TREATMENT,2024-04-01,26,,,,,
M19-977-RISA-PED,VS,M19-977-RISA-PED-CZE_SITE01-0012,21,RESP,Respiratory Rate,15.9,breaths/min,15.9,15.9,breaths/min,,,,,3.0,WEEK 4,TREATMENT,2024-04-01,26,,,,,
M19-977-RISA-PED,VS,M19-977-RISA-PED-CZE_SITE01-0012,22,SYSBP,Systolic Blood Pressure,144.2,mmHg,144.2,144.2,mmHg,,,,,3.0,WEEK 4,TREATMENT,2024-04-01,26,,,,,
M19-977-RISA-PED,VS,M19-977-RISA-PED-CZE_SITE01-0012,23,TEMP,Temperature,37.0,C,37.0,37.0,C,,,,,3.0,WEEK 4,TREATMENT,2024-04-01,26,,,,,
M19-977-RISA-PED,VS,M19-977-RISA-PED-CZE_SITE01-0012,24,WEIGHT,Weight,96.7,kg,96.7,96.7,kg,,,,,3.0,WEEK 4,TREATMENT,2024-04-01,26,,,,,
M19-977-RISA-PED,VS,M19-977-RISA-PED-CZE_SITE01-0012,25,BMI,BMI,,,39.4,39.4,kg/m2,,,,Y,4.0,WEEK 8,TREATMENT,2024-05-01,56,,,,,
M19-977-RISA-PED,VS,M19-977-RISA-PED-CZE_SITE01-0012,26,DIABP,Diastolic Blood Pressure,79.2,mmHg,79.2,79.2,mmHg,,,,,4.0,WEEK 8,TREATMENT,2024-05-01,56,,,,,
M19-977-RISA-PED,VS,M19-977-RISA-PED-CZE_SITE01-0012,27,HEIGHT,Height,157.6,cm,157.6,157.6,cm,,,,,4.0,WEEK 8,TREATMENT,2024-05-01,56,,,,,
M19-977-RISA-PED,VS,M19-977-RISA-PED-CZE_SITE01-0012,28,PULSE,Pulse Rate,88.0,beats/min,88.0,88.0,beats/min,,,,,4.0,WEEK 8,TREATMENT,2024-05-01,56,,,,,
M19-977-RISA-PED,VS,M19-977-RISA-PED-CZE_SITE01-0012,29,RESP,Respiratory Rate,16.9,breaths/min,16.9,16.9,breaths/min,,,,,4.0,WEEK 8,TREATMENT,2024-05-01,56,,,,,
M19-977-RISA-PED,VS,M19-977-RISA-PED-CZE_SITE01-0012,30,SYSBP,Systolic Blood Pressure,141.2,mmHg,141.2,141.2,mmHg,,,,,4.0,WEEK 8,TREATMENT,2024-05-01,56,,,,,
M19-977-RISA-PED,VS,M19-977-RISA-PED-CZE_SITE01-0012,31,TEMP,Temperature,36.9,C,36.9,36.9,C,,,,,4.0,WEEK 8,TREATMENT,2024-05-01,56,,,,,
M19-977-RISA-PED,VS,M19-977-RISA-PED-CZE_SITE01-0012,32,WEIGHT,Weight,97.9,kg,97.9,97.9,kg,,,,,4.0,WEEK 8,TREATMENT,2024-05-01,56,,,,,
M19-977-RISA-PED,VS,M19-977-RISA-PED-CZE_SITE01-0012,33,BMI,BMI,,,40.2,40.2,kg/m2,,,,Y,5.0,WEEK 12,TREATMENT,2024-06-01,87,,,,,
M19-977-RISA-PED,VS,M19-977-RISA-PED-CZE_SITE01-0012,34,DIABP,Diastolic Blood Pressure,80.3,mmHg,80.3,80.3,mmHg,,,,,5.0,WEEK 12,TREATMENT,2024-06-01,87,,,,,
M19-977-RISA-PED,VS,M19-977-RISA-PED-CZE_SITE01-0012,35,HEIGHT,Height,157.5,cm,157.5,157.5,cm,,,,,5.0,WEEK 12,TREATMENT,2024-06-01,87,,,,,
M19-977-RISA-PED,VS,M19-977-RISA-PED-CZE_SITE01-0012,36,PULSE,Pulse Rate,85.7,beats/min,85.7,85.7,beats/min,,,,,5.0,WEEK 12,TREATMENT,2024-06-01,87,,,,,
M19-977-RISA-PED,VS,M19-977-RISA-PED-CZE_SITE01-0012,37,RESP,Respiratory Rate,16.4,breaths/min,16.4,16.4,breaths/min,,,,,5.0,WEEK 12,TREATMENT,2024-06-01,87,,,,,
M19-977-RISA-PED,VS,M19-977-RISA-PED-CZE_SITE01-0012,38,SYSBP,Systolic Blood Pressure,142.8,mmHg,142.8,142.8,mmHg,,,,,5.0,WEEK 12,TREATMENT,2024-06-01,87,,,,,
M19-977-RISA-PED,VS,M19-977-RISA-PED-CZE_SITE01-0012,39,TEMP,Temperature,37.0,C,37.0,37.0,C,,,,,5.0,WEEK 12,TREATMENT,2024-06-01,87,,,,,
M19-977-RISA-PED,VS,M19-977-RISA-PED-CZE_SITE01-0012,40,WEIGHT,Weight,99.6,kg,99.6,99.6,kg,,,,,5.0,WEEK 12,TREATMENT,2024-06-01,87,,,,,
M19-977-RISA-PED,VS,M19-977-RISA-PED-CZE_SITE01-0012,41,BMI,BMI,,,37.8,37.8,kg/m2,,,,Y,6.0,WEEK 16,TREATMENT,2024-06-24,110,,,,,
M19-977-RISA-PED,VS,M19-977-RISA-PED-CZE_SITE01-0012,42,DIABP,Diastolic Blood Pressure,80.5,mmHg,80.5,80.5,mmHg,,,,,6.0,WEEK 16,TREATMENT,2024-06-24,110,,,,,
M19-977-RISA-PED,VS,M19-977-RISA-PED-CZE_SITE01-0012,43,HEIGHT,Height,157.4,cm,157.4,157.4,cm,,,,,6.0,WEEK 16,TREATMENT,2024-06-24,110,,,,,
M19-977-RISA-PED,VS,M19-977-RISA-PED-CZE_SITE01-0012,44,PULSE,Pulse Rate,85.4,beats/min,85.4,85.4,beats/min,,,,,6.0,WEEK 16,TREATMENT,2024-06-24,110,,,,,
M19-977-RISA-PED,VS,M19-977-RISA-PED-CZE_SITE01-0012,45,RESP,Respiratory Rate,15.3,breaths/min,15.3,15.3,breaths/min,,,,,6.0,WEEK 16,TREATMENT,2024-06-24,110,,,,,
M19-977-RISA-PED,VS,M19-977-RISA-PED-CZE_SITE01-0012,46,SYSBP,Systolic Blood Pressure,141.8,mmHg,141.8,141.8,mmHg,,,,,6.0,WEEK 16,TREATMENT,2024-06-24,110,,,,,
M19-977-RISA-PED,VS,M19-977-RISA-PED-CZE_SITE01-0012,47,TEMP,Temperature,36.9,C,36.9,36.9,C,,,,,6.0,WEEK 16,TREATMENT,2024-06-24,110,,,,,
M19-977-RISA-PED,VS,M19-977-RISA-PED-CZE_SITE01-0012,48,WEIGHT,Weight,93.7,kg,93.7,93.7,kg,,,,,6.0,WEEK 16,TREATMENT,2024-06-24,110,,,,,
M19-977-RISA-PED,VS,M19-977-RISA-PED-CZE_SITE01-0018,1,BMI,BMI,,,24.8,24.8,kg/m2,,,,Y,1.0,SCREENING,SCREENING,2024-04-01,-39,,,,,
M19-977-RISA-PED,VS,M19-977-RISA-PED-CZE_SITE01-0018,2,DIABP,Diastolic Blood Pressure,68.4,mmHg,68.4,68.4,mmHg,,,,,1.0,SCREENING,SCREENING,2024-04-01,-39,,,,,
M19-977-RISA-PED,VS,M19-977-RISA-PED-CZE_SITE01-0018,3,HEIGHT,Height,162.6,cm,162.6,162.6,cm,,,,,1.0,SCREENING,SCREENING,2024-04-01,-39,,,,,
M19-977-RISA-PED,VS,M19-977-RISA-PED-CZE_SITE01-0018,4,PULSE,Pulse Rate,82.0,beats/min,82.0,82.0,beats/min,,,,,1.0,SCREENING,SCREENING,2024-04-01,-39,,,,,
M19-977-RISA-PED,VS,M19-977-RISA-PED-CZE_SITE01-0018,5,RESP,Respiratory Rate,14.9,breaths/min,14.9,14.9,breaths/min,,,,,1.0,SCREENING,SCREENING,2024-04-01,-39,,,,,
M19-977-RISA-PED,VS,M19-977-RISA-PED-CZE_SITE01-0018,6,SYSBP,Systolic Blood Pressure,105.3,mmHg,105.3,105.3,mmHg,,,,,1.0,SCREENING,SCREENING,2024-04-01,-39,,,,,
M19-977-RISA-PED,VS,M19-977-RISA-PED-CZE_SITE01-0018,7,TEMP,Temperature,37.4,C,37.4,37.4,C,,,,,1.0,SCREENING,SCREENING,2024-04-01,-39,,,,,
M19-977-RISA-PED,VS,M19-977-RISA-PED-CZE_SITE01-0018,8,WEIGHT,Weight,65.5,kg,65.5,65.5,kg,,,,,1.0,SCREENING,SCREENING,2024-04-01,-39,,,,,
M19-977-RISA-PED,VS,M19-977-RISA-PED-CZE_SITE01-0018,9,BMI,BMI,,,24.2,24.2,kg/m2,,Y,Y,Y,2.0,WEEK 0 BASELINE,TREATMENT,2024-05-10,1,,,,,
M19-977-RISA-PED,VS,M19-977-RISA-PED-CZE_SITE01-0018,10,DIABP,Diastolic Blood Pressure,69.2,mmHg,69.2,69.2,mmHg,,Y,Y,,2.0,WEEK 0 BASELINE,TREATMENT,2024-05-10,1,,,,,
M19-977-RISA-PED,VS,M19-977-RISA-PED-CZE_SITE01-0018,11,HEIGHT,Height,162.4,cm,162.4,162.4,cm,,Y,Y,,2.0,WEEK 0 BASELINE,TREATMENT,2024-05-10,1,,,,,
M19-977-RISA-PED,VS,M19-977-RISA-PED-CZE_SITE01-0018,12,PULSE,Pulse Rate,79.6,beats/min,79.6,79.6,beats/min,,Y,Y,,2.0,WEEK 0 BASELINE,TREATMENT,2024-05-10,1,,,,,
M19-977-RISA-PED,VS,M19-977-RISA-PED-CZE_SITE01-0018,13,RESP,Respiratory Rate,15.0,breaths/min,15.0,15.0,breaths/min,,Y,Y,,2.0,WEEK 0 BASELINE,TREATMENT,2024-05-10,1,,,,,
M19-977-RISA-PED,VS,M19-977-RISA-PED-CZE_SITE01-0018,14,SYSBP,Systolic Blood Pressure,106.4,mmHg,106.4,106.4,mmHg,,Y,Y,,2.0,WEEK 0 BASELINE,TREATMENT,2024-05-10,1,,,,,
M19-977-RISA-PED,VS,M19-977-RISA-PED-CZE_SITE01-0018,15,TEMP,Temperature,37.4,C,37.4,37.4,C,,Y,Y,,2.0,WEEK 0 BASELINE,TREATMENT,2024-05-10,1,,,,,
M19-977-RISA-PED,VS,M19-977-RISA-PED-CZE_SITE01-0018,16,WEIGHT,Weight,63.8,kg,63.8,63.8,kg,,Y,Y,,2.0,WEEK 0 BASELINE,TREATMENT,2024-05-10,1,,,,,
M19-977-RISA-PED,VS,M19-977-RISA-PED-CZE_SITE01-0018,17,BMI,BMI,,,23.6,23.6,kg/m2,,,,Y,3.0,WEEK 4,TREATMENT,2024-06-06,28,,,,,
M19-977-RISA-PED,VS,M19-977-RISA-PED-CZE_SITE01-0018,18,DIABP,Diastolic Blood Pressure,68.1,mmHg,68.1,68.1,mmHg,,,,,3.0,WEEK 4,TREATMENT,2024-06-06,28,,,,,
M19-977-RISA-PED,VS,M19-977-RISA-PED-CZE_SITE01-0018,19,HEIGHT,Height,162.2,cm,162.2,162.2,cm,,,,,3.0,WEEK 4,TREATMENT,2024-06-06,28,,,,,
M19-977-RISA-PED,VS,M19-977-RISA-PED-CZE_SITE01-0018,20,PULSE,Pulse Rate,81.3,beats/min,81.3,81.3,beats/min,,,,,3.0,WEEK 4,TREATMENT,2024-06-06,28,,,,,
M19-977-RISA-PED,VS,M19-977-RISA-PED-CZE_SITE01-0018,21,RESP,Respiratory Rate,13.9,breaths/min,13.9,13.9,breaths/min,,,,,3.0,WEEK 4,TREATMENT,2024-06-06,28,,,,,
M19-977-RISA-PED,VS,M19-977-RISA-PED-CZE_SITE01-0018,22,SYSBP,Systolic Blood Pressure,106.1,mmHg,106.1,106.1,mmHg,,,,,3.0,WEEK 4,TREATMENT,2024-06-06,28,,,,,
M19-977-RISA-PED,VS,M19-977-RISA-PED-CZE_SITE01-0018,23,TEMP,Temperature,37.4,C,37.4,37.4,C,,,,,3.0,WEEK 4,TREATMENT,2024-06-06,28,,,,,
M19-977-RISA-PED,VS,M19-977-RISA-PED-CZE_SITE01-0018,24,WEIGHT,Weight,62.2,kg,62.2,62.2,kg,,,,,3.0,WEEK 4,TREATMENT,2024-06-06,28,,,,,
M19-977-RISA-PED,VS,M19-977-RISA-PED-CZE_SITE01-0018,25,BMI,BMI,,,24.2,24.2,kg/m2,,,,Y,4.0,WEEK 8,TREATMENT,2024-07-08,60,,,,,
M19-977-RISA-PED,VS,M19-977-RISA-PED-CZE_SITE01-0018,26,DIABP,Diastolic Blood Pressure,68.9,mmHg,68.9,68.9,mmHg,,,,,4.0,WEEK 8,TREATMENT,2024-07-08,60,,,,,
M19-977-RISA-PED,VS,M19-977-RISA-PED-CZE_SITE01-0018,27,HEIGHT,Height,162.6,cm,162.6,162.6,cm,,,,,4.0,WEEK 8,TREATMENT,2024-07-08,60,,,,,
M19-977-RISA-PED,VS,M19-977-RISA-PED-CZE_SITE01-0018,28,PULSE,Pulse Rate,84.7,beats/min,84.7,84.7,beats/min,,,,,4.0,WEEK 8,TREATMENT,2024-07-08,60,,,,,
M19-977-RISA-PED,VS,M19-977-RISA-PED-CZE_SITE01-0018,29,RESP,Respiratory Rate,16.4,breaths/min,16.4,16.4,breaths/min,,,,,4.0,WEEK 8,TREATMENT,2024-07-08,60,,,,,
M19-977-RISA-PED,VS,M19-977-RISA-PED-CZE_SITE01-0018,30,SYSBP,Systolic Blood Pressure,107.1,mmHg,107.1,107.1,mmHg,,,,,4.0,WEEK 8,TREATMENT,2024-07-08,60,,,,,
M19-977-RISA-PED,VS,M19-977-RISA-PED-CZE_SITE01-0018,31,TEMP,Temperature,37.5,C,37.5,37.5,C,,,,,4.0,WEEK 8,TREATMENT,2024-07-08,60,,,,,
M19-977-RISA-PED,VS,M19-977-RISA-PED-CZE_SITE01-0018,32,WEIGHT,Weight,63.9,kg,63.9,63.9,kg,,,,,4.0,WEEK 8,TREATMENT,2024-07-08,60,,,,,
M19-977-RISA-PED,VS,M19-977-RISA-PED-CZE_SITE01-0018,33,BMI,BMI,,,24.6,24.6,kg/m2,,,,Y,6.0,WEEK 16,TREATMENT,2024-08-25,108,,,,,
M19-977-RISA-PED,VS,M19-977-RISA-PED-CZE_SITE01-0018,34,DIABP,Diastolic Blood Pressure,66.1,mmHg,66.1,66.1,mmHg,,,,,6.0,WEEK 16,TREATMENT,2024-08-25,108,,,,,
M19-977-RISA-PED,VS,M19-977-RISA-PED-CZE_SITE01-0018,35,HEIGHT,Height,162.9,cm,162.9,162.9,cm,,,,,6.0,WEEK 16,TREATMENT,2024-08-25,108,,,,,
M19-977-RISA-PED,VS,M19-977-RISA-PED-CZE_SITE01-0018,36,PULSE,Pulse Rate,82.7,beats/min,82.7,82.7,beats/min,,,,,6.0,WEEK 16,TREATMENT,2024-08-25,108,,,,,
M19-977-RISA-PED,VS,M19-977-RISA-PED-CZE_SITE01-0018,37,RESP,Respiratory Rate,15.6,breaths/min,15.6,15.6,breaths/min,,,,,6.0,WEEK 16,TREATMENT,2024-08-25,108,,,,,
M19-977-RISA-PED,VS,M19-977-RISA-PED-CZE_SITE01-0018,38,SYSBP,Systolic Blood Pressure,104.2,mmHg,104.2,104.2,mmHg,,,,,6.0,WEEK 16,TREATMENT,2024-08-25,108,,,,,
M19-977-RISA-PED,VS,M19-977-RISA-PED-CZE_SITE01-0018,39,TEMP,Temperature,37.4,C,37.4,37.4,C,,,,,6.0,WEEK 16,TREATMENT,2024-08-25,108,,,,,
M19-977-RISA-PED,VS,M19-977-RISA-PED-CZE_SITE01-0018,40,WEIGHT,Weight,65.4,kg,65.4,65.4,kg,,,,,6.0,WEEK 16,TREATMENT,2024-08-25,108,,,,,
M19-977-RISA-PED,VS,M19-977-RISA-PED-CZE_SITE01-0018,41,BMI,BMI,,,25.0,25.0,kg/m2,,,,Y,7.0,WEEK 24,TREATMENT,2024-10-21,165,,,,,
M19-977-RISA-PED,VS,M19-977-RISA-PED-CZE_SITE01-0018,42,DIABP,Diastolic Blood Pressure,67.2,mmHg,67.2,67.2,mmHg,,,,,7.0,WEEK 24,TREATMENT,2024-10-21,165,,,,,
M19-977-RISA-PED,VS,M19-977-RISA-PED-CZE_SITE01-0018,43,HEIGHT,Height,161.9,cm,161.9,161.9,cm,,,,,7.0,WEEK 24,TREATMENT,2024-10-21,165,,,,,
M19-977-RISA-PED,VS,M19-977-RISA-PED-CZE_SITE01-0018,44,PULSE,Pulse Rate,83.2,beats/min,83.2,83.2,beats/min,,,,,7.0,WEEK 24,TREATMENT,2024-10-21,165,,,,,
M19-977-RISA-PED,VS,M19-977-RISA-PED-CZE_SITE01-0018,45,RESP,Respiratory Rate,15.0,breaths/min,15.0,15.0,breaths/min,,,,,7.0,WEEK 24,TREATMENT,2024-10-21,165,,,,,
M19-977-RISA-PED,VS,M19-977-RISA-PED-CZE_SITE01-0018,46,SYSBP,Systolic Blood Pressure,105.2,mmHg,105.2,105.2,mmHg,,,,,7.0,WEEK 24,TREATMENT,2024-10-21,165,,,,,
M19-977-RISA-PED,VS,M19-977-RISA-PED-CZE_SITE01-0018,47,TEMP,Temperature,37.4,C,37.4,37.4,C,,,,,7.0,WEEK 24,TREATMENT,2024-10-21,165,,,,,
M19-977-RISA-PED,VS,M19-977-RISA-PED-CZE_SITE01-0018,48,WEIGHT,Weight,65.5,kg,65.5,65.5,kg,,,,,7.0,WEEK 24,TREATMENT,2024-10-21,165,,,,,
M19-977-RISA-PED,VS,M19-977-RISA-PED-CZE_SITE01-0018,49,DIABP,Diastolic Blood Pressure,68.4,mmHg,68.4,68.4,mmHg,,,,,8.0,WEEK 36,TREATMENT,2025-01-12,248,,,,,
M19-977-RISA-PED,VS,M19-977-RISA-PED-CZE_SITE01-0018,50,HEIGHT,Height,,,,,,NOT DONE,,,,8.0,WEEK 36,TREATMENT,2025-01-12,248,,,,,
M19-977-RISA-PED,VS,M19-977-RISA-PED-CZE_SITE01-0018,51,PULSE,Pulse Rate,88.3,beats/min,88.3,88.3,beats/min,,,,,8.0,WEEK 36,TREATMENT,2025-01-12,248,,,,,
M19-977-RISA-PED,VS,M19-977-RISA-PED-CZE_SITE01-0018,52,RESP,Respiratory Rate,16.5,breaths/min,16.5,16.5,breaths/min,,,,,8.0,WEEK 36,TREATMENT,2025-01-12,248,,,,,
M19-977-RISA-PED,VS,M19-977-RISA-PED-CZE_SITE01-0018,53,SYSBP,Systolic Blood Pressure,106.9,mmHg,106.9,106.9,mmHg,,,,,8.0,WEEK 36,TREATMENT,2025-01-12,248,,,,,
M19-977-RISA-PED,VS,M19-977-RISA-PED-CZE_SITE01-0018,54,TEMP,Temperature,37.3,C,37.3,37.3,C,,,,,8.0,WEEK 36,TREATMENT,2025-01-12,248,,,,,
M19-977-RISA-PED,VS,M19-977-RISA-PED-CZE_SITE01-0018,55,WEIGHT,Weight,66.1,kg,66.1,66.1,kg,,,,,8.0,WEEK 36,TREATMENT,2025-01-12,248,,,,,
M19-977-RISA-PED,VS,M19-977-RISA-PED-CZE_SITE01-0018,56,BMI,BMI,,,25.0,25.0,kg/m2,,,,Y,9.0,WEEK 40 EOT,TREATMENT,2025-02-16,283,,,,,
M19-977-RISA-PED,VS,M19-977-RISA-PED-CZE_SITE01-0018,57,DIABP,Diastolic Blood Pressure,67.2,mmHg,67.2,67.2,mmHg,,,,,9.0,WEEK 40 EOT,TREATMENT,2025-02-16,283,,,,,
M19-977-RISA-PED,VS,M19-977-RISA-PED-CZE_SITE01-0018,58,HEIGHT,Height,162.5,cm,162.5,162.5,cm,,,,,9.0,WEEK 40 EOT,TREATMENT,2025-02-16,283,,,,,
M19-977-RISA-PED,VS,M19-977-RISA-PED-CZE_SITE01-0018,59,PULSE,Pulse Rate,87.3,beats/min,87.3,87.3,beats/min,,,,,9.0,WEEK 40 EOT,TREATMENT,2025-02-16,283,,,,,
M19-977-RISA-PED,VS,M19-977-RISA-PED-CZE_SITE01-0018,60,RESP,Respiratory Rate,14.1,breaths/min,14.1,14.1,breaths/min,,,,,9.0,WEEK 40 EOT,TREATMENT,2025-02-16,283,,,,,
M19-977-RISA-PED,VS,M19-977-RISA-PED-CZE_SITE01-0018,61,SYSBP,Systolic Blood Pressure,108.6,mmHg,108.6,108.6,mmHg,,,,,9.0,WEEK 40 EOT,TREATMENT,2025-02-16,283,,,,,
M19-977-RISA-PED,VS,M19-977-RISA-PED-CZE_SITE01-0018,62,TEMP,Temperature,37.4,C,37.4,37.4,C,,,,,9.0,WEEK 40 EOT,TREATMENT,2025-02-16,283,,,,,
M19-977-RISA-PED,VS,M19-977-RISA-PED-CZE_SITE01-0018,63,WEIGHT,Weight,66.0,kg,66.0,66.0,kg,,,,,9.0,WEEK 40 EOT,TREATMENT,2025-02-16,283,,,,,
M19-977-RISA-PED,VS,M19-977-RISA-PED-CZE_SITE01-0018,64,BMI,BMI,,,24.0,24.0,kg/m2,,,,Y,10.0,WEEK 60 FU,FOLLOW-UP,2025-06-25,412,,,,,
M19-977-RISA-PED,VS,M19-977-RISA-PED-CZE_SITE01-0018,65,DIABP,Diastolic Blood Pressure,66.5,mmHg,66.5,66.5,mmHg,,,,,10.0,WEEK 60 FU,FOLLOW-UP,2025-06-25,412,,,,,
M19-977-RISA-PED,VS,M19-977-RISA-PED-CZE_SITE01-0018,66,HEIGHT,Height,162.5,cm,162.5,162.5,cm,,,,,10.0,WEEK 60 FU,FOLLOW-UP,2025-06-25,412,,,,,
M19-977-RISA-PED,VS,M19-977-RISA-PED-CZE_SITE01-0018,67,PULSE,Pulse Rate,86.3,beats/min,86.3,86.3,beats/min,,,,,10.0,WEEK 60 FU,FOLLOW-UP,2025-06-25,412,,,,,
M19-977-RISA-PED,VS,M19-977-RISA-PED-CZE_SITE01-0018,68,RESP,Respiratory Rate,15.9,breaths/min,15.9,15.9,breaths/min,,,,,10.0,WEEK 60 FU,FOLLOW-UP,2025-06-25,412,,,,,
M19-977-RISA-PED,VS,M19-977-RISA-PED-CZE_SITE01-0018,69,SYSBP,Systolic Blood Pressure,106.8,mmHg,106.8,106.8,mmHg,,,,,10.0,WEEK 60 FU,FOLLOW-UP,2025-06-25,412,,,,,
M19-977-RISA-PED,VS,M19-977-RISA-PED-CZE_SITE01-0018,70,TEMP,Temperature,37.4,C,37.4,37.4,C,,,,,10.0,WEEK 60 FU,FOLLOW-UP,2025-06-25,412,,,,,
M19-977-RISA-PED,VS,M19-977-RISA-PED-CZE_SITE01-0018,71,WEIGHT,Weight,63.4,kg,63.4,63.4,kg,,,,,10.0,WEEK 60 FU,FOLLOW-UP,2025-06-25,412,,,,,
M19-977-RISA-PED,VS,M19-977-RISA-PED-DEU_SITE01-0007,1,BMI,BMI,,,16.8,16.8,kg/m2,,,,Y,1.0,SCREENING,SCREENING,2024-01-19,-37,,,,,
M19-977-RISA-PED,VS,M19-977-RISA-PED-DEU_SITE01-0007,2,DIABP,Diastolic Blood Pressure,68.8,mmHg,68.8,68.8,mmHg,,,,,1.0,SCREENING,SCREENING,2024-01-19,-37,,,,,
M19-977-RISA-PED,VS,M19-977-RISA-PED-DEU_SITE01-0007,3,HEIGHT,Height,189.8,cm,189.8,189.8,cm,,,,,1.0,SCREENING,SCREENING,2024-01-19,-37,,,,,
M19-977-RISA-PED,VS,M19-977-RISA-PED-DEU_SITE01-0007,4,PULSE,Pulse Rate,62.5,beats/min,62.5,62.5,beats/min,,,,,1.0,SCREENING,SCREENING,2024-01-19,-37,,,,,
M19-977-RISA-PED,VS,M19-977-RISA-PED-DEU_SITE01-0007,5,RESP,Respiratory Rate,20.7,breaths/min,20.7,20.7,breaths/min,,,,,1.0,SCREENING,SCREENING,2024-01-19,-37,,,,,
M19-977-RISA-PED,VS,M19-977-RISA-PED-DEU_SITE01-0007,6,SYSBP,Systolic Blood Pressure,109.0,mmHg,109.0,109.0,mmHg,,,,,1.0,SCREENING,SCREENING,2024-01-19,-37,,,,,
M19-977-RISA-PED,VS,M19-977-RISA-PED-DEU_SITE01-0007,7,TEMP,Temperature,37.4,C,37.4,37.4,C,,,,,1.0,SCREENING,SCREENING,2024-01-19,-37,,,,,
M19-977-RISA-PED,VS,M19-977-RISA-PED-DEU_SITE01-0007,8,WEIGHT,Weight,60.4,kg,60.4,60.4,kg,,,,,1.0,SCREENING,SCREENING,2024-01-19,-37,,,,,
M19-977-RISA-PED,VS,M19-977-RISA-PED-DEU_SITE01-0007,9,BMI,BMI,,,18.0,18.0,kg/m2,,Y,Y,Y,2.0,WEEK 0 BASELINE,TREATMENT,2024-02-25,1,,,,,
M19-977-RISA-PED,VS,M19-977-RISA-PED-DEU_SITE01-0007,10,DIABP,Diastolic Blood Pressure,66.3,mmHg,66.3,66.3,mmHg,,Y,Y,,2.0,WEEK 0 BASELINE,TREATMENT,2024-02-25,1,,,,,
M19-977-RISA-PED,VS,M19-977-RISA-PED-DEU_SITE01-0007,11,HEIGHT,Height,189.5,cm,189.5,189.5,cm,,Y,Y,,2.0,WEEK 0 BASELINE,TREATMENT,2024-02-25,1,,,,,
M19-977-RISA-PED,VS,M19-977-RISA-PED-DEU_SITE01-0007,12,PULSE,Pulse Rate,62.0,beats/min,62.0,62.0,beats/min,,Y,Y,,2.0,WEEK 0 BASELINE,TREATMENT,2024-02-25,1,,,,,
M19-977-RISA-PED,VS,M19-977-RISA-PED-DEU_SITE01-0007,13,RESP,Respiratory Rate,20.8,breaths/min,20.8,20.8,breaths/min,,Y,Y,,2.0,WEEK 0 BASELINE,TREATMENT,2024-02-25,1,,,,,
M19-977-RISA-PED,VS,M19-977-RISA-PED-DEU_SITE01-0007,14,SYSBP,Systolic Blood Pressure,107.6,mmHg,107.6,107.6,mmHg,,Y,Y,,2.0,WEEK 0 BASELINE,TREATMENT,2024-02-25,1,,,,,
M19-977-RISA-PED,VS,M19-977-RISA-PED-DEU_SITE01-0007,15,TEMP,Temperature,37.4,C,37.4,37.4,C,,Y,Y,,2.0,WEEK 0 BASELINE,TREATMENT,2024-02-25,1,,,,,
M19-977-RISA-PED,VS,M19-977-RISA-PED-DEU_SITE01-0007,16,WEIGHT,Weight,64.5,kg,64.5,64.5,kg,,Y,Y,,2.0,WEEK 0 BASELINE,TREATMENT,2024-02-25,1,,,,,
M19-977-RISA-PED,VS,M19-977-RISA-PED-DEU_SITE01-0007,17,BMI,BMI,,,17.6,17.6,kg/m2,,,,Y,3.0,WEEK 4,TREATMENT,2024-03-23,28,,,,,
M19-977-RISA-PED,VS,M19-977-RISA-PED-DEU_SITE01-0007,18,DIABP,Diastolic Blood Pressure,,,,,,NOT DONE,,,,3.0,WEEK 4,TREATMENT,2024-03-23,28,,,,,
M19-977-RISA-PED,VS,M19-977-RISA-PED-DEU_SITE01-0007,19,HEIGHT,Height,189.2,cm,189.2,189.2,cm,,,,,3.0,WEEK 4,TREATMENT,2024-03-23,28,,,,,
M19-977-RISA-PED,VS,M19-977-RISA-PED-DEU_SITE01-0007,20,PULSE,Pulse Rate,63.0,beats/min,63.0,63.0,beats/min,,,,,3.0,WEEK 4,TREATMENT,2024-03-23,28,,,,,
M19-977-RISA-PED,VS,M19-977-RISA-PED-DEU_SITE01-0007,21,RESP,Respiratory Rate,21.4,breaths/min,21.4,21.4,breaths/min,,,,,3.0,WEEK 4,TREATMENT,2024-03-23,28,,,,,
M19-977-RISA-PED,VS,M19-977-RISA-PED-DEU_SITE01-0007,22,SYSBP,Systolic Blood Pressure,110.6,mmHg,110.6,110.6,mmHg,,,,,3.0,WEEK 4,TREATMENT,2024-03-23,28,,,,,
M19-977-RISA-PED,VS,M19-977-RISA-PED-DEU_SITE01-0007,23,TEMP,Temperature,37.5,C,37.5,37.5,C,,,,,3.0,WEEK 4,TREATMENT,2024-03-23,28,,,,,
M19-977-RISA-PED,VS,M19-977-RISA-PED-DEU_SITE01-0007,24,WEIGHT,Weight,63.1,kg,63.1,63.1,kg,,,,,3.0,WEEK 4,TREATMENT,2024-03-23,28,,,,,
M19-977-RISA-PED,VS,M19-977-RISA-PED-DEU_SITE01-0007,25,BMI,BMI,,,17.8,17.8,kg/m2,,,,Y,4.0,WEEK 8,TREATMENT,2024-04-23,59,,,,,
M19-977-RISA-PED,VS,M19-977-RISA-PED-DEU_SITE01-0007,26,DIABP,Diastolic Blood Pressure,67.2,mmHg,67.2,67.2,mmHg,,,,,4.0,WEEK 8,TREATMENT,2024-04-23,59,,,,,
M19-977-RISA-PED,VS,M19-977-RISA-PED-DEU_SITE01-0007,27,HEIGHT,Height,189.1,cm,189.1,189.1,cm,,,,,4.0,WEEK 8,TREATMENT,2024-04-23,59,,,,,
M19-977-RISA-PED,VS,M19-977-RISA-PED-DEU_SITE01-0007,28,PULSE,Pulse Rate,62.0,beats/min,62.0,62.0,beats/min,,,,,4.0,WEEK 8,TREATMENT,2024-04-23,59,,,,,
M19-977-RISA-PED,VS,M19-977-RISA-PED-DEU_SITE01-0007,29,RESP,Respiratory Rate,19.9,breaths/min,19.9,19.9,breaths/min,,,,,4.0,WEEK 8,TREATMENT,2024-04-23,59,,,,,
M19-977-RISA-PED,VS,M19-977-RISA-PED-DEU_SITE01-0007,30,SYSBP,Systolic Blood Pressure,112.9,mmHg,112.9,112.9,mmHg,,,,,4.0,WEEK 8,TREATMENT,2024-04-23,59,,,,,
M19-977-RISA-PED,VS,M19-977-RISA-PED-DEU_SITE01-0007,31,TEMP,Temperature,37.5,C,37.5,37.5,C,,,,,4.0,WEEK 8,TREATMENT,2024-04-23,59,,,,,
M19-977-RISA-PED,VS,M19-977-RISA-PED-DEU_SITE01-0007,32,WEIGHT,Weight,63.5,kg,63.5,63.5,kg,,,,,4.0,WEEK 8,TREATMENT,2024-04-23,59,,,,,
M19-977-RISA-PED,VS,M19-977-RISA-PED-DEU_SITE01-0007,33,BMI,BMI,,,17.7,17.7,kg/m2,,,,Y,5.0,WEEK 12,TREATMENT,2024-05-20,86,,,,,
M19-977-RISA-PED,VS,M19-977-RISA-PED-DEU_SITE01-0007,34,DIABP,Diastolic Blood Pressure,65.7,mmHg,65.7,65.7,mmHg,,,,,5.0,WEEK 12,TREATMENT,2024-05-20,86,,,,,
M19-977-RISA-PED,VS,M19-977-RISA-PED-DEU_SITE01-0007,35,HEIGHT,Height,189.2,cm,189.2,189.2,cm,,,,,5.0,WEEK 12,TREATMENT,2024-05-20,86,,,,,
M19-977-RISA-PED,VS,M19-977-RISA-PED-DEU_SITE01-0007,36,PULSE,Pulse Rate,65.6,beats/min,65.6,65.6,beats/min,,,,,5.0,WEEK 12,TREATMENT,2024-05-20,86,,,,,
M19-977-RISA-PED,VS,M19-977-RISA-PED-DEU_SITE01-0007,37,RESP,Respiratory Rate,21.4,breaths/min,21.4,21.4,breaths/min,,,,,5.0,WEEK 12,TREATMENT,2024-05-20,86,,,,,
M19-977-RISA-PED,VS,M19-977-RISA-PED-DEU_SITE01-0007,38,SYSBP,Systolic Blood Pressure,112.0,mmHg,112.0,112.0,mmHg,,,,,5.0,WEEK 12,TREATMENT,2024-05-20,86,,,,,
M19-977-RISA-PED,VS,M19-977-RISA-PED-DEU_SITE01-0007,39,TEMP,Temperature,37.2,C,37.2,37.2,C,,,,,5.0,WEEK 12,TREATMENT,2024-05-20,86,,,,,
M19-977-RISA-PED,VS,M19-977-RISA-PED-DEU_SITE01-0007,40,WEIGHT,Weight,63.5,kg,63.5,63.5,kg,,,,,5.0,WEEK 12,TREATMENT,2024-05-20,86,,,,,
M19-977-RISA-PED,VS,M19-977-RISA-PED-DEU_SITE01-0007,41,BMI,BMI,,,18.0,18.0,kg/m2,,,,Y,6.0,WEEK 16,TREATMENT,2024-06-20,117,,,,,
M19-977-RISA-PED,VS,M19-977-RISA-PED-DEU_SITE01-0007,42,DIABP,Diastolic Blood Pressure,64.6,mmHg,64.6,64.6,mmHg,,,,,6.0,WEEK 16,TREATMENT,2024-06-20,117,,,,,
M19-977-RISA-PED,VS,M19-977-RISA-PED-DEU_SITE01-0007,43,HEIGHT,Height,189.8,cm,189.8,189.8,cm,,,,,6.0,WEEK 16,TREATMENT,2024-06-20,117,,,,,
M19-977-RISA-PED,VS,M19-977-RISA-PED-DEU_SITE01-0007,44,PULSE,Pulse Rate,65.3,beats/min,65.3,65.3,beats/min,,,,,6.0,WEEK 16,TREATMENT,2024-06-20,117,,,,,
M19-977-RISA-PED,VS,M19-977-RISA-PED-DEU_SITE01-0007,45,RESP,Respiratory Rate,22.2,breaths/min,22.2,22.2,breaths/min,,,,,6.0,WEEK 16,TREATMENT,2024-06-20,117,,,,,
M19-977-RISA-PED,VS,M19-977-RISA-PED-DEU_SITE01-0007,46,SYSBP,Systolic Blood Pressure,109.2,mmHg,109.2,109.2,mmHg,,,,,6.0,WEEK 16,TREATMENT,2024-06-20,117,,,,,
M19-977-RISA-PED,VS,M19-977-RISA-PED-DEU_SITE01-0007,47,TEMP,Temperature,37.3,C,37.3,37.3,C,,,,,6.0,WEEK 16,TREATMENT,2024-06-20,117,,,,,
M19-977-RISA-PED,VS,M19-977-RISA-PED-DEU_SITE01-0007,48,WEIGHT,Weight,65.0,kg,65.0,65.0,kg,,,,,6.0,WEEK 16,TREATMENT,2024-06-20,117,,,,,
M19-977-RISA-PED,VS,M19-977-RISA-PED-DEU_SITE01-0007,49,BMI,BMI,,,17.7,17.7,kg/m2,,,,Y,7.0,WEEK 24,TREATMENT,2024-08-17,175,,,,,
M19-977-RISA-PED,VS,M19-977-RISA-PED-DEU_SITE01-0007,50,DIABP,Diastolic Blood Pressure,63.5,mmHg,63.5,63.5,mmHg,,,,,7.0,WEEK 24,TREATMENT,2024-08-17,175,,,,,
M19-977-RISA-PED,VS,M19-977-RISA-PED-DEU_SITE01-0007,51,HEIGHT,Height,189.2,cm,189.2,189.2,cm,,,,,7.0,WEEK 24,TREATMENT,2024-08-17,175,,,,,
M19-977-RISA-PED,VS,M19-977-RISA-PED-DEU_SITE01-0007,52,PULSE,Pulse Rate,61.4,beats/min,61.4,61.4,beats/min,,,,,7.0,WEEK 24,TREATMENT,2024-08-17,175,,,,,
M19-977-RISA-PED,VS,M19-977-RISA-PED-DEU_SITE01-0007,53,RESP,Respiratory Rate,22.5,breaths/min,22.5,22.5,breaths/min,,,,,7.0,WEEK 24,TREATMENT,2024-08-17,175,,,,,
M19-977-RISA-PED,VS,M19-977-RISA-PED-DEU_SITE01-0007,54,SYSBP,Systolic Blood Pressure,107.3,mmHg,107.3,107.3,mmHg,,,,,7.0,WEEK 24,TREATMENT,2024-08-17,175,,,,,
M19-977-RISA-PED,VS,M19-977-RISA-PED-DEU_SITE01-0007,55,TEMP,Temperature,37.4,C,37.4,37.4,C,,,,,7.0,WEEK 24,TREATMENT,2024-08-17,175,,,,,
M19-977-RISA-PED,VS,M19-977-RISA-PED-DEU_SITE01-0007,56,WEIGHT,Weight,63.2,kg,63.2,63.2,kg,,,,,7.0,WEEK 24,TREATMENT,2024-08-17,175,,,,,
M19-977-RISA-PED,VS,M19-977-RISA-PED-DEU_SITE01-0007,57,BMI,BMI,,,18.3,18.3,kg/m2,,,,Y,8.0,WEEK 36,TREATMENT,2024-11-06,256,,,,,
M19-977-RISA-PED,VS,M19-977-RISA-PED-DEU_SITE01-0007,58,DIABP,Diastolic Blood Pressure,65.5,mmHg,65.5,65.5,mmHg,,,,,8.0,WEEK 36,TREATMENT,2024-11-06,256,,,,,
M19-977-RISA-PED,VS,M19-977-RISA-PED-DEU_SITE01-0007,59,HEIGHT,Height,189.7,cm,189.7,189.7,cm,,,,,8.0,WEEK 36,TREATMENT,2024-11-06,256,,,,,
M19-977-RISA-PED,VS,M19-977-RISA-PED-DEU_SITE01-0007,60,PULSE,Pulse Rate,62.1,beats/min,62.1,62.1,beats/min,,,,,8.0,WEEK 36,TREATMENT,2024-11-06,256,,,,,
M19-977-RISA-PED,VS,M19-977-RISA-PED-DEU_SITE01-0007,61,RESP,Respiratory Rate,20.3,breaths/min,20.3,20.3,breaths/min,,,,,8.0,WEEK 36,TREATMENT,2024-11-06,256,,,,,
M19-977-RISA-PED,VS,M19-977-RISA-PED-DEU_SITE01-0007,62,SYSBP,Systolic Blood Pressure,110.2,mmHg,110.2,110.2,mmHg,,,,,8.0,WEEK 36,TREATMENT,2024-11-06,256,,,,,
M19-977-RISA-PED,VS,M19-977-RISA-PED-DEU_SITE01-0007,63,TEMP,Temperature,37.1,C,37.1,37.1,C,,,,,8.0,WEEK 36,TREATMENT,2024-11-06,256,,,,,
M19-977-RISA-PED,VS,M19-977-RISA-PED-DEU_SITE01-0007,64,WEIGHT,Weight,65.9,kg,65.9,65.9,kg,,,,,8.0,WEEK 36,TREATMENT,2024-11-06,256,,,,,
M19-977-RISA-PED,VS,M19-977-RISA-PED-DEU_SITE01-0007,65,BMI,BMI,,,17.0,17.0,kg/m2,,,,Y,9.0,WEEK 40 EOT,TREATMENT,2024-11-24,274,,,,,
M19-977-RISA-PED,VS,M19-977-RISA-PED-DEU_SITE01-0007,66,DIABP,Diastolic Blood Pressure,67.1,mmHg,67.1,67.1,mmHg,,,,,9.0,WEEK 40 EOT,TREATMENT,2024-11-24,274,,,,,
M19-977-RISA-PED,VS,M19-977-RISA-PED-DEU_SITE01-0007,67,HEIGHT,Height,190.3,cm,190.3,190.3,cm,,,,,9.0,WEEK 40 EOT,TREATMENT,2024-11-24,274,,,,,
M19-977-RISA-PED,VS,M19-977-RISA-PED-DEU_SITE01-0007,68,PULSE,Pulse Rate,63.3,beats/min,63.3,63.3,beats/min,,,,,9.0,WEEK 40 EOT,TREATMENT,2024-11-24,274,,,,,
M19-977-RISA-PED,VS,M19-977-RISA-PED-DEU_SITE01-0007,69,RESP,Respiratory Rate,22.0,breaths/min,22.0,22.0,breaths/min,,,,,9.0,WEEK 40 EOT,TREATMENT,2024-11-24,274,,,,,
M19-977-RISA-PED,VS,M19-977-RISA-PED-DEU_SITE01-0007,70,SYSBP,Systolic Blood Pressure,112.2,mmHg,112.2,112.2,mmHg,,,,,9.0,WEEK 40 EOT,TREATMENT,2024-11-24,274,,,,,
M19-977-RISA-PED,VS,M19-977-RISA-PED-DEU_SITE01-0007,71,TEMP,Temperature,37.6,C,37.6,37.6,C,,,,,9.0,WEEK 40 EOT,TREATMENT,2024-11-24,274,,,,,
M19-977-RISA-PED,VS,M19-977-RISA-PED-DEU_SITE01-0007,72,WEIGHT,Weight,61.7,kg,61.7,61.7,kg,,,,,9.0,WEEK 40 EOT,TREATMENT,2024-11-24,274,,,,,
M19-977-RISA-PED,VS,M19-977-RISA-PED-DEU_SITE01-0007,73,BMI,BMI,,,16.9,16.9,kg/m2,,,,Y,10.0,WEEK 60 FU,FOLLOW-UP,2025-05-02,433,,,,,
M19-977-RISA-PED,VS,M19-977-RISA-PED-DEU_SITE01-0007,74,DIABP,Diastolic Blood Pressure,68.1,mmHg,68.1,68.1,mmHg,,,,,10.0,WEEK 60 FU,FOLLOW-UP,2025-05-02,433,,,,,
M19-977-RISA-PED,VS,M19-977-RISA-PED-DEU_SITE01-0007,75,HEIGHT,Height,190.4,cm,190.4,190.4,cm,,,,,10.0,WEEK 60 FU,FOLLOW-UP,2025-05-02,433,,,,,
M19-977-RISA-PED,VS,M19-977-RISA-PED-DEU_SITE01-0007,76,PULSE,Pulse Rate,62.7,beats/min,62.7,62.7,beats/min,,,,,10.0,WEEK 60 FU,FOLLOW-UP,2025-05-02,433,,,,,
M19-977-RISA-PED,VS,M19-977-RISA-PED-DEU_SITE01-0007,77,RESP,Respiratory Rate,20.9,breaths/min,20.9,20.9,breaths/min,,,,,10.0,WEEK 60 FU,FOLLOW-UP,2025-05-02,433,,,,,
M19-977-RISA-PED,VS,M19-977-RISA-PED-DEU_SITE01-0007,78,SYSBP,Systolic Blood Pressure,112.3,mmHg,112.3,112.3,mmHg,,,,,10.0,WEEK 60 FU,FOLLOW-UP,2025-05-02,433,,,,,
M19-977-RISA-PED,VS,M19-977-RISA-PED-DEU_SITE01-0007,79,TEMP,Temperature,37.5,C,37.5,37.5,C,,,,,10.0,WEEK 60 FU,FOLLOW-UP,2025-05-02,433,,,,,
M19-977-RISA-PED,VS,M19-977-RISA-PED-DEU_SITE01-0007,80,WEIGHT,Weight,61.3,kg,61.3,61.3,kg,,,,,10.0,WEEK 60 FU,FOLLOW-UP,2025-05-02,433,,,,,
M19-977-RISA-PED,VS,M19-977-RISA-PED-DEU_SITE01-0008,1,BMI,BMI,,,28.3,28.3,kg/m2,,,,Y,1.0,SCREENING,SCREENING,2024-01-10,-68,,,,,
M19-977-RISA-PED,VS,M19-977-RISA-PED-DEU_SITE01-0008,2,DIABP,Diastolic Blood Pressure,79.9,mmHg,79.9,79.9,mmHg,,,,,1.0,SCREENING,SCREENING,2024-01-10,-68,,,,,
M19-977-RISA-PED,VS,M19-977-RISA-PED-DEU_SITE01-0008,3,HEIGHT,Height,160.3,cm,160.3,160.3,cm,,,,,1.0,SCREENING,SCREENING,2024-01-10,-68,,,,,
M19-977-RISA-PED,VS,M19-977-RISA-PED-DEU_SITE01-0008,4,PULSE,Pulse Rate,56.1,beats/min,56.1,56.1,beats/min,,,,,1.0,SCREENING,SCREENING,2024-01-10,-68,,,,,
M19-977-RISA-PED,VS,M19-977-RISA-PED-DEU_SITE01-0008,5,RESP,Respiratory Rate,18.2,breaths/min,18.2,18.2,breaths/min,,,,,1.0,SCREENING,SCREENING,2024-01-10,-68,,,,,
M19-977-RISA-PED,VS,M19-977-RISA-PED-DEU_SITE01-0008,6,SYSBP,Systolic Blood Pressure,159.1,mmHg,159.1,159.1,mmHg,,Y,Y,,1.0,SCREENING,SCREENING,2024-01-10,-68,,,,,
M19-977-RISA-PED,VS,M19-977-RISA-PED-DEU_SITE01-0008,7,TEMP,Temperature,37.2,C,37.2,37.2,C,,,,,1.0,SCREENING,SCREENING,2024-01-10,-68,,,,,
M19-977-RISA-PED,VS,M19-977-RISA-PED-DEU_SITE01-0008,8,WEIGHT,Weight,72.7,kg,72.7,72.7,kg,,,,,1.0,SCREENING,SCREENING,2024-01-10,-68,,,,,
M19-977-RISA-PED,VS,M19-977-RISA-PED-DEU_SITE01-0008,9,BMI,BMI,,,28.0,28.0,kg/m2,,Y,Y,Y,2.0,WEEK 0 BASELINE,TREATMENT,2024-03-18,1,,,,,
M19-977-RISA-PED,VS,M19-977-RISA-PED-DEU_SITE01-0008,10,DIABP,Diastolic Blood Pressure,79.4,mmHg,79.4,79.4,mmHg,,Y,Y,,2.0,WEEK 0 BASELINE,TREATMENT,2024-03-18,1,,,,,
M19-977-RISA-PED,VS,M19-977-RISA-PED-DEU_SITE01-0008,11,HEIGHT,Height,160.0,cm,160.0,160.0,cm,,Y,Y,,2.0,WEEK 0 BASELINE,TREATMENT,2024-03-18,1,,,,,
M19-977-RISA-PED,VS,M19-977-RISA-PED-DEU_SITE01-0008,12,PULSE,Pulse Rate,54.1,beats/min,54.1,54.1,beats/min,,Y,Y,,2.0,WEEK 0 BASELINE,TREATMENT,2024-03-18,1,,,,,
M19-977-RISA-PED,VS,M19-977-RISA-PED-DEU_SITE01-0008,13,RESP,Respiratory Rate,18.5,breaths/min,18.5,18.5,breaths/min,,Y,Y,,2.0,WEEK 0 BASELINE,TREATMENT,2024-03-18,1,,,,,
M19-977-RISA-PED,VS,M19-977-RISA-PED-DEU_SITE01-0008,14,SYSBP,Systolic Blood Pressure,,,,,,NOT DONE,,,,2.0,WEEK 0 BASELINE,TREATMENT,2024-03-18,1,,,,,
M19-977-RISA-PED,VS,M19-977-RISA-PED-DEU_SITE01-0008,15,TEMP,Temperature,37.5,C,37.5,37.5,C,,Y,Y,,2.0,WEEK 0 BASELINE,TREATMENT,2024-03-18,1,,,,,
M19-977-RISA-PED,VS,M19-977-RISA-PED-DEU_SITE01-0008,16,WEIGHT,Weight,71.8,kg,71.8,71.8,kg,,Y,Y,,2.0,WEEK 0 BASELINE,TREATMENT,2024-03-18,1,,,,,
M19-977-RISA-PED,VS,M19-977-RISA-PED-DEU_SITE01-0008,17,BMI,BMI,,,28.8,28.8,kg/m2,,,,Y,3.0,WEEK 4,TREATMENT,2024-04-15,29,,,,,
M19-977-RISA-PED,VS,M19-977-RISA-PED-DEU_SITE01-0008,18,DIABP,Diastolic Blood Pressure,80.4,mmHg,80.4,80.4,mmHg,,,,,3.0,WEEK 4,TREATMENT,2024-04-15,29,,,,,
M19-977-RISA-PED,VS,M19-977-RISA-PED-DEU_SITE01-0008,19,HEIGHT,Height,160.6,cm,160.6,160.6,cm,,,,,3.0,WEEK 4,TREATMENT,2024-04-15,29,,,,,
M19-977-RISA-PED,VS,M19-977-RISA-PED-DEU_SITE01-0008,20,PULSE,Pulse Rate,58.2,beats/min,58.2,58.2,beats/min,,,,,3.0,WEEK 4,TREATMENT,2024-04-15,29,,,,,
M19-977-RISA-PED,VS,M19-977-RISA-PED-DEU_SITE01-0008,21,RESP,Respiratory Rate,18.8,breaths/min,18.8,18.8,breaths/min,,,,,3.0,WEEK 4,TREATMENT,2024-04-15,29,,,,,
M19-977-RISA-PED,VS,M19-977-RISA-PED-DEU_SITE01-0008,22,SYSBP,Systolic Blood Pressure,163.0,mmHg,163.0,163.0,mmHg,,,,,3.0,WEEK 4,TREATMENT,2024-04-15,29,,,,,
M19-977-RISA-PED,VS,M19-977-RISA-PED-DEU_SITE01-0008,23,TEMP,Temperature,37.3,C,37.3,37.3,C,,,,,3.0,WEEK 4,TREATMENT,2024-04-15,29,,,,,
M19-977-RISA-PED,VS,M19-977-RISA-PED-DEU_SITE01-0008,24,WEIGHT,Weight,74.4,kg,74.4,74.4,kg,,,,,3.0,WEEK 4,TREATMENT,2024-04-15,29,,,,,
M19-977-RISA-PED,VS,M19-977-RISA-PED-DEU_SITE01-0008,25,BMI,BMI,,,29.4,29.4,kg/m2,,,,Y,4.0,WEEK 8,TREATMENT,2024-05-13,57,,,,,
M19-977-RISA-PED,VS,M19-977-RISA-PED-DEU_SITE01-0008,26,DIABP,Diastolic Blood Pressure,80.9,mmHg,80.9,80.9,mmHg,,,,,4.0,WEEK 8,TREATMENT,2024-05-13,57,,,,,
M19-977-RISA-PED,VS,M19-977-RISA-PED-DEU_SITE01-0008,27,HEIGHT,Height,160.5,cm,160.5,160.5,cm,,,,,4.0,WEEK 8,TREATMENT,2024-05-13,57,,,,,
M19-977-RISA-PED,VS,M19-977-RISA-PED-DEU_SITE01-0008,28,PULSE,Pulse Rate,59.0,beats/min,59.0,59.0,beats/min,,,,,4.0,WEEK 8,TREATMENT,2024-05-13,57,,,,,
M19-977-RISA-PED,VS,M19-977-RISA-PED-DEU_SITE01-0008,29,RESP,Respiratory Rate,18.9,breaths/min,18.9,18.9,breaths/min,,,,,4.0,WEEK 8,TREATMENT,2024-05-13,57,,,,,
M19-977-RISA-PED,VS,M19-977-RISA-PED-DEU_SITE01-0008,30,SYSBP,Systolic Blood Pressure,162.3,mmHg,162.3,162.3,mmHg,,,,,4.0,WEEK 8,TREATMENT,2024-05-13,57,,,,,
M19-977-RISA-PED,VS,M19-977-RISA-PED-DEU_SITE01-0008,31,TEMP,Temperature,37.4,C,37.4,37.4,C,,,,,4.0,WEEK 8,TREATMENT,2024-05-13,57,,,,,
M19-977-RISA-PED,VS,M19-977-RISA-PED-DEU_SITE01-0008,32,WEIGHT,Weight,75.8,kg,75.8,75.8,kg,,,,,4.0,WEEK 8,TREATMENT,2024-05-13,57,,,,,
M19-977-RISA-PED,VS,M19-977-RISA-PED-DEU_SITE01-0008,33,BMI,BMI,,,29.8,29.8,kg/m2,,,,Y,6.0,WEEK 16,TREATMENT,2024-07-13,118,,,,,
M19-977-RISA-PED,VS,M19-977-RISA-PED-DEU_SITE01-0008,34,DIABP,Diastolic Blood Pressure,80.9,mmHg,80.9,80.9,mmHg,,,,,6.0,WEEK 16,TREATMENT,2024-07-13,118,,,,,
M19-977-RISA-PED,VS,M19-977-RISA-PED-DEU_SITE01-0008,35,HEIGHT,Height,160.4,cm,160.4,160.4,cm,,,,,6.0,WEEK 16,TREATMENT,2024-07-13,118,,,,,
M19-977-RISA-PED,VS,M19-977-RISA-PED-DEU_SITE01-0008,36,PULSE,Pulse Rate,54.7,beats/min,54.7,54.7,beats/min,,,,,6.0,WEEK 16,TREATMENT,2024-07-13,118,,,,,
M19-977-RISA-PED,VS,M19-977-RISA-PED-DEU_SITE01-0008,37,RESP,Respiratory Rate,18.7,breaths/min,18.7,18.7,breaths/min,,,,,6.0,WEEK 16,TREATMENT,2024-07-13,118,,,,,
M19-977-RISA-PED,VS,M19-977-RISA-PED-DEU_SITE01-0008,38,SYSBP,Systolic Blood Pressure,161.1,mmHg,161.1,161.1,mmHg,,,,,6.0,WEEK 16,TREATMENT,2024-07-13,118,,,,,
M19-977-RISA-PED,VS,M19-977-RISA-PED-DEU_SITE01-0008,39,TEMP,Temperature,37.4,C,37.4,37.4,C,,,,,6.0,WEEK 16,TREATMENT,2024-07-13,118,,,,,
M19-977-RISA-PED,VS,M19-977-RISA-PED-DEU_SITE01-0008,40,WEIGHT,Weight,76.7,kg,76.7,76.7,kg,,,,,6.0,WEEK 16,TREATMENT,2024-07-13,118,,,,,
M19-977-RISA-PED,VS,M19-977-RISA-PED-DEU_SITE01-0008,41,BMI,BMI,,,29.7,29.7,kg/m2,,,,Y,7.0,WEEK 24,TREATMENT,2024-08-28,164,,,,,
M19-977-RISA-PED,VS,M19-977-RISA-PED-DEU_SITE01-0008,42,DIABP,Diastolic Blood Pressure,79.7,mmHg,79.7,79.7,mmHg,,,,,7.0,WEEK 24,TREATMENT,2024-08-28,164,,,,,
M19-977-RISA-PED,VS,M19-977-RISA-PED-DEU_SITE01-0008,43,HEIGHT,Height,160.9,cm,160.9,160.9,cm,,,,,7.0,WEEK 24,TREATMENT,2024-08-28,164,,,,,
M19-977-RISA-PED,VS,M19-977-RISA-PED-DEU_SITE01-0008,44,PULSE,Pulse Rate,55.5,beats/min,55.5,55.5,beats/min,,,,,7.0,WEEK 24,TREATMENT,2024-08-28,164,,,,,
M19-977-RISA-PED,VS,M19-977-RISA-PED-DEU_SITE01-0008,45,RESP,Respiratory Rate,17.4,breaths/min,17.4,17.4,breaths/min,,,,,7.0,WEEK 24,TREATMENT,2024-08-28,164,,,,,
M19-977-RISA-PED,VS,M19-977-RISA-PED-DEU_SITE01-0008,46,SYSBP,Systolic Blood Pressure,159.8,mmHg,159.8,159.8,mmHg,,,,,7.0,WEEK 24,TREATMENT,2024-08-28,164,,,,,
M19-977-RISA-PED,VS,M19-977-RISA-PED-DEU_SITE01-0008,47,TEMP,Temperature,37.5,C,37.5,37.5,C,,,,,7.0,WEEK 24,TREATMENT,2024-08-28,164,,,,,
M19-977-RISA-PED,VS,M19-977-RISA-PED-DEU_SITE01-0008,48,WEIGHT,Weight,77.0,kg,77.0,77.0,kg,,,,,7.0,WEEK 24,TREATMENT,2024-08-28,164,,,,,
M19-977-RISA-PED,VS,M19-977-RISA-PED-DEU_SITE01-0008,49,DIABP,Diastolic Blood Pressure,77.3,mmHg,77.3,77.3,mmHg,,,,,9.0,WEEK 40 EOT,TREATMENT,2024-12-30,288,,,,,
M19-977-RISA-PED,VS,M19-977-RISA-PED-DEU_SITE01-0008,50,HEIGHT,Height,,,,,,NOT DONE,,,,9.0,WEEK 40 EOT,TREATMENT,2024-12-30,288,,,,,
M19-977-RISA-PED,VS,M19-977-RISA-PED-DEU_SITE01-0008,51,PULSE,Pulse Rate,58.3,beats/min,58.3,58.3,beats/min,,,,,9.0,WEEK 40 EOT,TREATMENT,2024-12-30,288,,,,,
M19-977-RISA-PED,VS,M19-977-RISA-PED-DEU_SITE01-0008,52,RESP,Respiratory Rate,17.1,breaths/min,17.1,17.1,breaths/min,,,,,9.0,WEEK 40 EOT,TREATMENT,2024-12-30,288,,,,,
M19-977-RISA-PED,VS,M19-977-RISA-PED-DEU_SITE01-0008,53,SYSBP,Systolic Blood Pressure,154.6,mmHg,154.6,154.6,mmHg,,,,,9.0,WEEK 40 EOT,TREATMENT,2024-12-30,288,,,,,
M19-977-RISA-PED,VS,M19-977-RISA-PED-DEU_SITE01-0008,54,TEMP,Temperature,37.3,C,37.3,37.3,C,,,,,9.0,WEEK 40 EOT,TREATMENT,2024-12-30,288,,,,,
M19-977-RISA-PED,VS,M19-977-RISA-PED-DEU_SITE01-0008,55,WEIGHT,Weight,79.4,kg,79.4,79.4,kg,,,,,9.0,WEEK 40 EOT,TREATMENT,2024-12-30,288,,,,,
M19-977-RISA-PED,VS,M19-977-RISA-PED-ESP_SITE01-0019,1,BMI,BMI,,,22.1,22.1,kg/m2,,Y,Y,Y,1.0,SCREENING,SCREENING,2023-12-24,-47,,,,,
M19-977-RISA-PED,VS,M19-977-RISA-PED-ESP_SITE01-0019,2,DIABP,Diastolic Blood Pressure,91.8,mmHg,91.8,91.8,mmHg,,,,,1.0,SCREENING,SCREENING,2023-12-24,-47,,,,,
M19-977-RISA-PED,VS,M19-977-RISA-PED-ESP_SITE01-0019,3,HEIGHT,Height,173.4,cm,173.4,173.4,cm,,,,,1.0,SCREENING,SCREENING,2023-12-24,-47,,,,,
M19-977-RISA-PED,VS,M19-977-RISA-PED-ESP_SITE01-0019,4,PULSE,Pulse Rate,87.9,beats/min,87.9,87.9,beats/min,,,,,1.0,SCREENING,SCREENING,2023-12-24,-47,,,,,
M19-977-RISA-PED,VS,M19-977-RISA-PED-ESP_SITE01-0019,5,RESP,Respiratory Rate,14.6,breaths/min,14.6,14.6,breaths/min,,,,,1.0,SCREENING,SCREENING,2023-12-24,-47,,,,,
M19-977-RISA-PED,VS,M19-977-RISA-PED-ESP_SITE01-0019,6,SYSBP,Systolic Blood Pressure,96.7,mmHg,96.7,96.7,mmHg,,,,,1.0,SCREENING,SCREENING,2023-12-24,-47,,,,,
M19-977-RISA-PED,VS,M19-977-RISA-PED-ESP_SITE01-0019,7,TEMP,Temperature,37.0,C,37.0,37.0,C,,,,,1.0,SCREENING,SCREENING,2023-12-24,-47,,,,,
M19-977-RISA-PED,VS,M19-977-RISA-PED-ESP_SITE01-0019,8,WEIGHT,Weight,66.4,kg,66.4,66.4,kg,,Y,Y,,1.0,SCREENING,SCREENING,2023-12-24,-47,,,,,
M19-977-RISA-PED,VS,M19-977-RISA-PED-ESP_SITE01-0019,9,DIABP,Diastolic Blood Pressure,93.0,mmHg,93.0,93.0,mmHg,,Y,Y,,2.0,WEEK 0 BASELINE,TREATMENT,2024-02-09,1,,,,,
M19-977-RISA-PED,VS,M19-977-RISA-PED-ESP_SITE01-0019,10,HEIGHT,Height,174.0,cm,174.0,174.0,cm,,Y,Y,,2.0,WEEK 0 BASELINE,TREATMENT,2024-02-09,1,,,,,
M19-977-RISA-PED,VS,M19-977-RISA-PED-ESP_SITE01-0019,11,PULSE,Pulse Rate,86.2,beats/min,86.2,86.2,beats/min,,Y,Y,,2.0,WEEK 0 BASELINE,TREATMENT,2024-02-09,1,,,,,
M19-977-RISA-PED,VS,M19-977-RISA-PED-ESP_SITE01-0019,12,RESP,Respiratory Rate,14.9,breaths/min,14.9,14.9,breaths/min,,Y,Y,,2.0,WEEK 0 BASELINE,TREATMENT,2024-02-09,1,,,,,
M19-977-RISA-PED,VS,M19-977-RISA-PED-ESP_SITE01-0019,13,SYSBP,Systolic Blood Pressure,97.1,mmHg,97.1,97.1,mmHg,,Y,Y,,2.0,WEEK 0 BASELINE,TREATMENT,2024-02-09,1,,,,,
M19-977-RISA-PED,VS,M19-977-RISA-PED-ESP_SITE01-0019,14,TEMP,Temperature,36.9,C,36.9,36.9,C,,Y,Y,,2.0,WEEK 0 BASELINE,TREATMENT,2024-02-09,1,,,,,
M19-977-RISA-PED,VS,M19-977-RISA-PED-ESP_SITE01-0019,15,WEIGHT,Weight,,,,,,NOT DONE,,,,2.0,WEEK 0 BASELINE,TREATMENT,2024-02-09,1,,,,,
M19-977-RISA-PED,VS,M19-977-RISA-PED-ESP_SITE01-0019,16,BMI,BMI,,,21.8,21.8,kg/m2,,,,Y,3.0,WEEK 4,TREATMENT,2024-03-05,26,,,,,
M19-977-RISA-PED,VS,M19-977-RISA-PED-ESP_SITE01-0019,17,DIABP,Diastolic Blood Pressure,93.0,mmHg,93.0,93.0,mmHg,,,,,3.0,WEEK 4,TREATMENT,2024-03-05,26,,,,,
M19-977-RISA-PED,VS,M19-977-RISA-PED-ESP_SITE01-0019,18,HEIGHT,Height,173.4,cm,173.4,173.4,cm,,,,,3.0,WEEK 4,TREATMENT,2024-03-05,26,,,,,
M19-977-RISA-PED,VS,M19-977-RISA-PED-ESP_SITE01-0019,19,PULSE,Pulse Rate,84.0,beats/min,84.0,84.0,beats/min,,,,,3.0,WEEK 4,TREATMENT,2024-03-05,26,,,,,
M19-977-RISA-PED,VS,M19-977-RISA-PED-ESP_SITE01-0019,20,RESP,Respiratory Rate,14.5,breaths/min,14.5,14.5,breaths/min,,,,,3.0,WEEK 4,TREATMENT,2024-03-05,26,,,,,
M19-977-RISA-PED,VS,M19-977-RISA-PED-ESP_SITE01-0019,21,SYSBP,Systolic Blood Pressure,96.6,mmHg,96.6,96.6,mmHg,,,,,3.0,WEEK 4,TREATMENT,2024-03-05,26,,,,,
M19-977-RISA-PED,VS,M19-977-RISA-PED-ESP_SITE01-0019,22,TEMP,Temperature,36.9,C,36.9,36.9,C,,,,,3.0,WEEK 4,TREATMENT,2024-03-05,26,,,,,
M19-977-RISA-PED,VS,M19-977-RISA-PED-ESP_SITE01-0019,23,WEIGHT,Weight,65.5,kg,65.5,65.5,kg,,,,,3.0,WEEK 4,TREATMENT,2024-03-05,26,,,,,
M19-977-RISA-PED,VS,M19-977-RISA-PED-ESP_SITE01-0019,24,BMI,BMI,,,22.1,22.1,kg/m2,,,,Y,4.0,WEEK 8,TREATMENT,2024-04-02,54,,,,,
M19-977-RISA-PED,VS,M19-977-RISA-PED-ESP_SITE01-0019,25,DIABP,Diastolic Blood Pressure,92.4,mmHg,92.4,92.4,mmHg,,,,,4.0,WEEK 8,TREATMENT,2024-04-02,54,,,,,
M19-977-RISA-PED,VS,M19-977-RISA-PED-ESP_SITE01-0019,26,HEIGHT,Height,173.5,cm,173.5,173.5,cm,,,,,4.0,WEEK 8,TREATMENT,2024-04-02,54,,,,,
M19-977-RISA-PED,VS,M19-977-RISA-PED-ESP_SITE01-0019,27,PULSE,Pulse Rate,85.0,beats/min,85.0,85.0,beats/min,,,,,4.0,WEEK 8,TREATMENT,2024-04-02,54,,,,,
M19-977-RISA-PED,VS,M19-977-RISA-PED-ESP_SITE01-0019,28,RESP,Respiratory Rate,15.1,breaths/min,15.1,15.1,breaths/min,,,,,4.0,WEEK 8,TREATMENT,2024-04-02,54,,,,,
M19-977-RISA-PED,VS,M19-977-RISA-PED-ESP_SITE01-0019,29,SYSBP,Systolic Blood Pressure,99.0,mmHg,99.0,99.0,mmHg,,,,,4.0,WEEK 8,TREATMENT,2024-04-02,54,,,,,
M19-977-RISA-PED,VS,M19-977-RISA-PED-ESP_SITE01-0019,30,TEMP,Temperature,36.9,C,36.9,36.9,C,,,,,4.0,WEEK 8,TREATMENT,2024-04-02,54,,,,,
M19-977-RISA-PED,VS,M19-977-RISA-PED-ESP_SITE01-0019,31,WEIGHT,Weight,66.5,kg,66.5,66.5,kg,,,,,4.0,WEEK 8,TREATMENT,2024-04-02,54,,,,,
M19-977-RISA-PED,VS,M19-977-RISA-PED-ESP_SITE01-0019,32,BMI,BMI,,,21.6,21.6,kg/m2,,,,Y,5.0,WEEK 12,TREATMENT,2024-05-04,86,,,,,
M19-977-RISA-PED,VS,M19-977-RISA-PED-ESP_SITE01-0019,33,DIABP,Diastolic Blood Pressure,92.0,mmHg,92.0,92.0,mmHg,,,,,5.0,WEEK 12,TREATMENT,2024-05-04,86,,,,,
M19-977-RISA-PED,VS,M19-977-RISA-PED-ESP_SITE01-0019,34,HEIGHT,Height,174.6,cm,174.6,174.6,cm,,,,,5.0,WEEK 12,TREATMENT,2024-05-04,86,,,,,
M19-977-RISA-PED,VS,M19-977-RISA-PED-ESP_SITE01-0019,35,PULSE,Pulse Rate,86.6,beats/min,86.6,86.6,beats/min,,,,,5.0,WEEK 12,TREATMENT,2024-05-04,86,,,,,
M19-977-RISA-PED,VS,M19-977-RISA-PED-ESP_SITE01-0019,36,RESP,Respiratory Rate,17.4,breaths/min,17.4,17.4,breaths/min,,,,,5.0,WEEK 12,TREATMENT,2024-05-04,86,,,,,
M19-977-RISA-PED,VS,M19-977-RISA-PED-ESP_SITE01-0019,37,SYSBP,Systolic Blood Pressure,100.1,mmHg,100.1,100.1,mmHg,,,,,5.0,WEEK 12,TREATMENT,2024-05-04,86,,,,,
M19-977-RISA-PED,VS,M19-977-RISA-PED-ESP_SITE01-0019,38,TEMP,Temperature,37.0,C,37.0,37.0,C,,,,,5.0,WEEK 12,TREATMENT,2024-05-04,86,,,,,
M19-977-RISA-PED,VS,M19-977-RISA-PED-ESP_SITE01-0019,39,WEIGHT,Weight,66.0,kg,66.0,66.0,kg,,,,,5.0,WEEK 12,TREATMENT,2024-05-04,86,,,,,
M19-977-RISA-PED,VS,M19-977-RISA-PED-ESP_SITE01-0019,40,BMI,BMI,,,21.1,21.1,kg/m2,,,,Y,6.0,WEEK 16,TREATMENT,2024-05-30,112,,,,,
M19-977-RISA-PED,VS,M19-977-RISA-PED-ESP_SITE01-0019,41,DIABP,Diastolic Blood Pressure,91.0,mmHg,91.0,91.0,mmHg,,,,,6.0,WEEK 16,TREATMENT,2024-05-30,112,,,,,
M19-977-RISA-PED,VS,M19-977-RISA-PED-ESP_SITE01-0019,42,HEIGHT,Height,174.5,cm,174.5,174.5,cm,,,,,6.0,WEEK 16,TREATMENT,2024-05-30,112,,,,,
M19-977-RISA-PED,VS,M19-977-RISA-PED-ESP_SITE01-0019,43,PULSE,Pulse Rate,79.5,beats/min,79.5,79.5,beats/min,,,,,6.0,WEEK 16,TREATMENT,2024-05-30,112,,,,,
M19-977-RISA-PED,VS,M19-977-RISA-PED-ESP_SITE01-0019,44,RESP,Respiratory Rate,15.9,breaths/min,15.9,15.9,breaths/min,,,,,6.0,WEEK 16,TREATMENT,2024-05-30,112,,,,,
M19-977-RISA-PED,VS,M19-977-RISA-PED-ESP_SITE01-0019,45,SYSBP,Systolic Blood Pressure,100.5,mmHg,100.5,100.5,mmHg,,,,,6.0,WEEK 16,TREATMENT,2024-05-30,112,,,,,
M19-977-RISA-PED,VS,M19-977-RISA-PED-ESP_SITE01-0019,46,TEMP,Temperature,37.2,C,37.2,37.2,C,,,,,6.0,WEEK 16,TREATMENT,2024-05-30,112,,,,,
M19-977-RISA-PED,VS,M19-977-RISA-PED-ESP_SITE01-0019,47,WEIGHT,Weight,64.2,kg,64.2,64.2,kg,,,,,6.0,WEEK 16,TREATMENT,2024-05-30,112,,,,,
M19-977-RISA-PED,VS,M19-977-RISA-PED-ESP_SITE01-0019,48,BMI,BMI,,,19.9,19.9,kg/m2,,,,Y,7.0,WEEK 24,TREATMENT,2024-08-01,175,,,,,
M19-977-RISA-PED,VS,M19-977-RISA-PED-ESP_SITE01-0019,49,DIABP,Diastolic Blood Pressure,93.2,mmHg,93.2,93.2,mmHg,,,,,7.0,WEEK 24,TREATMENT,2024-08-01,175,,,,,
M19-977-RISA-PED,VS,M19-977-RISA-PED-ESP_SITE01-0019,50,HEIGHT,Height,175.4,cm,175.4,175.4,cm,,,,,7.0,WEEK 24,TREATMENT,2024-08-01,175,,,,,
M19-977-RISA-PED,VS,M19-977-RISA-PED-ESP_SITE01-0019,51,PULSE,Pulse Rate,79.2,beats/min,79.2,79.2,beats/min,,,,,7.0,WEEK 24,TREATMENT,2024-08-01,175,,,,,
M19-977-RISA-PED,VS,M19-977-RISA-PED-ESP_SITE01-0019,52,RESP,Respiratory Rate,16.4,breaths/min,16.4,16.4,breaths/min,,,,,7.0,WEEK 24,TREATMENT,2024-08-01,175,,,,,
M19-977-RISA-PED,VS,M19-977-RISA-PED-ESP_SITE01-0019,53,SYSBP,Systolic Blood Pressure,99.7,mmHg,99.7,99.7,mmHg,,,,,7.0,WEEK 24,TREATMENT,2024-08-01,175,,,,,
M19-977-RISA-PED,VS,M19-977-RISA-PED-ESP_SITE01-0019,54,TEMP,Temperature,37.0,C,37.0,37.0,C,,,,,7.0,WEEK 24,TREATMENT,2024-08-01,175,,,,,
M19-977-RISA-PED,VS,M19-977-RISA-PED-ESP_SITE01-0019,55,WEIGHT,Weight,61.3,kg,61.3,61.3,kg,,,,,7.0,WEEK 24,TREATMENT,2024-08-01,175,,,,,
M19-977-RISA-PED,VS,M19-977-RISA-PED-ESP_SITE01-0019,56,BMI,BMI,,,19.6,19.6,kg/m2,,,,Y,8.0,WEEK 36,TREATMENT,2024-10-13,248,,,,,
M19-977-RISA-PED,VS,M19-977-RISA-PED-ESP_SITE01-0019,57,DIABP,Diastolic Blood Pressure,92.5,mmHg,92.5,92.5,mmHg,,,,,8.0,WEEK 36,TREATMENT,2024-10-13,248,,,,,
M19-977-RISA-PED,VS,M19-977-RISA-PED-ESP_SITE01-0019,58,HEIGHT,Height,176.1,cm,176.1,176.1,cm,,,,,8.0,WEEK 36,TREATMENT,2024-10-13,248,,,,,
M19-977-RISA-PED,VS,M19-977-RISA-PED-ESP_SITE01-0019,59,PULSE,Pulse Rate,80.3,beats/min,80.3,80.3,beats/min,,,,,8.0,WEEK 36,TREATMENT,2024-10-13,248,,,,,
M19-977-RISA-PED,VS,M19-977-RISA-PED-ESP_SITE01-0019,60,RESP,Respiratory Rate,15.9,breaths/min,15.9,15.9,breaths/min,,,,,8.0,WEEK 36,TREATMENT,2024-10-13,248,,,,,
M19-977-RISA-PED,VS,M19-977-RISA-PED-ESP_SITE01-0019,61,SYSBP,Systolic Blood Pressure,97.6,mmHg,97.6,97.6,mmHg,,,,,8.0,WEEK 36,TREATMENT,2024-10-13,248,,,,,
M19-977-RISA-PED,VS,M19-977-RISA-PED-ESP_SITE01-0019,62,TEMP,Temperature,36.9,C,36.9,36.9,C,,,,,8.0,WEEK 36,TREATMENT,2024-10-13,248,,,,,
M19-977-RISA-PED,VS,M19-977-RISA-PED-ESP_SITE01-0019,63,WEIGHT,Weight,60.9,kg,60.9,60.9,kg,,,,,8.0,WEEK 36,TREATMENT,2024-10-13,248,,,,,
M19-977-RISA-PED,VS,M19-977-RISA-PED-FRA_SITE01-0003,1,BMI,BMI,,,21.6,21.6,kg/m2,,,,Y,1.0,SCREENING,SCREENING,2024-02-08,-41,,,,,
M19-977-RISA-PED,VS,M19-977-RISA-PED-FRA_SITE01-0003,2,DIABP,Diastolic Blood Pressure,69.5,mmHg,69.5,69.5,mmHg,,,,,1.0,SCREENING,SCREENING,2024-02-08,-41,,,,,
M19-977-RISA-PED,VS,M19-977-RISA-PED-FRA_SITE01-0003,3,HEIGHT,Height,147.1,cm,147.1,147.1,cm,,,,,1.0,SCREENING,SCREENING,2024-02-08,-41,,,,,
M19-977-RISA-PED,VS,M19-977-RISA-PED-FRA_SITE01-0003,4,PULSE,Pulse Rate,55.4,beats/min,55.4,55.4,beats/min,,,,,1.0,SCREENING,SCREENING,2024-02-08,-41,,,,,
M19-977-RISA-PED,VS,M19-977-RISA-PED-FRA_SITE01-0003,5,RESP,Respiratory Rate,16.5,breaths/min,16.5,16.5,breaths/min,,,,,1.0,SCREENING,SCREENING,2024-02-08,-41,,,,,
M19-977-RISA-PED,VS,M19-977-RISA-PED-FRA_SITE01-0003,6,SYSBP,Systolic Blood Pressure,126.1,mmHg,126.1,126.1,mmHg,,,,,1.0,SCREENING,SCREENING,2024-02-08,-41,,,,,
M19-977-RISA-PED,VS,M19-977-RISA-PED-FRA_SITE01-0003,7,TEMP,Temperature,36.5,C,36.5,36.5,C,,,,,1.0,SCREENING,SCREENING,2024-02-08,-41,,,,,
M19-977-RISA-PED,VS,M19-977-RISA-PED-FRA_SITE01-0003,8,WEIGHT,Weight,46.8,kg,46.8,46.8,kg,,,,,1.0,SCREENING,SCREENING,2024-02-08,-41,,,,,
M19-977-RISA-PED,VS,M19-977-RISA-PED-FRA_SITE01-0003,9,BMI,BMI,,,21.8,21.8,kg/m2,,Y,Y,Y,2.0,WEEK 0 BASELINE,TREATMENT,2024-03-20,1,,,,,
M19-977-RISA-PED,VS,M19-977-RISA-PED-FRA_SITE01-0003,10,DIABP,Diastolic Blood Pressure,69.4,mmHg,69.4,69.4,mmHg,,Y,Y,,2.0,WEEK 0 BASELINE,TREATMENT,2024-03-20,1,,,,,
M19-977-RISA-PED,VS,M19-977-RISA-PED-FRA_SITE01-0003,11,HEIGHT,Height,147.2,cm,147.2,147.2,cm,,Y,Y,,2.0,WEEK 0 BASELINE,TREATMENT,2024-03-20,1,,,,,
M19-977-RISA-PED,VS,M19-977-RISA-PED-FRA_SITE01-0003,12,PULSE,Pulse Rate,52.9,beats/min,52.9,52.9,beats/min,,Y,Y,,2.0,WEEK 0 BASELINE,TREATMENT,2024-03-20,1,,,,,
M19-977-RISA-PED,VS,M19-977-RISA-PED-FRA_SITE01-0003,13,RESP,Respiratory Rate,17.2,breaths/min,17.2,17.2,breaths/min,,Y,Y,,2.0,WEEK 0 BASELINE,TREATMENT,2024-03-20,1,,,,,
M19-977-RISA-PED,VS,M19-977-RISA-PED-FRA_SITE01-0003,14,SYSBP,Systolic Blood Pressure,126.6,mmHg,126.6,126.6,mmHg,,Y,Y,,2.0,WEEK 0 BASELINE,TREATMENT,2024-03-20,1,,,,,
M19-977-RISA-PED,VS,M19-977-RISA-PED-FRA_SITE01-0003,15,TEMP,Temperature,36.5,C,36.5,36.5,C,,Y,Y,,2.0,WEEK 0 BASELINE,TREATMENT,2024-03-20,1,,,,,
M19-977-RISA-PED,VS,M19-977-RISA-PED-FRA_SITE01-0003,16,WEIGHT,Weight,47.3,kg,47.3,47.3,kg,,Y,Y,,2.0,WEEK 0 BASELINE,TREATMENT,2024-03-20,1,,,,,
M19-977-RISA-PED,VS,M19-977-RISA-PED-FRA_SITE01-0003,17,BMI,BMI,,,21.6,21.6,kg/m2,,,,Y,3.0,WEEK 4,TREATMENT,2024-04-14,26,,,,,
M19-977-RISA-PED,VS,M19-977-RISA-PED-FRA_SITE01-0003,18,DIABP,Diastolic Blood Pressure,71.1,mmHg,71.1,71.1,mmHg,,,,,3.0,WEEK 4,TREATMENT,2024-04-14,26,,,,,
M19-977-RISA-PED,VS,M19-977-RISA-PED-FRA_SITE01-0003,19,HEIGHT,Height,148.0,cm,148.0,148.0,cm,,,,,3.0,WEEK 4,TREATMENT,2024-04-14,26,,,,,
M19-977-RISA-PED,VS,M19-977-RISA-PED-FRA_SITE01-0003,20,PULSE,Pulse Rate,53.6,beats/min,53.6,53.6,beats/min,,,,,3.0,WEEK 4,TREATMENT,2024-04-14,26,,,,,
M19-977-RISA-PED,VS,M19-977-RISA-PED-FRA_SITE01-0003,21,RESP,Respiratory Rate,16.2,breaths/min,16.2,16.2,breaths/min,,,,,3.0,WEEK 4,TREATMENT,2024-04-14,26,,,,,
M19-977-RISA-PED,VS,M19-977-RISA-PED-FRA_SITE01-0003,22,SYSBP,Systolic Blood Pressure,128.2,mmHg,128.2,128.2,mmHg,,,,,3.0,WEEK 4,TREATMENT,2024-04-14,26,,,,,
M19-977-RISA-PED,VS,M19-977-RISA-PED-FRA_SITE01-0003,23,TEMP,Temperature,36.3,C,36.3,36.3,C,,,,,3.0,WEEK 4,TREATMENT,2024-04-14,26,,,,,
M19-977-RISA-PED,VS,M19-977-RISA-PED-FRA_SITE01-0003,24,WEIGHT,Weight,47.4,kg,47.4,47.4,kg,,,,,3.0,WEEK 4,TREATMENT,2024-04-14,26,,,,,
M19-977-RISA-PED,VS,M19-977-RISA-PED-FRA_SITE01-0003,25,BMI,BMI,,,22.4,22.4,kg/m2,,,,Y,4.0,WEEK 8,TREATMENT,2024-05-12,54,,,,,
M19-977-RISA-PED,VS,M19-977-RISA-PED-FRA_SITE01-0003,26,DIABP,Diastolic Blood Pressure,72.3,mmHg,72.3,72.3,mmHg,,,,,4.0,WEEK 8,TREATMENT,2024-05-12,54,,,,,
M19-977-RISA-PED,VS,M19-977-RISA-PED-FRA_SITE01-0003,27,HEIGHT,Height,148.3,cm,148.3,148.3,cm,,,,,4.0,WEEK 8,TREATMENT,2024-05-12,54,,,,,
M19-977-RISA-PED,VS,M19-977-RISA-PED-FRA_SITE01-0003,28,PULSE,Pulse Rate,,,,,,NOT DONE,,,,4.0,WEEK 8,TREATMENT,2024-05-12,54,,,,,
M19-977-RISA-PED,VS,M19-977-RISA-PED-FRA_SITE01-0003,29,RESP,Respiratory Rate,16.4,breaths/min,16.4,16.4,breaths/min,,,,,4.0,WEEK 8,TREATMENT,2024-05-12,54,,,,,
M19-977-RISA-PED,VS,M19-977-RISA-PED-FRA_SITE01-0003,30,SYSBP,Systolic Blood Pressure,130.8,mmHg,130.8,130.8,mmHg,,,,,4.0,WEEK 8,TREATMENT,2024-05-12,54,,,,,
M19-977-RISA-PED,VS,M19-977-RISA-PED-FRA_SITE01-0003,31,TEMP,Temperature,36.3,C,36.3,36.3,C,,,,,4.0,WEEK 8,TREATMENT,2024-05-12,54,,,,,
M19-977-RISA-PED,VS,M19-977-RISA-PED-FRA_SITE01-0003,32,WEIGHT,Weight,49.2,kg,49.2,49.2,kg,,,,,4.0,WEEK 8,TREATMENT,2024-05-12,54,,,,,
M19-977-RISA-PED,VS,M19-977-RISA-PED-FRA_SITE01-0003,33,BMI,BMI,,,22.1,22.1,kg/m2,,,,Y,5.0,WEEK 12,TREATMENT,2024-06-09,82,,,,,
M19-977-RISA-PED,VS,M19-977-RISA-PED-FRA_SITE01-0003,34,DIABP,Diastolic Blood Pressure,72.1,mmHg,72.1,72.1,mmHg,,,,,5.0,WEEK 12,TREATMENT,2024-06-09,82,,,,,
M19-977-RISA-PED,VS,M19-977-RISA-PED-FRA_SITE01-0003,35,HEIGHT,Height,148.1,cm,148.1,148.1,cm,,,,,5.0,WEEK 12,TREATMENT,2024-06-09,82,,,,,
M19-977-RISA-PED,VS,M19-977-RISA-PED-FRA_SITE01-0003,36,PULSE,Pulse Rate,56.2,beats/min,56.2,56.2,beats/min,,,,,5.0,WEEK 12,TREATMENT,2024-06-09,82,,,,,
M19-977-RISA-PED,VS,M19-977-RISA-PED-FRA_SITE01-0003,37,RESP,Respiratory Rate,16.3,breaths/min,16.3,16.3,breaths/min,,,,,5.0,WEEK 12,TREATMENT,2024-06-09,82,,,,,
M19-977-RISA-PED,VS,M19-977-RISA-PED-FRA_SITE01-0003,38,SYSBP,Systolic Blood Pressure,130.2,mmHg,130.2,130.2,mmHg,,,,,5.0,WEEK 12,TREATMENT,2024-06-09,82,,,,,
M19-977-RISA-PED,VS,M19-977-RISA-PED-FRA_SITE01-0003,39,TEMP,Temperature,36.6,C,36.6,36.6,C,,,,,5.0,WEEK 12,TREATMENT,2024-06-09,82,,,,,
M19-977-RISA-PED,VS,M19-977-RISA-PED-FRA_SITE01-0003,40,WEIGHT,Weight,48.5,kg,48.5,48.5,kg,,,,,5.0,WEEK 12,TREATMENT,2024-06-09,82,,,,,
M19-977-RISA-PED,VS,M19-977-RISA-PED-FRA_SITE01-0003,41,BMI,BMI,,,20.7,20.7,kg/m2,,,,Y,6.0,WEEK 16,TREATMENT,2024-07-08,111,,,,,
M19-977-RISA-PED,VS,M19-977-RISA-PED-FRA_SITE01-0003,42,DIABP,Diastolic Blood Pressure,68.6,mmHg,68.6,68.6,mmHg,,,,,6.0,WEEK 16,TREATMENT,2024-07-08,111,,,,,
M19-977-RISA-PED,VS,M19-977-RISA-PED-FRA_SITE01-0003,43,HEIGHT,Height,148.6,cm,148.6,148.6,cm,,,,,6.0,WEEK 16,TREATMENT,2024-07-08,111,,,,,
M19-977-RISA-PED,VS,M19-977-RISA-PED-FRA_SITE01-0003,44,PULSE,Pulse Rate,52.9,beats/min,52.9,52.9,beats/min,,,,,6.0,WEEK 16,TREATMENT,2024-07-08,111,,,,,
M19-977-RISA-PED,VS,M19-977-RISA-PED-FRA_SITE01-0003,45,RESP,Respiratory Rate,13.3,breaths/min,13.3,13.3,breaths/min,,,,,6.0,WEEK 16,TREATMENT,2024-07-08,111,,,,,
M19-977-RISA-PED,VS,M19-977-RISA-PED-FRA_SITE01-0003,46,SYSBP,Systolic Blood Pressure,125.2,mmHg,125.2,125.2,mmHg,,,,,6.0,WEEK 16,TREATMENT,2024-07-08,111,,,,,
M19-977-RISA-PED,VS,M19-977-RISA-PED-FRA_SITE01-0003,47,TEMP,Temperature,36.5,C,36.5,36.5,C,,,,,6.0,WEEK 16,TREATMENT,2024-07-08,111,,,,,
M19-977-RISA-PED,VS,M19-977-RISA-PED-FRA_SITE01-0003,48,WEIGHT,Weight,45.7,kg,45.7,45.7,kg,,,,,6.0,WEEK 16,TREATMENT,2024-07-08,111,,,,,
M19-977-RISA-PED,VS,M19-977-RISA-PED-FRA_SITE01-0003,49,BMI,BMI,,,21.2,21.2,kg/m2,,,,Y,7.0,WEEK 24,TREATMENT,2024-09-01,166,,,,,
M19-977-RISA-PED,VS,M19-977-RISA-PED-FRA_SITE01-0003,50,DIABP,Diastolic Blood Pressure,68.7,mmHg,68.7,68.7,mmHg,,,,,7.0,WEEK 24,TREATMENT,2024-09-01,166,,,,,
M19-977-RISA-PED,VS,M19-977-RISA-PED-FRA_SITE01-0003,51,HEIGHT,Height,148.1,cm,148.1,148.1,cm,,,,,7.0,WEEK 24,TREATMENT,2024-09-01,166,,,,,
M19-977-RISA-PED,VS,M19-977-RISA-PED-FRA_SITE01-0003,52,PULSE,Pulse Rate,58.1,beats/min,58.1,58.1,beats/min,,,,,7.0,WEEK 24,TREATMENT,2024-09-01,166,,,,,
M19-977-RISA-PED,VS,M19-977-RISA-PED-FRA_SITE01-0003,53,RESP,Respiratory Rate,14.4,breaths/min,14.4,14.4,breaths/min,,,,,7.0,WEEK 24,TREATMENT,2024-09-01,166,,,,,
M19-977-RISA-PED,VS,M19-977-RISA-PED-FRA_SITE01-0003,54,SYSBP,Systolic Blood Pressure,123.2,mmHg,123.2,123.2,mmHg,,,,,7.0,WEEK 24,TREATMENT,2024-09-01,166,,,,,
M19-977-RISA-PED,VS,M19-977-RISA-PED-FRA_SITE01-0003,55,TEMP,Temperature,36.4,C,36.4,36.4,C,,,,,7.0,WEEK 24,TREATMENT,2024-09-01,166,,,,,
M19-977-RISA-PED,VS,M19-977-RISA-PED-FRA_SITE01-0003,56,WEIGHT,Weight,46.5,kg,46.5,46.5,kg,,,,,7.0,WEEK 24,TREATMENT,2024-09-01,166,,,,,
M19-977-RISA-PED,VS,M19-977-RISA-PED-FRA_SITE01-0003,57,BMI,BMI,,,20.3,20.3,kg/m2,,,,Y,8.0,WEEK 36,TREATMENT,2024-11-29,255,,,,,
M19-977-RISA-PED,VS,M19-977-RISA-PED-FRA_SITE01-0003,58,DIABP,Diastolic Blood Pressure,70.2,mmHg,70.2,70.2,mmHg,,,,,8.0,WEEK 36,TREATMENT,2024-11-29,255,,,,,
M19-977-RISA-PED,VS,M19-977-RISA-PED-FRA_SITE01-0003,59,HEIGHT,Height,147.6,cm,147.6,147.6,cm,,,,,8.0,WEEK 36,TREATMENT,2024-11-29,255,,,,,
M19-977-RISA-PED,VS,M19-977-RISA-PED-FRA_SITE01-0003,60,PULSE,Pulse Rate,63.9,beats/min,63.9,63.9,beats/min,,,,,8.0,WEEK 36,TREATMENT,2024-11-29,255,,,,,
M19-977-RISA-PED,VS,M19-977-RISA-PED-FRA_SITE01-0003,61,RESP,Respiratory Rate,15.5,breaths/min,15.5,15.5,breaths/min,,,,,8.0,WEEK 36,TREATMENT,2024-11-29,255,,,,,
M19-977-RISA-PED,VS,M19-977-RISA-PED-FRA_SITE01-0003,62,SYSBP,Systolic Blood Pressure,124.7,mmHg,124.7,124.7,mmHg,,,,,8.0,WEEK 36,TREATMENT,2024-11-29,255,,,,,
M19-977-RISA-PED,VS,M19-977-RISA-PED-FRA_SITE01-0003,63,TEMP,Temperature,36.3,C,36.3,36.3,C,,,,,8.0,WEEK 36,TREATMENT,2024-11-29,255,,,,,
M19-977-RISA-PED,VS,M19-977-RISA-PED-FRA_SITE01-0003,64,WEIGHT,Weight,44.3,kg,44.3,44.3,kg,,,,,8.0,WEEK 36,TREATMENT,2024-11-29,255,,,,,
M19-977-RISA-PED,VS,M19-977-RISA-PED-FRA_SITE01-0003,65,BMI,BMI,,,21.2,21.2,kg/m2,,,,Y,9.0,WEEK 40 EOT,TREATMENT,2024-12-26,282,,,,,
M19-977-RISA-PED,VS,M19-977-RISA-PED-FRA_SITE01-0003,66,DIABP,Diastolic Blood Pressure,70.6,mmHg,70.6,70.6,mmHg,,,,,9.0,WEEK 40 EOT,TREATMENT,2024-12-26,282,,,,,
M19-977-RISA-PED,VS,M19-977-RISA-PED-FRA_SITE01-0003,67,HEIGHT,Height,147.7,cm,147.7,147.7,cm,,,,,9.0,WEEK 40 EOT,TREATMENT,2024-12-26,282,,,,,
M19-977-RISA-PED,VS,M19-977-RISA-PED-FRA_SITE01-0003,68,PULSE,Pulse Rate,58.3,beats/min,58.3,58.3,beats/min,,,,,9.0,WEEK 40 EOT,TREATMENT,2024-12-26,282,,,,,
M19-977-RISA-PED,VS,M19-977-RISA-PED-FRA_SITE01-0003,69,RESP,Respiratory Rate,15.7,breaths/min,15.7,15.7,breaths/min,,,,,9.0,WEEK 40 EOT,TREATMENT,2024-12-26,282,,,,,
M19-977-RISA-PED,VS,M19-977-RISA-PED-FRA_SITE01-0003,70,SYSBP,Systolic Blood Pressure,123.8,mmHg,123.8,123.8,mmHg,,,,,9.0,WEEK 40 EOT,TREATMENT,2024-12-26,282,,,,,
M19-977-RISA-PED,VS,M19-977-RISA-PED-FRA_SITE01-0003,71,TEMP,Temperature,36.4,C,36.4,36.4,C,,,,,9.0,WEEK 40 EOT,TREATMENT,2024-12-26,282,,,,,
M19-977-RISA-PED,VS,M19-977-RISA-PED-FRA_SITE01-0003,72,WEIGHT,Weight,46.3,kg,46.3,46.3,kg,,,,,9.0,WEEK 40 EOT,TREATMENT,2024-12-26,282,,,,,
M19-977-RISA-PED,VS,M19-977-RISA-PED-FRA_SITE01-0003,73,BMI,BMI,,,20.7,20.7,kg/m2,,,,Y,10.0,WEEK 60 FU,FOLLOW-UP,2025-05-08,415,,,,,
M19-977-RISA-PED,VS,M19-977-RISA-PED-FRA_SITE01-0003,74,DIABP,Diastolic Blood Pressure,68.3,mmHg,68.3,68.3,mmHg,,,,,10.0,WEEK 60 FU,FOLLOW-UP,2025-05-08,415,,,,,
M19-977-RISA-PED,VS,M19-977-RISA-PED-FRA_SITE01-0003,75,HEIGHT,Height,147.8,cm,147.8,147.8,cm,,,,,10.0,WEEK 60 FU,FOLLOW-UP,2025-05-08,415,,,,,
M19-977-RISA-PED,VS,M19-977-RISA-PED-FRA_SITE01-0003,76,PULSE,Pulse Rate,55.2,beats/min,55.2,55.2,beats/min,,,,,10.0,WEEK 60 FU,FOLLOW-UP,2025-05-08,415,,,,,
M19-977-RISA-PED,VS,M19-977-RISA-PED-FRA_SITE01-0003,77,RESP,Respiratory Rate,16.3,breaths/min,16.3,16.3,breaths/min,,,,,10.0,WEEK 60 FU,FOLLOW-UP,2025-05-08,415,,,,,
M19-977-RISA-PED,VS,M19-977-RISA-PED-FRA_SITE01-0003,78,SYSBP,Systolic Blood Pressure,123.3,mmHg,123.3,123.3,mmHg,,,,,10.0,WEEK 60 FU,FOLLOW-UP,2025-05-08,415,,,,,
M19-977-RISA-PED,VS,M19-977-RISA-PED-FRA_SITE01-0003,79,TEMP,Temperature,36.5,C,36.5,36.5,C,,,,,10.0,WEEK 60 FU,FOLLOW-UP,2025-05-08,415,,,,,
M19-977-RISA-PED,VS,M19-977-RISA-PED-FRA_SITE01-0003,80,WEIGHT,Weight,45.2,kg,45.2,45.2,kg,,,,,10.0,WEEK 60 FU,FOLLOW-UP,2025-05-08,415,,,,,
M19-977-RISA-PED,VS,M19-977-RISA-PED-GBR_SITE01-0002,1,BMI,BMI,,,17.8,17.8,kg/m2,,,,Y,1.0,SCREENING,SCREENING,2023-12-23,-48,,,,,
M19-977-RISA-PED,VS,M19-977-RISA-PED-GBR_SITE01-0002,2,DIABP,Diastolic Blood Pressure,73.7,mmHg,73.7,73.7,mmHg,,,,,1.0,SCREENING,SCREENING,2023-12-23,-48,,,,,
M19-977-RISA-PED,VS,M19-977-RISA-PED-GBR_SITE01-0002,3,HEIGHT,Height,182.1,cm,182.1,182.1,cm,,,,,1.0,SCREENING,SCREENING,2023-12-23,-48,,,,,
M19-977-RISA-PED,VS,M19-977-RISA-PED-GBR_SITE01-0002,4,PULSE,Pulse Rate,61.3,beats/min,61.3,61.3,beats/min,,,,,1.0,SCREENING,SCREENING,2023-12-23,-48,,,,,
M19-977-RISA-PED,VS,M19-977-RISA-PED-GBR_SITE01-0002,5,RESP,Respiratory Rate,13.9,breaths/min,13.9,13.9,breaths/min,,,,,1.0,SCREENING,SCREENING,2023-12-23,-48,,,,,
M19-977-RISA-PED,VS,M19-977-RISA-PED-GBR_SITE01-0002,6,SYSBP,Systolic Blood Pressure,141.2,mmHg,141.2,141.2,mmHg,,,,,1.0,SCREENING,SCREENING,2023-12-23,-48,,,,,
M19-977-RISA-PED,VS,M19-977-RISA-PED-GBR_SITE01-0002,7,TEMP,Temperature,36.1,C,36.1,36.1,C,,,,,1.0,SCREENING,SCREENING,2023-12-23,-48,,,,,
M19-977-RISA-PED,VS,M19-977-RISA-PED-GBR_SITE01-0002,8,WEIGHT,Weight,59.1,kg,59.1,59.1,kg,,,,,1.0,SCREENING,SCREENING,2023-12-23,-48,,,,,
M19-977-RISA-PED,VS,M19-977-RISA-PED-GBR_SITE01-0002,9,BMI,BMI,,,17.8,17.8,kg/m2,,Y,Y,Y,2.0,WEEK 0 BASELINE,TREATMENT,2024-02-09,1,,,,,
M19-977-RISA-PED,VS,M19-977-RISA-PED-GBR_SITE01-0002,10,DIABP,Diastolic Blood Pressure,76.4,mmHg,76.4,76.4,mmHg,,Y,Y,,2.0,WEEK 0 BASELINE,TREATMENT,2024-02-09,1,,,,,
M19-977-RISA-PED,VS,M19-977-RISA-PED-GBR_SITE01-0002,11,HEIGHT,Height,181.5,cm,181.5,181.5,cm,,Y,Y,,2.0,WEEK 0 BASELINE,TREATMENT,2024-02-09,1,,,,,
M19-977-RISA-PED,VS,M19-977-RISA-PED-GBR_SITE01-0002,12,PULSE,Pulse Rate,66.6,beats/min,66.6,66.6,beats/min,,Y,Y,,2.0,WEEK 0 BASELINE,TREATMENT,2024-02-09,1,,,,,
M19-977-RISA-PED,VS,M19-977-RISA-PED-GBR_SITE01-0002,13,RESP,Respiratory Rate,15.9,breaths/min,15.9,15.9,breaths/min,,Y,Y,,2.0,WEEK 0 BASELINE,TREATMENT,2024-02-09,1,,,,,
M19-977-RISA-PED,VS,M19-977-RISA-PED-GBR_SITE01-0002,14,SYSBP,Systolic Blood Pressure,144.0,mmHg,144.0,144.0,mmHg,,Y,Y,,2.0,WEEK 0 BASELINE,TREATMENT,2024-02-09,1,,,,,
M19-977-RISA-PED,VS,M19-977-RISA-PED-GBR_SITE01-0002,15,TEMP,Temperature,36.3,C,36.3,36.3,C,,Y,Y,,2.0,WEEK 0 BASELINE,TREATMENT,2024-02-09,1,,,,,
M19-977-RISA-PED,VS,M19-977-RISA-PED-GBR_SITE01-0002,16,WEIGHT,Weight,58.7,kg,58.7,58.7,kg,,Y,Y,,2.0,WEEK 0 BASELINE,TREATMENT,2024-02-09,1,,,,,
M19-977-RISA-PED,VS,M19-977-RISA-PED-GBR_SITE01-0002,17,BMI,BMI,,,17.9,17.9,kg/m2,,,,Y,3.0,WEEK 4,TREATMENT,2024-03-05,26,,,,,
M19-977-RISA-PED,VS,M19-977-RISA-PED-GBR_SITE01-0002,18,DIABP,Diastolic Blood Pressure,77.2,mmHg,77.2,77.2,mmHg,,,,,3.0,WEEK 4,TREATMENT,2024-03-05,26,,,,,
M19-977-RISA-PED,VS,M19-977-RISA-PED-GBR_SITE01-0002,19,HEIGHT,Height,180.9,cm,180.9,180.9,cm,,,,,3.0,WEEK 4,TREATMENT,2024-03-05,26,,,,,
M19-977-RISA-PED,VS,M19-977-RISA-PED-GBR_SITE01-0002,20,PULSE,Pulse Rate,73.7,beats/min,73.7,73.7,beats/min,,,,,3.0,WEEK 4,TREATMENT,2024-03-05,26,,,,,
M19-977-RISA-PED,VS,M19-977-RISA-PED-GBR_SITE01-0002,21,RESP,Respiratory Rate,13.3,breaths/min,13.3,13.3,breaths/min,,,,,3.0,WEEK 4,TREATMENT,2024-03-05,26,,,,,
M19-977-RISA-PED,VS,M19-977-RISA-PED-GBR_SITE01-0002,22,SYSBP,Systolic Blood Pressure,143.8,mmHg,143.8,143.8,mmHg,,,,,3.0,WEEK 4,TREATMENT,2024-03-05,26,,,,,
M19-977-RISA-PED,VS,M19-977-RISA-PED-GBR_SITE01-0002,23,TEMP,Temperature,36.6,C,36.6,36.6,C,,,,,3.0,WEEK 4,TREATMENT,2024-03-05,26,,,,,
M19-977-RISA-PED,VS,M19-977-RISA-PED-GBR_SITE01-0002,24,WEIGHT,Weight,58.7,kg,58.7,58.7,kg,,,,,3.0,WEEK 4,TREATMENT,2024-03-05,26,,,,,
M19-977-RISA-PED,VS,M19-977-RISA-PED-GBR_SITE01-0002,25,BMI,BMI,,,18.9,18.9,kg/m2,,,,Y,4.0,WEEK 8,TREATMENT,2024-04-07,59,,,,,
M19-977-RISA-PED,VS,M19-977-RISA-PED-GBR_SITE01-0002,26,DIABP,Diastolic Blood Pressure,77.8,mmHg,77.8,77.8,mmHg,,,,,4.0,WEEK 8,TREATMENT,2024-04-07,59,,,,,
M19-977-RISA-PED,VS,M19-977-RISA-PED-GBR_SITE01-0002,27,HEIGHT,Height,181.5,cm,181.5,181.5,cm,,,,,4.0,WEEK 8,TREATMENT,2024-04-07,59,,,,,
M19-977-RISA-PED,VS,M19-977-RISA-PED-GBR_SITE01-0002,28,PULSE,Pulse Rate,68.8,beats/min,68.8,68.8,beats/min,,,,,4.0,WEEK 8,TREATMENT,2024-04-07,59,,,,,
M19-977-RISA-PED,VS,M19-977-RISA-PED-GBR_SITE01-0002,29,RESP,Respiratory Rate,12.5,breaths/min,12.5,12.5,breaths/min,,,,,4.0,WEEK 8,TREATMENT,2024-04-07,59,,,,,
M19-977-RISA-PED,VS,M19-977-RISA-PED-GBR_SITE01-0002,30,SYSBP,Systolic Blood Pressure,144.0,mmHg,144.0,144.0,mmHg,,,,,4.0,WEEK 8,TREATMENT,2024-04-07,59,,,,,
M19-977-RISA-PED,VS,M19-977-RISA-PED-GBR_SITE01-0002,31,TEMP,Temperature,36.3,C,36.3,36.3,C,,,,,4.0,WEEK 8,TREATMENT,2024-04-07,59,,,,,
M19-977-RISA-PED,VS,M19-977-RISA-PED-GBR_SITE01-0002,32,WEIGHT,Weight,62.1,kg,62.1,62.1,kg,,,,,4.0,WEEK 8,TREATMENT,2024-04-07,59,,,,,
M19-977-RISA-PED,VS,M19-977-RISA-PED-GBR_SITE01-0002,33,BMI,BMI,,,19.7,19.7,kg/m2,,,,Y,5.0,WEEK 12,TREATMENT,2024-04-30,82,,,,,
M19-977-RISA-PED,VS,M19-977-RISA-PED-GBR_SITE01-0002,34,DIABP,Diastolic Blood Pressure,77.8,mmHg,77.8,77.8,mmHg,,,,,5.0,WEEK 12,TREATMENT,2024-04-30,82,,,,,
M19-977-RISA-PED,VS,M19-977-RISA-PED-GBR_SITE01-0002,35,HEIGHT,Height,181.7,cm,181.7,181.7,cm,,,,,5.0,WEEK 12,TREATMENT,2024-04-30,82,,,,,
M19-977-RISA-PED,VS,M19-977-RISA-PED-GBR_SITE01-0002,36,PULSE,Pulse Rate,65.9,beats/min,65.9,65.9,beats/min,,,,,5.0,WEEK 12,TREATMENT,2024-04-30,82,,,,,
M19-977-RISA-PED,VS,M19-977-RISA-PED-GBR_SITE01-0002,37,RESP,Respiratory Rate,12.0,breaths/min,12.0,12.0,breaths/min,,,,,5.0,WEEK 12,TREATMENT,2024-04-30,82,,,,,
M19-977-RISA-PED,VS,M19-977-RISA-PED-GBR_SITE01-0002,38,SYSBP,Systolic Blood Pressure,143.6,mmHg,143.6,143.6,mmHg,,,,,5.0,WEEK 12,TREATMENT,2024-04-30,82,,,,,
M19-977-RISA-PED,VS,M19-977-RISA-PED-GBR_SITE01-0002,39,TEMP,Temperature,36.1,C,36.1,36.1,C,,,,,5.0,WEEK 12,TREATMENT,2024-04-30,82,,,,,
M19-977-RISA-PED,VS,M19-977-RISA-PED-GBR_SITE01-0002,40,WEIGHT,Weight,64.9,kg,64.9,64.9,kg,,,,,5.0,WEEK 12,TREATMENT,2024-04-30,82,,,,,
M19-977-RISA-PED,VS,M19-977-RISA-PED-GBR_SITE01-0002,41,BMI,BMI,,,20.0,20.0,kg/m2,,,,Y,6.0,WEEK 16,TREATMENT,2024-06-03,116,,,,,
M19-977-RISA-PED,VS,M19-977-RISA-PED-GBR_SITE01-0002,42,DIABP,Diastolic Blood Pressure,78.4,mmHg,78.4,78.4,mmHg,,,,,6.0,WEEK 16,TREATMENT,2024-06-03,116,,,,,
M19-977-RISA-PED,VS,M19-977-RISA-PED-GBR_SITE01-0002,43,HEIGHT,Height,181.4,cm,181.4,181.4,cm,,,,,6.0,WEEK 16,TREATMENT,2024-06-03,116,,,,,
M19-977-RISA-PED,VS,M19-977-RISA-PED-GBR_SITE01-0002,44,PULSE,Pulse Rate,67.8,beats/min,67.8,67.8,beats/min,,,,,6.0,WEEK 16,TREATMENT,2024-06-03,116,,,,,
M19-977-RISA-PED,VS,M19-977-RISA-PED-GBR_SITE01-0002,45,RESP,Respiratory Rate,14.8,breaths/min,14.8,14.8,breaths/min,,,,,6.0,WEEK 16,TREATMENT,2024-06-03,116,,,,,
M19-977-RISA-PED,VS,M19-977-RISA-PED-GBR_SITE01-0002,46,SYSBP,Systolic Blood Pressure,146.4,mmHg,146.4,146.4,mmHg,,,,,6.0,WEEK 16,TREATMENT,2024-06-03,116,,,,,
M19-977-RISA-PED,VS,M19-977-RISA-PED-GBR_SITE01-0002,47,TEMP,Temperature,35.8,C,35.8,35.8,C,,,,,6.0,WEEK 16,TREATMENT,2024-06-03,116,,,,,
M19-977-RISA-PED,VS,M19-977-RISA-PED-GBR_SITE01-0002,48,WEIGHT,Weight,65.8,kg,65.8,65.8,kg,,,,,6.0,WEEK 16,TREATMENT,2024-06-03,116,,,,,
M19-977-RISA-PED,VS,M19-977-RISA-PED-GBR_SITE01-0002,49,BMI,BMI,,,20.1,20.1,kg/m2,,,,Y,7.0,WEEK 24,TREATMENT,2024-07-26,169,,,,,
M19-977-RISA-PED,VS,M19-977-RISA-PED-GBR_SITE01-0002,50,DIABP,Diastolic Blood Pressure,80.2,mmHg,80.2,80.2,mmHg,,,,,7.0,WEEK 24,TREATMENT,2024-07-26,169,,,,,
M19-977-RISA-PED,VS,M19-977-RISA-PED-GBR_SITE01-0002,51,HEIGHT,Height,180.9,cm,180.9,180.9,cm,,,,,7.0,WEEK 24,TREATMENT,2024-07-26,169,,,,,
M19-977-RISA-PED,VS,M19-977-RISA-PED-GBR_SITE01-0002,52,PULSE,Pulse Rate,66.5,beats/min,66.5,66.5,beats/min,,,,,7.0,WEEK 24,TREATMENT,2024-07-26,169,,,,,
M19-977-RISA-PED,VS,M19-977-RISA-PED-GBR_SITE01-0002,53,RESP,Respiratory Rate,13.5,breaths/min,13.5,13.5,breaths/min,,,,,7.0,WEEK 24,TREATMENT,2024-07-26,169,,,,,
M19-977-RISA-PED,VS,M19-977-RISA-PED-GBR_SITE01-0002,54,SYSBP,Systolic Blood Pressure,149.1,mmHg,149.1,149.1,mmHg,,,,,7.0,WEEK 24,TREATMENT,2024-07-26,169,,,,,
M19-977-RISA-PED,VS,M19-977-RISA-PED-GBR_SITE01-0002,55,TEMP,Temperature,35.8,C,35.8,35.8,C,,,,,7.0,WEEK 24,TREATMENT,2024-07-26,169,,,,,
M19-977-RISA-PED,VS,M19-977-RISA-PED-GBR_SITE01-0002,56,WEIGHT,Weight,65.9,kg,65.9,65.9,kg,,,,,7.0,WEEK 24,TREATMENT,2024-07-26,169,,,,,
M19-977-RISA-PED,VS,M19-977-RISA-PED-GBR_SITE01-0002,57,BMI,BMI,,,20.2,20.2,kg/m2,,,,Y,8.0,WEEK 36,TREATMENT,2024-10-15,250,,,,,
M19-977-RISA-PED,VS,M19-977-RISA-PED-GBR_SITE01-0002,58,DIABP,Diastolic Blood Pressure,79.8,mmHg,79.8,79.8,mmHg,,,,,8.0,WEEK 36,TREATMENT,2024-10-15,250,,,,,
M19-977-RISA-PED,VS,M19-977-RISA-PED-GBR_SITE01-0002,59,HEIGHT,Height,181.4,cm,181.4,181.4,cm,,,,,8.0,WEEK 36,TREATMENT,2024-10-15,250,,,,,
M19-977-RISA-PED,VS,M19-977-RISA-PED-GBR_SITE01-0002,60,PULSE,Pulse Rate,69.8,beats/min,69.8,69.8,beats/min,,,,,8.0,WEEK 36,TREATMENT,2024-10-15,250,,,,,
M19-977-RISA-PED,VS,M19-977-RISA-PED-GBR_SITE01-0002,61,RESP,Respiratory Rate,14.1,breaths/min,14.1,14.1,breaths/min,,,,,8.0,WEEK 36,TREATMENT,2024-10-15,250,,,,,
M19-977-RISA-PED,VS,M19-977-RISA-PED-GBR_SITE01-0002,62,SYSBP,Systolic Blood Pressure,148.8,mmHg,148.8,148.8,mmHg,,,,,8.0,WEEK 36,TREATMENT,2024-10-15,250,,,,,
M19-977-RISA-PED,VS,M19-977-RISA-PED-GBR_SITE01-0002,63,TEMP,Temperature,36.2,C,36.2,36.2,C,,,,,8.0,WEEK 36,TREATMENT,2024-10-15,250,,,,,
M19-977-RISA-PED,VS,M19-977-RISA-PED-GBR_SITE01-0002,64,WEIGHT,Weight,66.4,kg,66.4,66.4,kg,,,,,8.0,WEEK 36,TREATMENT,2024-10-15,250,,,,,
M19-977-RISA-PED,VS,M19-977-RISA-PED-GBR_SITE01-0002,65,BMI,BMI,,,19.9,19.9,kg/m2,,,,Y,10.0,WEEK 60 FU,FOLLOW-UP,2025-04-13,430,,,,,
M19-977-RISA-PED,VS,M19-977-RISA-PED-GBR_SITE01-0002,66,DIABP,Diastolic Blood Pressure,77.3,mmHg,77.3,77.3,mmHg,,,,,10.0,WEEK 60 FU,FOLLOW-UP,2025-04-13,430,,,,,
M19-977-RISA-PED,VS,M19-977-RISA-PED-GBR_SITE01-0002,67,HEIGHT,Height,182.3,cm,182.3,182.3,cm,,,,,10.0,WEEK 60 FU,FOLLOW-UP,2025-04-13,430,,,,,
M19-977-RISA-PED,VS,M19-977-RISA-PED-GBR_SITE01-0002,68,PULSE,Pulse Rate,65.7,beats/min,65.7,65.7,beats/min,,,,,10.0,WEEK 60 FU,FOLLOW-UP,2025-04-13,430,,,,,
M19-977-RISA-PED,VS,M19-977-RISA-PED-GBR_SITE01-0002,69,RESP,Respiratory Rate,14.2,breaths/min,14.2,14.2,breaths/min,,,,,10.0,WEEK 60 FU,FOLLOW-UP,2025-04-13,430,,,,,
M19-977-RISA-PED,VS,M19-977-RISA-PED-GBR_SITE01-0002,70,SYSBP,Systolic Blood Pressure,147.0,mmHg,147.0,147.0,mmHg,,,,,10.0,WEEK 60 FU,FOLLOW-UP,2025-04-13,430,,,,,
M19-977-RISA-PED,VS,M19-977-RISA-PED-GBR_SITE01-0002,71,TEMP,Temperature,36.2,C,36.2,36.2,C,,,,,10.0,WEEK 60 FU,FOLLOW-UP,2025-04-13,430,,,,,
M19-977-RISA-PED,VS,M19-977-RISA-PED-GBR_SITE01-0002,72,WEIGHT,Weight,66.2,kg,66.2,66.2,kg,,,,,10.0,WEEK 60 FU,FOLLOW-UP,2025-04-13,430,,,,,
M19-977-RISA-PED,VS,M19-977-RISA-PED-KOR_SITE01-0005,1,BMI,BMI,,,15.9,15.9,kg/m2,,,,Y,1.0,SCREENING,SCREENING,2024-02-19,-40,,,,,
M19-977-RISA-PED,VS,M19-977-RISA-PED-KOR_SITE01-0005,2,DIABP,Diastolic Blood Pressure,90.0,mmHg,90.0,90.0,mmHg,,,,,1.0,SCREENING,SCREENING,2024-02-19,-40,,,,,
M19-977-RISA-PED,VS,M19-977-RISA-PED-KOR_SITE01-0005,3,HEIGHT,Height,160.3,cm,160.3,160.3,cm,,,,,1.0,SCREENING,SCREENING,2024-02-19,-40,,,,,
M19-977-RISA-PED,VS,M19-977-RISA-PED-KOR_SITE01-0005,4,PULSE,Pulse Rate,67.0,beats/min,67.0,67.0,beats/min,,,,,1.0,SCREENING,SCREENING,2024-02-19,-40,,,,,
M19-977-RISA-PED,VS,M19-977-RISA-PED-KOR_SITE01-0005,5,RESP,Respiratory Rate,13.1,breaths/min,13.1,13.1,breaths/min,,,,,1.0,SCREENING,SCREENING,2024-02-19,-40,,,,,
M19-977-RISA-PED,VS,M19-977-RISA-PED-KOR_SITE01-0005,6,SYSBP,Systolic Blood Pressure,103.2,mmHg,103.2,103.2,mmHg,,,,,1.0,SCREENING,SCREENING,2024-02-19,-40,,,,,
M19-977-RISA-PED,VS,M19-977-RISA-PED-KOR_SITE01-0005,7,TEMP,Temperature,37.1,C,37.1,37.1,C,,,,,1.0,SCREENING,SCREENING,2024-02-19,-40,,,,,
M19-977-RISA-PED,VS,M19-977-RISA-PED-KOR_SITE01-0005,8,WEIGHT,Weight,40.8,kg,40.8,40.8,kg,,,,,1.0,SCREENING,SCREENING,2024-02-19,-40,,,,,
M19-977-RISA-PED,VS,M19-977-RISA-PED-KOR_SITE01-0005,9,BMI,BMI,,,15.7,15.7,kg/m2,,Y,Y,Y,2.0,WEEK 0 BASELINE,TREATMENT,2024-03-30,1,,,,,
M19-977-RISA-PED,VS,M19-977-RISA-PED-KOR_SITE01-0005,10,DIABP,Diastolic Blood Pressure,90.3,mmHg,90.3,90.3,mmHg,,Y,Y,,2.0,WEEK 0 BASELINE,TREATMENT,2024-03-30,1,,,,,
M19-977-RISA-PED,VS,M19-977-RISA-PED-KOR_SITE01-0005,11,HEIGHT,Height,159.8,cm,159.8,159.8,cm,,Y,Y,,2.0,WEEK 0 BASELINE,TREATMENT,2024-03-30,1,,,,,
M19-977-RISA-PED,VS,M19-977-RISA-PED-KOR_SITE01-0005,12,PULSE,Pulse Rate,67.8,beats/min,67.8,67.8,beats/min,,Y,Y,,2.0,WEEK 0 BASELINE,TREATMENT,2024-03-30,1,,,,,
M19-977-RISA-PED,VS,M19-977-RISA-PED-KOR_SITE01-0005,13,RESP,Respiratory Rate,13.3,breaths/min,13.3,13.3,breaths/min,,Y,Y,,2.0,WEEK 0 BASELINE,TREATMENT,2024-03-30,1,,,,,
M19-977-RISA-PED,VS,M19-977-RISA-PED-KOR_SITE01-0005,14,SYSBP,Systolic Blood Pressure,102.6,mmHg,102.6,102.6,mmHg,,Y,Y,,2.0,WEEK 0 BASELINE,TREATMENT,2024-03-30,1,,,,,
M19-977-RISA-PED,VS,M19-977-RISA-PED-KOR_SITE01-0005,15,TEMP,Temperature,37.3,C,37.3,37.3,C,,Y,Y,,2.0,WEEK 0 BASELINE,TREATMENT,2024-03-30,1,,,,,
M19-977-RISA-PED,VS,M19-977-RISA-PED-KOR_SITE01-0005,16,WEIGHT,Weight,40.0,kg,40.0,40.0,kg,,Y,Y,,2.0,WEEK 0 BASELINE,TREATMENT,2024-03-30,1,,,,,
M19-977-RISA-PED,VS,M19-977-RISA-PED-KOR_SITE01-0005,17,DIABP,Diastolic Blood Pressure,91.6,mmHg,91.6,91.6,mmHg,,,,,3.0,WEEK 4,TREATMENT,2024-04-28,30,,,,,
M19-977-RISA-PED,VS,M19-977-RISA-PED-KOR_SITE01-0005,18,HEIGHT,Height,159.3,cm,159.3,159.3,cm,,,,,3.0,WEEK 4,TREATMENT,2024-04-28,30,,,,,
M19-977-RISA-PED,VS,M19-977-RISA-PED-KOR_SITE01-0005,19,PULSE,Pulse Rate,67.3,beats/min,67.3,67.3,beats/min,,,,,3.0,WEEK 4,TREATMENT,2024-04-28,30,,,,,
M19-977-RISA-PED,VS,M19-977-RISA-PED-KOR_SITE01-0005,20,RESP,Respiratory Rate,12.3,breaths/min,12.3,12.3,breaths/min,,,,,3.0,WEEK 4,TREATMENT,2024-04-28,30,,,,,
M19-977-RISA-PED,VS,M19-977-RISA-PED-KOR_SITE01-0005,21,SYSBP,Systolic Blood Pressure,104.1,mmHg,104.1,104.1,mmHg,,,,,3.0,WEEK 4,TREATMENT,2024-04-28,30,,,,,
M19-977-RISA-PED,VS,M19-977-RISA-PED-KOR_SITE01-0005,22,TEMP,Temperature,37.4,C,37.4,37.4,C,,,,,3.0,WEEK 4,TREATMENT,2024-04-28,30,,,,,
M19-977-RISA-PED,VS,M19-977-RISA-PED-KOR_SITE01-0005,23,WEIGHT,Weight,,,,,,NOT DONE,,,,3.0,WEEK 4,TREATMENT,2024-04-28,30,,,,,
M19-977-RISA-PED,VS,M19-977-RISA-PED-KOR_SITE01-0005,24,BMI,BMI,,,16.1,16.1,kg/m2,,,,Y,4.0,WEEK 8,TREATMENT,2024-05-25,57,,,,,
M19-977-RISA-PED,VS,M19-977-RISA-PED-KOR_SITE01-0005,25,DIABP,Diastolic Blood Pressure,89.4,mmHg,89.4,89.4,mmHg,,,,,4.0,WEEK 8,TREATMENT,2024-05-25,57,,,,,
M19-977-RISA-PED,VS,M19-977-RISA-PED-KOR_SITE01-0005,26,HEIGHT,Height,159.3,cm,159.3,159.3,cm,,,,,4.0,WEEK 8,TREATMENT,2024-05-25,57,,,,,
M19-977-RISA-PED,VS,M19-977-RISA-PED-KOR_SITE01-0005,27,PULSE,Pulse Rate,64.9,beats/min,64.9,64.9,beats/min,,,,,4.0,WEEK 8,TREATMENT,2024-05-25,57,,,,,
M19-977-RISA-PED,VS,M19-977-RISA-PED-KOR_SITE01-0005,28,RESP,Respiratory Rate,12.5,breaths/min,12.5,12.5,breaths/min,,,,,4.0,WEEK 8,TREATMENT,2024-05-25,57,,,,,
M19-977-RISA-PED,VS,M19-977-RISA-PED-KOR_SITE01-0005,29,SYSBP,Systolic Blood Pressure,100.0,mmHg,100.0,100.0,mmHg,,,,,4.0,WEEK 8,TREATMENT,2024-05-25,57,,,,,
M19-977-RISA-PED,VS,M19-977-RISA-PED-KOR_SITE01-0005,30,TEMP,Temperature,37.4,C,37.4,37.4,C,,,,,4.0,WEEK 8,TREATMENT,2024-05-25,57,,,,,
M19-977-RISA-PED,VS,M19-977-RISA-PED-KOR_SITE01-0005,31,WEIGHT,Weight,40.9,kg,40.9,40.9,kg,,,,,4.0,WEEK 8,TREATMENT,2024-05-25,57,,,,,
M19-977-RISA-PED,VS,M19-977-RISA-PED-KOR_SITE01-0005,32,BMI,BMI,,,16.7,16.7,kg/m2,,,,Y,5.0,WEEK 12,TREATMENT,2024-06-20,83,,,,,
M19-977-RISA-PED,VS,M19-977-RISA-PED-KOR_SITE01-0005,33,DIABP,Diastolic Blood Pressure,89.8,mmHg,89.8,89.8,mmHg,,,,,5.0,WEEK 12,TREATMENT,2024-06-20,83,,,,,
M19-977-RISA-PED,VS,M19-977-RISA-PED-KOR_SITE01-0005,34,HEIGHT,Height,158.5,cm,158.5,158.5,cm,,,,,5.0,WEEK 12,TREATMENT,2024-06-20,83,,,,,
M19-977-RISA-PED,VS,M19-977-RISA-PED-KOR_SITE01-0005,35,PULSE,Pulse Rate,69.1,beats/min,69.1,69.1,beats/min,,,,,5.0,WEEK 12,TREATMENT,2024-06-20,83,,,,,
M19-977-RISA-PED,VS,M19-977-RISA-PED-KOR_SITE01-0005,36,RESP,Respiratory Rate,12.9,breaths/min,12.9,12.9,breaths/min,,,,,5.0,WEEK 12,TREATMENT,2024-06-20,83,,,,,
M19-977-RISA-PED,VS,M19-977-RISA-PED-KOR_SITE01-0005,37,SYSBP,Systolic Blood Pressure,99.0,mmHg,99.0,99.0,mmHg,,,,,5.0,WEEK 12,TREATMENT,2024-06-20,83,,,,,
M19-977-RISA-PED,VS,M19-977-RISA-PED-KOR_SITE01-0005,38,TEMP,Temperature,37.2,C,37.2,37.2,C,,,,,5.0,WEEK 12,TREATMENT,2024-06-20,83,,,,,
M19-977-RISA-PED,VS,M19-977-RISA-PED-KOR_SITE01-0005,39,WEIGHT,Weight,41.9,kg,41.9,41.9,kg,,,,,5.0,WEEK 12,TREATMENT,2024-06-20,83,,,,,
M19-977-RISA-PED,VS,M19-977-RISA-PED-KOR_SITE01-0005,40,BMI,BMI,,,17.2,17.2,kg/m2,,,,Y,6.0,WEEK 16,TREATMENT,2024-07-16,109,,,,,
M19-977-RISA-PED,VS,M19-977-RISA-PED-KOR_SITE01-0005,41,DIABP,Diastolic Blood Pressure,89.0,mmHg,89.0,89.0,mmHg,,,,,6.0,WEEK 16,TREATMENT,2024-07-16,109,,,,,
M19-977-RISA-PED,VS,M19-977-RISA-PED-KOR_SITE01-0005,42,HEIGHT,Height,158.2,cm,158.2,158.2,cm,,,,,6.0,WEEK 16,TREATMENT,2024-07-16,109,,,,,
M19-977-RISA-PED,VS,M19-977-RISA-PED-KOR_SITE01-0005,43,PULSE,Pulse Rate,66.1,beats/min,66.1,66.1,beats/min,,,,,6.0,WEEK 16,TREATMENT,2024-07-16,109,,,,,
M19-977-RISA-PED,VS,M19-977-RISA-PED-KOR_SITE01-0005,44,RESP,Respiratory Rate,14.8,breaths/min,14.8,14.8,breaths/min,,,,,6.0,WEEK 16,TREATMENT,2024-07-16,109,,,,,
M19-977-RISA-PED,VS,M19-977-RISA-PED-KOR_SITE01-0005,45,SYSBP,Systolic Blood Pressure,,,,,,NOT DONE,,,,6.0,WEEK 16,TREATMENT,2024-07-16,109,,,,,
M19-977-RISA-PED,VS,M19-977-RISA-PED-KOR_SITE01-0005,46,TEMP,Temperature,37.2,C,37.2,37.2,C,,,,,6.0,WEEK 16,TREATMENT,2024-07-16,109,,,,,
M19-977-RISA-PED,VS,M19-977-RISA-PED-KOR_SITE01-0005,47,WEIGHT,Weight,43.0,kg,43.0,43.0,kg,,,,,6.0,WEEK 16,TREATMENT,2024-07-16,109,,,,,
M19-977-RISA-PED,VS,M19-977-RISA-PED-KOR_SITE01-0005,48,BMI,BMI,,,18.3,18.3,kg/m2,,,,Y,7.0,WEEK 24,TREATMENT,2024-09-14,169,,,,,
M19-977-RISA-PED,VS,M19-977-RISA-PED-KOR_SITE01-0005,49,DIABP,Diastolic Blood Pressure,89.1,mmHg,89.1,89.1,mmHg,,,,,7.0,WEEK 24,TREATMENT,2024-09-14,169,,,,,
M19-977-RISA-PED,VS,M19-977-RISA-PED-KOR_SITE01-0005,50,HEIGHT,Height,158.4,cm,158.4,158.4,cm,,,,,7.0,WEEK 24,TREATMENT,2024-09-14,169,,,,,
M19-977-RISA-PED,VS,M19-977-RISA-PED-KOR_SITE01-0005,51,PULSE,Pulse Rate,68.6,beats/min,68.6,68.6,beats/min,,,,,7.0,WEEK 24,TREATMENT,2024-09-14,169,,,,,
M19-977-RISA-PED,VS,M19-977-RISA-PED-KOR_SITE01-0005,52,RESP,Respiratory Rate,13.0,breaths/min,13.0,13.0,breaths/min,,,,,7.0,WEEK 24,TREATMENT,2024-09-14,169,,,,,
M19-977-RISA-PED,VS,M19-977-RISA-PED-KOR_SITE01-0005,53,SYSBP,Systolic Blood Pressure,100.1,mmHg,100.1,100.1,mmHg,,,,,7.0,WEEK 24,TREATMENT,2024-09-14,169,,,,,
M19-977-RISA-PED,VS,M19-977-RISA-PED-KOR_SITE01-0005,54,TEMP,Temperature,37.3,C,37.3,37.3,C,,,,,7.0,WEEK 24,TREATMENT,2024-09-14,169,,,,,
M19-977-RISA-PED,VS,M19-977-RISA-PED-KOR_SITE01-0005,55,WEIGHT,Weight,45.9,kg,45.9,45.9,kg,,,,,7.0,WEEK 24,TREATMENT,2024-09-14,169,,,,,
M19-977-RISA-PED,VS,M19-977-RISA-PED-KOR_SITE01-0005,56,BMI,BMI,,,18.0,18.0,kg/m2,,,,Y,8.0,WEEK 36,TREATMENT,2024-12-01,247,,,,,
M19-977-RISA-PED,VS,M19-977-RISA-PED-KOR_SITE01-0005,57,DIABP,Diastolic Blood Pressure,88.5,mmHg,88.5,88.5,mmHg,,,,,8.0,WEEK 36,TREATMENT,2024-12-01,247,,,,,
M19-977-RISA-PED,VS,M19-977-RISA-PED-KOR_SITE01-0005,58,HEIGHT,Height,158.7,cm,158.7,158.7,cm,,,,,8.0,WEEK 36,TREATMENT,2024-12-01,247,,,,,
M19-977-RISA-PED,VS,M19-977-RISA-PED-KOR_SITE01-0005,59,PULSE,Pulse Rate,72.9,beats/min,72.9,72.9,beats/min,,,,,8.0,WEEK 36,TREATMENT,2024-12-01,247,,,,,
M19-977-RISA-PED,VS,M19-977-RISA-PED-KOR_SITE01-0005,60,RESP,Respiratory Rate,13.9,breaths/min,13.9,13.9,breaths/min,,,,,8.0,WEEK 36,TREATMENT,2024-12-01,247,,,,,
M19-977-RISA-PED,VS,M19-977-RISA-PED-KOR_SITE01-0005,61,SYSBP,Systolic Blood Pressure,99.3,mmHg,99.3,99.3,mmHg,,,,,8.0,WEEK 36,TREATMENT,2024-12-01,247,,,,,
M19-977-RISA-PED,VS,M19-977-RISA-PED-KOR_SITE01-0005,62,TEMP,Temperature,37.2,C,37.2,37.2,C,,,,,8.0,WEEK 36,TREATMENT,2024-12-01,247,,,,,
M19-977-RISA-PED,VS,M19-977-RISA-PED-KOR_SITE01-0005,63,WEIGHT,Weight,45.4,kg,45.4,45.4,kg,,,,,8.0,WEEK 36,TREATMENT,2024-12-01,247,,,,,
M19-977-RISA-PED,VS,M19-977-RISA-PED-KOR_SITE01-0005,64,BMI,BMI,,,18.1,18.1,kg/m2,,,,Y,9.0,WEEK 40 EOT,TREATMENT,2025-01-03,280,,,,,
M19-977-RISA-PED,VS,M19-977-RISA-PED-KOR_SITE01-0005,65,DIABP,Diastolic Blood Pressure,87.7,mmHg,87.7,87.7,mmHg,,,,,9.0,WEEK 40 EOT,TREATMENT,2025-01-03,280,,,,,
M19-977-RISA-PED,VS,M19-977-RISA-PED-KOR_SITE01-0005,66,HEIGHT,Height,158.9,cm,158.9,158.9,cm,,,,,9.0,WEEK 40 EOT,TREATMENT,2025-01-03,280,,,,,
M19-977-RISA-PED,VS,M19-977-RISA-PED-KOR_SITE01-0005,67,PULSE,Pulse Rate,74.1,beats/min,74.1,74.1,beats/min,,,,,9.0,WEEK 40 EOT,TREATMENT,2025-01-03,280,,,,,
M19-977-RISA-PED,VS,M19-977-RISA-PED-KOR_SITE01-0005,68,RESP,Respiratory Rate,14.0,breaths/min,14.0,14.0,breaths/min,,,,,9.0,WEEK 40 EOT,TREATMENT,2025-01-03,280,,,,,
M19-977-RISA-PED,VS,M19-977-RISA-PED-KOR_SITE01-0005,69,SYSBP,Systolic Blood Pressure,99.7,mmHg,99.7,99.7,mmHg,,,,,9.0,WEEK 40 EOT,TREATMENT,2025-01-03,280,,,,,
M19-977-RISA-PED,VS,M19-977-RISA-PED-KOR_SITE01-0005,70,TEMP,Temperature,37.5,C,37.5,37.5,C,,,,,9.0,WEEK 40 EOT,TREATMENT,2025-01-03,280,,,,,
M19-977-RISA-PED,VS,M19-977-RISA-PED-KOR_SITE01-0005,71,WEIGHT,Weight,45.6,kg,45.6,45.6,kg,,,,,9.0,WEEK 40 EOT,TREATMENT,2025-01-03,280,,,,,
M19-977-RISA-PED,VS,M19-977-RISA-PED-KOR_SITE01-0005,72,BMI,BMI,,,17.8,17.8,kg/m2,,,,Y,10.0,WEEK 60 FU,FOLLOW-UP,2025-06-06,434,,,,,
M19-977-RISA-PED,VS,M19-977-RISA-PED-KOR_SITE01-0005,73,DIABP,Diastolic Blood Pressure,89.0,mmHg,89.0,89.0,mmHg,,,,,10.0,WEEK 60 FU,FOLLOW-UP,2025-06-06,434,,,,,
M19-977-RISA-PED,VS,M19-977-RISA-PED-KOR_SITE01-0005,74,HEIGHT,Height,158.4,cm,158.4,158.4,cm,,,,,10.0,WEEK 60 FU,FOLLOW-UP,2025-06-06,434,,,,,
M19-977-RISA-PED,VS,M19-977-RISA-PED-KOR_SITE01-0005,75,PULSE,Pulse Rate,75.1,beats/min,75.1,75.1,beats/min,,,,,10.0,WEEK 60 FU,FOLLOW-UP,2025-06-06,434,,,,,
M19-977-RISA-PED,VS,M19-977-RISA-PED-KOR_SITE01-0005,76,RESP,Respiratory Rate,15.1,breaths/min,15.1,15.1,breaths/min,,,,,10.0,WEEK 60 FU,FOLLOW-UP,2025-06-06,434,,,,,
M19-977-RISA-PED,VS,M19-977-RISA-PED-KOR_SITE01-0005,77,SYSBP,Systolic Blood Pressure,99.6,mmHg,99.6,99.6,mmHg,,,,,10.0,WEEK 60 FU,FOLLOW-UP,2025-06-06,434,,,,,
M19-977-RISA-PED,VS,M19-977-RISA-PED-KOR_SITE01-0005,78,TEMP,Temperature,37.3,C,37.3,37.3,C,,,,,10.0,WEEK 60 FU,FOLLOW-UP,2025-06-06,434,,,,,
M19-977-RISA-PED,VS,M19-977-RISA-PED-KOR_SITE01-0005,79,WEIGHT,Weight,44.6,kg,44.6,44.6,kg,,,,,10.0,WEEK 60 FU,FOLLOW-UP,2025-06-06,434,,,,,
M19-977-RISA-PED,VS,M19-977-RISA-PED-KOR_SITE01-0011,1,BMI,BMI,,,19.9,19.9,kg/m2,,,,Y,1.0,SCREENING,SCREENING,2023-12-18,-52,,,,,
M19-977-RISA-PED,VS,M19-977-RISA-PED-KOR_SITE01-0011,2,DIABP,Diastolic Blood Pressure,72.9,mmHg,72.9,72.9,mmHg,,,,,1.0,SCREENING,SCREENING,2023-12-18,-52,,,,,
M19-977-RISA-PED,VS,M19-977-RISA-PED-KOR_SITE01-0011,3,HEIGHT,Height,184.1,cm,184.1,184.1,cm,,,,,1.0,SCREENING,SCREENING,2023-12-18,-52,,,,,
M19-977-RISA-PED,VS,M19-977-RISA-PED-KOR_SITE01-0011,4,PULSE,Pulse Rate,75.4,beats/min,75.4,75.4,beats/min,,,,,1.0,SCREENING,SCREENING,2023-12-18,-52,,,,,
M19-977-RISA-PED,VS,M19-977-RISA-PED-KOR_SITE01-0011,5,RESP,Respiratory Rate,15.6,breaths/min,15.6,15.6,breaths/min,,,,,1.0,SCREENING,SCREENING,2023-12-18,-52,,,,,
M19-977-RISA-PED,VS,M19-977-RISA-PED-KOR_SITE01-0011,6,SYSBP,Systolic Blood Pressure,126.6,mmHg,126.6,126.6,mmHg,,,,,1.0,SCREENING,SCREENING,2023-12-18,-52,,,,,
M19-977-RISA-PED,VS,M19-977-RISA-PED-KOR_SITE01-0011,7,TEMP,Temperature,36.7,C,36.7,36.7,C,,,,,1.0,SCREENING,SCREENING,2023-12-18,-52,,,,,
M19-977-RISA-PED,VS,M19-977-RISA-PED-KOR_SITE01-0011,8,WEIGHT,Weight,67.6,kg,67.6,67.6,kg,,,,,1.0,SCREENING,SCREENING,2023-12-18,-52,,,,,
M19-977-RISA-PED,VS,M19-977-RISA-PED-KOR_SITE01-0011,9,BMI,BMI,,,20.1,20.1,kg/m2,,Y,Y,Y,2.0,WEEK 0 BASELINE,TREATMENT,2024-02-08,1,,,,,
M19-977-RISA-PED,VS,M19-977-RISA-PED-KOR_SITE01-0011,10,DIABP,Diastolic Blood Pressure,71.2,mmHg,71.2,71.2,mmHg,,Y,Y,,2.0,WEEK 0 BASELINE,TREATMENT,2024-02-08,1,,,,,
M19-977-RISA-PED,VS,M19-977-RISA-PED-KOR_SITE01-0011,11,HEIGHT,Height,184.2,cm,184.2,184.2,cm,,Y,Y,,2.0,WEEK 0 BASELINE,TREATMENT,2024-02-08,1,,,,,
M19-977-RISA-PED,VS,M19-977-RISA-PED-KOR_SITE01-0011,12,PULSE,Pulse Rate,77.1,beats/min,77.1,77.1,beats/min,,Y,Y,,2.0,WEEK 0 BASELINE,TREATMENT,2024-02-08,1,,,,,
M19-977-RISA-PED,VS,M19-977-RISA-PED-KOR_SITE01-0011,13,RESP,Respiratory Rate,15.5,breaths/min,15.5,15.5,breaths/min,,Y,Y,,2.0,WEEK 0 BASELINE,TREATMENT,2024-02-08,1,,,,,
M19-977-RISA-PED,VS,M19-977-RISA-PED-KOR_SITE01-0011,14,SYSBP,Systolic Blood Pressure,123.1,mmHg,123.1,123.1,mmHg,,Y,Y,,2.0,WEEK 0 BASELINE,TREATMENT,2024-02-08,1,,,,,
M19-977-RISA-PED,VS,M19-977-RISA-PED-KOR_SITE01-0011,15,TEMP,Temperature,36.9,C,36.9,36.9,C,,Y,Y,,2.0,WEEK 0 BASELINE,TREATMENT,2024-02-08,1,,,,,
M19-977-RISA-PED,VS,M19-977-RISA-PED-KOR_SITE01-0011,16,WEIGHT,Weight,68.1,kg,68.1,68.1,kg,,Y,Y,,2.0,WEEK 0 BASELINE,TREATMENT,2024-02-08,1,,,,,
M19-977-RISA-PED,VS,M19-977-RISA-PED-KOR_SITE01-0011,17,BMI,BMI,,,19.2,19.2,kg/m2,,,,Y,4.0,WEEK 8,TREATMENT,2024-04-06,59,,,,,
M19-977-RISA-PED,VS,M19-977-RISA-PED-KOR_SITE01-0011,18,DIABP,Diastolic Blood Pressure,73.2,mmHg,73.2,73.2,mmHg,,,,,4.0,WEEK 8,TREATMENT,2024-04-06,59,,,,,
M19-977-RISA-PED,VS,M19-977-RISA-PED-KOR_SITE01-0011,19,HEIGHT,Height,184.1,cm,184.1,184.1,cm,,,,,4.0,WEEK 8,TREATMENT,2024-04-06,59,,,,,
M19-977-RISA-PED,VS,M19-977-RISA-PED-KOR_SITE01-0011,20,PULSE,Pulse Rate,76.1,beats/min,76.1,76.1,beats/min,,,,,4.0,WEEK 8,TREATMENT,2024-04-06,59,,,,,
M19-977-RISA-PED,VS,M19-977-RISA-PED-KOR_SITE01-0011,21,RESP,Respiratory Rate,15.5,breaths/min,15.5,15.5,breaths/min,,,,,4.0,WEEK 8,TREATMENT,2024-04-06,59,,,,,
M19-977-RISA-PED,VS,M19-977-RISA-PED-KOR_SITE01-0011,22,SYSBP,Systolic Blood Pressure,123.9,mmHg,123.9,123.9,mmHg,,,,,4.0,WEEK 8,TREATMENT,2024-04-06,59,,,,,
M19-977-RISA-PED,VS,M19-977-RISA-PED-KOR_SITE01-0011,23,TEMP,Temperature,36.9,C,36.9,36.9,C,,,,,4.0,WEEK 8,TREATMENT,2024-04-06,59,,,,,
M19-977-RISA-PED,VS,M19-977-RISA-PED-KOR_SITE01-0011,24,WEIGHT,Weight,65.2,kg,65.2,65.2,kg,,,,,4.0,WEEK 8,TREATMENT,2024-04-06,59,,,,,
M19-977-RISA-PED,VS,M19-977-RISA-PED-KOR_SITE01-0011,25,BMI,BMI,,,19.3,19.3,kg/m2,,,,Y,5.0,WEEK 12,TREATMENT,2024-04-30,83,,,,,
M19-977-RISA-PED,VS,M19-977-RISA-PED-KOR_SITE01-0011,26,DIABP,Diastolic Blood Pressure,74.6,mmHg,74.6,74.6,mmHg,,,,,5.0,WEEK 12,TREATMENT,2024-04-30,83,,,,,
M19-977-RISA-PED,VS,M19-977-RISA-PED-KOR_SITE01-0011,27,HEIGHT,Height,184.2,cm,184.2,184.2,cm,,,,,5.0,WEEK 12,TREATMENT,2024-04-30,83,,,,,
M19-977-RISA-PED,VS,M19-977-RISA-PED-KOR_SITE01-0011,28,PULSE,Pulse Rate,79.9,beats/min,79.9,79.9,beats/min,,,,,5.0,WEEK 12,TREATMENT,2024-04-30,83,,,,,
M19-977-RISA-PED,VS,M19-977-RISA-PED-KOR_SITE01-0011,29,RESP,Respiratory Rate,14.4,breaths/min,14.4,14.4,breaths/min,,,,,5.0,WEEK 12,TREATMENT,2024-04-30,83,,,,,
M19-977-RISA-PED,VS,M19-977-RISA-PED-KOR_SITE01-0011,30,SYSBP,Systolic Blood Pressure,125.3,mmHg,125.3,125.3,mmHg,,,,,5.0,WEEK 12,TREATMENT,2024-04-30,83,,,,,
M19-977-RISA-PED,VS,M19-977-RISA-PED-KOR_SITE01-0011,31,TEMP,Temperature,36.7,C,36.7,36.7,C,,,,,5.0,WEEK 12,TREATMENT,2024-04-30,83,,,,,
M19-977-RISA-PED,VS,M19-977-RISA-PED-KOR_SITE01-0011,32,WEIGHT,Weight,65.4,kg,65.4,65.4,kg,,,,,5.0,WEEK 12,TREATMENT,2024-04-30,83,,,,,
M19-977-RISA-PED,VS,M19-977-RISA-PED-KOR_SITE01-0011,33,BMI,BMI,,,20.1,20.1,kg/m2,,,,Y,6.0,WEEK 16,TREATMENT,2024-05-25,108,,,,,
M19-977-RISA-PED,VS,M19-977-RISA-PED-KOR_SITE01-0011,34,DIABP,Diastolic Blood Pressure,74.4,mmHg,74.4,74.4,mmHg,,,,,6.0,WEEK 16,TREATMENT,2024-05-25,108,,,,,
M19-977-RISA-PED,VS,M19-977-RISA-PED-KOR_SITE01-0011,35,HEIGHT,Height,184.2,cm,184.2,184.2,cm,,,,,6.0,WEEK 16,TREATMENT,2024-05-25,108,,,,,
M19-977-RISA-PED,VS,M19-977-RISA-PED-KOR_SITE01-0011,36,PULSE,Pulse Rate,75.5,beats/min,75.5,75.5,beats/min,,,,,6.0,WEEK 16,TREATMENT,2024-05-25,108,,,,,
M19-977-RISA-PED,VS,M19-977-RISA-PED-KOR_SITE01-0011,37,RESP,Respiratory Rate,15.6,breaths/min,15.6,15.6,breaths/min,,,,,6.0,WEEK 16,TREATMENT,2024-05-25,108,,,,,
M19-977-RISA-PED,VS,M19-977-RISA-PED-KOR_SITE01-0011,38,SYSBP,Systolic Blood Pressure,126.5,mmHg,126.5,126.5,mmHg,,,,,6.0,WEEK 16,TREATMENT,2024-05-25,108,,,,,
M19-977-RISA-PED,VS,M19-977-RISA-PED-KOR_SITE01-0011,39,TEMP,Temperature,36.9,C,36.9,36.9,C,,,,,6.0,WEEK 16,TREATMENT,2024-05-25,108,,,,,
M19-977-RISA-PED,VS,M19-977-RISA-PED-KOR_SITE01-0011,40,WEIGHT,Weight,68.1,kg,68.1,68.1,kg,,,,,6.0,WEEK 16,TREATMENT,2024-05-25,108,,,,,
M19-977-RISA-PED,VS,M19-977-RISA-PED-KOR_SITE01-0011,41,BMI,BMI,,,19.2,19.2,kg/m2,,,,Y,7.0,WEEK 24,TREATMENT,2024-07-26,170,,,,,
M19-977-RISA-PED,VS,M19-977-RISA-PED-KOR_SITE01-0011,42,DIABP,Diastolic Blood Pressure,72.4,mmHg,72.4,72.4,mmHg,,,,,7.0,WEEK 24,TREATMENT,2024-07-26,170,,,,,
M19-977-RISA-PED,VS,M19-977-RISA-PED-KOR_SITE01-0011,43,HEIGHT,Height,184.5,cm,184.5,184.5,cm,,,,,7.0,WEEK 24,TREATMENT,2024-07-26,170,,,,,
M19-977-RISA-PED,VS,M19-977-RISA-PED-KOR_SITE01-0011,44,PULSE,Pulse Rate,74.3,beats/min,74.3,74.3,beats/min,,,,,7.0,WEEK 24,TREATMENT,2024-07-26,170,,,,,
M19-977-RISA-PED,VS,M19-977-RISA-PED-KOR_SITE01-0011,45,RESP,Respiratory Rate,16.7,breaths/min,16.7,16.7,breaths/min,,,,,7.0,WEEK 24,TREATMENT,2024-07-26,170,,,,,
M19-977-RISA-PED,VS,M19-977-RISA-PED-KOR_SITE01-0011,46,SYSBP,Systolic Blood Pressure,125.1,mmHg,125.1,125.1,mmHg,,,,,7.0,WEEK 24,TREATMENT,2024-07-26,170,,,,,
M19-977-RISA-PED,VS,M19-977-RISA-PED-KOR_SITE01-0011,47,TEMP,Temperature,36.6,C,36.6,36.6,C,,,,,7.0,WEEK 24,TREATMENT,2024-07-26,170,,,,,
M19-977-RISA-PED,VS,M19-977-RISA-PED-KOR_SITE01-0011,48,WEIGHT,Weight,65.2,kg,65.2,65.2,kg,,,,,7.0,WEEK 24,TREATMENT,2024-07-26,170,,,,,
M19-977-RISA-PED,VS,M19-977-RISA-PED-KOR_SITE01-0014,1,BMI,BMI,,,43.9,43.9,kg/m2,,,,Y,1.0,SCREENING,SCREENING,2023-12-17,-65,,,,,
M19-977-RISA-PED,VS,M19-977-RISA-PED-KOR_SITE01-0014,2,DIABP,Diastolic Blood Pressure,61.9,mmHg,61.9,61.9,mmHg,,,,,1.0,SCREENING,SCREENING,2023-12-17,-65,,,,,
M19-977-RISA-PED,VS,M19-977-RISA-PED-KOR_SITE01-0014,3,HEIGHT,Height,144.3,cm,144.3,144.3,cm,,,,,1.0,SCREENING,SCREENING,2023-12-17,-65,,,,,
M19-977-RISA-PED,VS,M19-977-RISA-PED-KOR_SITE01-0014,4,PULSE,Pulse Rate,89.2,beats/min,89.2,89.2,beats/min,,,,,1.0,SCREENING,SCREENING,2023-12-17,-65,,,,,
M19-977-RISA-PED,VS,M19-977-RISA-PED-KOR_SITE01-0014,5,RESP,Respiratory Rate,20.3,breaths/min,20.3,20.3,breaths/min,,,,,1.0,SCREENING,SCREENING,2023-12-17,-65,,,,,
M19-977-RISA-PED,VS,M19-977-RISA-PED-KOR_SITE01-0014,6,SYSBP,Systolic Blood Pressure,104.2,mmHg,104.2,104.2,mmHg,,,,,1.0,SCREENING,SCREENING,2023-12-17,-65,,,,,
M19-977-RISA-PED,VS,M19-977-RISA-PED-KOR_SITE01-0014,7,TEMP,Temperature,37.0,C,37.0,37.0,C,,,,,1.0,SCREENING,SCREENING,2023-12-17,-65,,,,,
M19-977-RISA-PED,VS,M19-977-RISA-PED-KOR_SITE01-0014,8,WEIGHT,Weight,91.5,kg,91.5,91.5,kg,,,,,1.0,SCREENING,SCREENING,2023-12-17,-65,,,,,
M19-977-RISA-PED,VS,M19-977-RISA-PED-KOR_SITE01-0014,9,BMI,BMI,,,43.7,43.7,kg/m2,,Y,Y,Y,2.0,WEEK 0 BASELINE,TREATMENT,2024-02-20,1,,,,,
M19-977-RISA-PED,VS,M19-977-RISA-PED-KOR_SITE01-0014,10,DIABP,Diastolic Blood Pressure,62.7,mmHg,62.7,62.7,mmHg,,Y,Y,,2.0,WEEK 0 BASELINE,TREATMENT,2024-02-20,1,,,,,
M19-977-RISA-PED,VS,M19-977-RISA-PED-KOR_SITE01-0014,11,HEIGHT,Height,143.9,cm,143.9,143.9,cm,,Y,Y,,2.0,WEEK 0 BASELINE,TREATMENT,2024-02-20,1,,,,,
M19-977-RISA-PED,VS,M19-977-RISA-PED-KOR_SITE01-0014,12,PULSE,Pulse Rate,90.3,beats/min,90.3,90.3,beats/min,,Y,Y,,2.0,WEEK 0 BASELINE,TREATMENT,2024-02-20,1,,,,,
M19-977-RISA-PED,VS,M19-977-RISA-PED-KOR_SITE01-0014,13,RESP,Respiratory Rate,17.3,breaths/min,17.3,17.3,breaths/min,,Y,Y,,2.0,WEEK 0 BASELINE,TREATMENT,2024-02-20,1,,,,,
M19-977-RISA-PED,VS,M19-977-RISA-PED-KOR_SITE01-0014,14,SYSBP,Systolic Blood Pressure,104.0,mmHg,104.0,104.0,mmHg,,Y,Y,,2.0,WEEK 0 BASELINE,TREATMENT,2024-02-20,1,,,,,
M19-977-RISA-PED,VS,M19-977-RISA-PED-KOR_SITE01-0014,15,TEMP,Temperature,37.0,C,37.0,37.0,C,,Y,Y,,2.0,WEEK 0 BASELINE,TREATMENT,2024-02-20,1,,,,,
M19-977-RISA-PED,VS,M19-977-RISA-PED-KOR_SITE01-0014,16,WEIGHT,Weight,90.5,kg,90.5,90.5,kg,,Y,Y,,2.0,WEEK 0 BASELINE,TREATMENT,2024-02-20,1,,,,,
M19-977-RISA-PED,VS,M19-977-RISA-PED-KOR_SITE01-0014,17,BMI,BMI,,,44.4,44.4,kg/m2,,,,Y,3.0,WEEK 4,TREATMENT,2024-03-16,26,,,,,
M19-977-RISA-PED,VS,M19-977-RISA-PED-KOR_SITE01-0014,18,DIABP,Diastolic Blood Pressure,60.4,mmHg,60.4,60.4,mmHg,,,,,3.0,WEEK 4,TREATMENT,2024-03-16,26,,,,,
M19-977-RISA-PED,VS,M19-977-RISA-PED-KOR_SITE01-0014,19,HEIGHT,Height,143.4,cm,143.4,143.4,cm,,,,,3.0,WEEK 4,TREATMENT,2024-03-16,26,,,,,
M19-977-RISA-PED,VS,M19-977-RISA-PED-KOR_SITE01-0014,20,PULSE,Pulse Rate,96.3,beats/min,96.3,96.3,beats/min,,,,,3.0,WEEK 4,TREATMENT,2024-03-16,26,,,,,
M19-977-RISA-PED,VS,M19-977-RISA-PED-KOR_SITE01-0014,21,RESP,Respiratory Rate,17.7,breaths/min,17.7,17.7,breaths/min,,,,,3.0,WEEK 4,TREATMENT,2024-03-16,26,,,,,
M19-977-RISA-PED,VS,M19-977-RISA-PED-KOR_SITE01-0014,22,SYSBP,Systolic Blood Pressure,101.8,mmHg,101.8,101.8,mmHg,,,,,3.0,WEEK 4,TREATMENT,2024-03-16,26,,,,,
M19-977-RISA-PED,VS,M19-977-RISA-PED-KOR_SITE01-0014,23,TEMP,Temperature,,,,,,NOT DONE,,,,3.0,WEEK 4,TREATMENT,2024-03-16,26,,,,,
M19-977-RISA-PED,VS,M19-977-RISA-PED-KOR_SITE01-0014,24,WEIGHT,Weight,91.4,kg,91.4,91.4,kg,,,,,3.0,WEEK 4,TREATMENT,2024-03-16,26,,,,,
M19-977-RISA-PED,VS,M19-977-RISA-PED-KOR_SITE01-0014,25,BMI,BMI,,,44.5,44.5,kg/m2,,,,Y,4.0,WEEK 8,TREATMENT,2024-04-16,57,,,,,
M19-977-RISA-PED,VS,M19-977-RISA-PED-KOR_SITE01-0014,26,DIABP,Diastolic Blood Pressure,57.9,mmHg,57.9,57.9,mmHg,,,,,4.0,WEEK 8,TREATMENT,2024-04-16,57,,,,,
M19-977-RISA-PED,VS,M19-977-RISA-PED-KOR_SITE01-0014,27,HEIGHT,Height,143.8,cm,143.8,143.8,cm,,,,,4.0,WEEK 8,TREATMENT,2024-04-16,57,,,,,
M19-977-RISA-PED,VS,M19-977-RISA-PED-KOR_SITE01-0014,28,PULSE,Pulse Rate,103.1,beats/min,103.1,103.1,beats/min,,,,,4.0,WEEK 8,TREATMENT,2024-04-16,57,,,,,
M19-977-RISA-PED,VS,M19-977-RISA-PED-KOR_SITE01-0014,29,RESP,Respiratory Rate,18.0,breaths/min,18.0,18.0,breaths/min,,,,,4.0,WEEK 8,TREATMENT,2024-04-16,57,,,,,
M19-977-RISA-PED,VS,M19-977-RISA-PED-KOR_SITE01-0014,30,SYSBP,Systolic Blood Pressure,98.9,mmHg,98.9,98.9,mmHg,,,,,4.0,WEEK 8,TREATMENT,2024-04-16,57,,,,,
M19-977-RISA-PED,VS,M19-977-RISA-PED-KOR_SITE01-0014,31,TEMP,Temperature,36.9,C,36.9,36.9,C,,,,,4.0,WEEK 8,TREATMENT,2024-04-16,57,,,,,
M19-977-RISA-PED,VS,M19-977-RISA-PED-KOR_SITE01-0014,32,WEIGHT,Weight,92.0,kg,92.0,92.0,kg,,,,,4.0,WEEK 8,TREATMENT,2024-04-16,57,,,,,
M19-977-RISA-PED,VS,M19-977-RISA-PED-KOR_SITE01-0014,33,BMI,BMI,,,43.2,43.2,kg/m2,,,,Y,5.0,WEEK 12,TREATMENT,2024-05-11,82,,,,,
M19-977-RISA-PED,VS,M19-977-RISA-PED-KOR_SITE01-0014,34,DIABP,Diastolic Blood Pressure,56.9,mmHg,56.9,56.9,mmHg,,,,,5.0,WEEK 12,TREATMENT,2024-05-11,82,,,,,
M19-977-RISA-PED,VS,M19-977-RISA-PED-KOR_SITE01-0014,35,HEIGHT,Height,145.0,cm,145.0,145.0,cm,,,,,5.0,WEEK 12,TREATMENT,2024-05-11,82,,,,,
M19-977-RISA-PED,VS,M19-977-RISA-PED-KOR_SITE01-0014,36,PULSE,Pulse Rate,106.1,beats/min,106.1,106.1,beats/min,,,,,5.0,WEEK 12,TREATMENT,2024-05-11,82,,,,,
M19-977-RISA-PED,VS,M19-977-RISA-PED-KOR_SITE01-0014,37,RESP,Respiratory Rate,18.5,breaths/min,18.5,18.5,breaths/min,,,,,5.0,WEEK 12,TREATMENT,2024-05-11,82,,,,,
M19-977-RISA-PED,VS,M19-977-RISA-PED-KOR_SITE01-0014,38,SYSBP,Systolic Blood Pressure,98.6,mmHg,98.6,98.6,mmHg,,,,,5.0,WEEK 12,TREATMENT,2024-05-11,82,,,,,
M19-977-RISA-PED,VS,M19-977-RISA-PED-KOR_SITE01-0014,39,TEMP,Temperature,37.0,C,37.0,37.0,C,,,,,5.0,WEEK 12,TREATMENT,2024-05-11,82,,,,,
M19-977-RISA-PED,VS,M19-977-RISA-PED-KOR_SITE01-0014,40,WEIGHT,Weight,90.9,kg,90.9,90.9,kg,,,,,5.0,WEEK 12,TREATMENT,2024-05-11,82,,,,,
M19-977-RISA-PED,VS,M19-977-RISA-PED-KOR_SITE01-0014,41,BMI,BMI,,,43.7,43.7,kg/m2,,,,Y,6.0,WEEK 16,TREATMENT,2024-06-12,114,,,,,
M19-977-RISA-PED,VS,M19-977-RISA-PED-KOR_SITE01-0014,42,DIABP,Diastolic Blood Pressure,56.3,mmHg,56.3,56.3,mmHg,,,,,6.0,WEEK 16,TREATMENT,2024-06-12,114,,,,,
M19-977-RISA-PED,VS,M19-977-RISA-PED-KOR_SITE01-0014,43,HEIGHT,Height,144.5,cm,144.5,144.5,cm,,,,,6.0,WEEK 16,TREATMENT,2024-06-12,114,,,,,
M19-977-RISA-PED,VS,M19-977-RISA-PED-KOR_SITE01-0014,44,PULSE,Pulse Rate,102.9,beats/min,102.9,102.9,beats/min,,,,,6.0,WEEK 16,TREATMENT,2024-06-12,114,,,,,
M19-977-RISA-PED,VS,M19-977-RISA-PED-KOR_SITE01-0014,45,RESP,Respiratory Rate,18.7,breaths/min,18.7,18.7,breaths/min,,,,,6.0,WEEK 16,TREATMENT,2024-06-12,114,,,,,
M19-977-RISA-PED,VS,M19-977-RISA-PED-KOR_SITE01-0014,46,SYSBP,Systolic Blood Pressure,98.1,mmHg,98.1,98.1,mmHg,,,,,6.0,WEEK 16,TREATMENT,2024-06-12,114,,,,,
M19-977-RISA-PED,VS,M19-977-RISA-PED-KOR_SITE01-0014,47,TEMP,Temperature,36.8,C,36.8,36.8,C,,,,,6.0,WEEK 16,TREATMENT,2024-06-12,114,,,,,
M19-977-RISA-PED,VS,M19-977-RISA-PED-KOR_SITE01-0014,48,WEIGHT,Weight,91.3,kg,91.3,91.3,kg,,,,,6.0,WEEK 16,TREATMENT,2024-06-12,114,,,,,
M19-977-RISA-PED,VS,M19-977-RISA-PED-KOR_SITE01-0014,49,BMI,BMI,,,43.9,43.9,kg/m2,,,,Y,7.0,WEEK 24,TREATMENT,2024-08-07,170,,,,,
M19-977-RISA-PED,VS,M19-977-RISA-PED-KOR_SITE01-0014,50,DIABP,Diastolic Blood Pressure,61.3,mmHg,61.3,61.3,mmHg,,,,,7.0,WEEK 24,TREATMENT,2024-08-07,170,,,,,
M19-977-RISA-PED,VS,M19-977-RISA-PED-KOR_SITE01-0014,51,HEIGHT,Height,143.9,cm,143.9,143.9,cm,,,,,7.0,WEEK 24,TREATMENT,2024-08-07,170,,,,,
M19-977-RISA-PED,VS,M19-977-RISA-PED-KOR_SITE01-0014,52,PULSE,Pulse Rate,97.3,beats/min,97.3,97.3,beats/min,,,,,7.0,WEEK 24,TREATMENT,2024-08-07,170,,,,,
M19-977-RISA-PED,VS,M19-977-RISA-PED-KOR_SITE01-0014,53,RESP,Respiratory Rate,19.3,breaths/min,19.3,19.3,breaths/min,,,,,7.0,WEEK 24,TREATMENT,2024-08-07,170,,,,,
M19-977-RISA-PED,VS,M19-977-RISA-PED-KOR_SITE01-0014,54,SYSBP,Systolic Blood Pressure,103.8,mmHg,103.8,103.8,mmHg,,,,,7.0,WEEK 24,TREATMENT,2024-08-07,170,,,,,
M19-977-RISA-PED,VS,M19-977-RISA-PED-KOR_SITE01-0014,55,TEMP,Temperature,36.8,C,36.8,36.8,C,,,,,7.0,WEEK 24,TREATMENT,2024-08-07,170,,,,,
M19-977-RISA-PED,VS,M19-977-RISA-PED-KOR_SITE01-0014,56,WEIGHT,Weight,90.9,kg,90.9,90.9,kg,,,,,7.0,WEEK 24,TREATMENT,2024-08-07,170,,,,,
M19-977-RISA-PED,VS,M19-977-RISA-PED-KOR_SITE01-0014,57,BMI,BMI,,,45.1,45.1,kg/m2,,,,Y,8.0,WEEK 36,TREATMENT,2024-10-30,254,,,,,
M19-977-RISA-PED,VS,M19-977-RISA-PED-KOR_SITE01-0014,58,DIABP,Diastolic Blood Pressure,61.5,mmHg,61.5,61.5,mmHg,,,,,8.0,WEEK 36,TREATMENT,2024-10-30,254,,,,,
M19-977-RISA-PED,VS,M19-977-RISA-PED-KOR_SITE01-0014,59,HEIGHT,Height,143.8,cm,143.8,143.8,cm,,,,,8.0,WEEK 36,TREATMENT,2024-10-30,254,,,,,
M19-977-RISA-PED,VS,M19-977-RISA-PED-KOR_SITE01-0014,60,PULSE,Pulse Rate,99.9,beats/min,99.9,99.9,beats/min,,,,,8.0,WEEK 36,TREATMENT,2024-10-30,254,,,,,
M19-977-RISA-PED,VS,M19-977-RISA-PED-KOR_SITE01-0014,61,RESP,Respiratory Rate,19.1,breaths/min,19.1,19.1,breaths/min,,,,,8.0,WEEK 36,TREATMENT,2024-10-30,254,,,,,
M19-977-RISA-PED,VS,M19-977-RISA-PED-KOR_SITE01-0014,62,SYSBP,Systolic Blood Pressure,103.3,mmHg,103.3,103.3,mmHg,,,,,8.0,WEEK 36,TREATMENT,2024-10-30,254,,,,,
M19-977-RISA-PED,VS,M19-977-RISA-PED-KOR_SITE01-0014,63,TEMP,Temperature,36.7,C,36.7,36.7,C,,,,,8.0,WEEK 36,TREATMENT,2024-10-30,254,,,,,
M19-977-RISA-PED,VS,M19-977-RISA-PED-KOR_SITE01-0014,64,WEIGHT,Weight,93.3,kg,93.3,93.3,kg,,,,,8.0,WEEK 36,TREATMENT,2024-10-30,254,,,,,
M19-977-RISA-PED,VS,M19-977-RISA-PED-KOR_SITE01-0014,65,BMI,BMI,,,44.8,44.8,kg/m2,,,,Y,9.0,WEEK 40 EOT,TREATMENT,2024-11-20,275,,,,,
M19-977-RISA-PED,VS,M19-977-RISA-PED-KOR_SITE01-0014,66,DIABP,Diastolic Blood Pressure,61.2,mmHg,61.2,61.2,mmHg,,,,,9.0,WEEK 40 EOT,TREATMENT,2024-11-20,275,,,,,
M19-977-RISA-PED,VS,M19-977-RISA-PED-KOR_SITE01-0014,67,HEIGHT,Height,144.2,cm,144.2,144.2,cm,,,,,9.0,WEEK 40 EOT,TREATMENT,2024-11-20,275,,,,,
M19-977-RISA-PED,VS,M19-977-RISA-PED-KOR_SITE01-0014,68,PULSE,Pulse Rate,97.0,beats/min,97.0,97.0,beats/min,,,,,9.0,WEEK 40 EOT,TREATMENT,2024-11-20,275,,,,,
M19-977-RISA-PED,VS,M19-977-RISA-PED-KOR_SITE01-0014,69,RESP,Respiratory Rate,19.6,breaths/min,19.6,19.6,breaths/min,,,,,9.0,WEEK 40 EOT,TREATMENT,2024-11-20,275,,,,,
M19-977-RISA-PED,VS,M19-977-RISA-PED-KOR_SITE01-0014,70,SYSBP,Systolic Blood Pressure,102.0,mmHg,102.0,102.0,mmHg,,,,,9.0,WEEK 40 EOT,TREATMENT,2024-11-20,275,,,,,
M19-977-RISA-PED,VS,M19-977-RISA-PED-KOR_SITE01-0014,71,TEMP,Temperature,37.1,C,37.1,37.1,C,,,,,9.0,WEEK 40 EOT,TREATMENT,2024-11-20,275,,,,,
M19-977-RISA-PED,VS,M19-977-RISA-PED-KOR_SITE01-0014,72,WEIGHT,Weight,93.1,kg,93.1,93.1,kg,,,,,9.0,WEEK 40 EOT,TREATMENT,2024-11-20,275,,,,,
M19-977-RISA-PED,VS,M19-977-RISA-PED-KOR_SITE01-0014,73,BMI,BMI,,,43.9,43.9,kg/m2,,,,Y,10.0,WEEK 60 FU,FOLLOW-UP,2025-04-27,433,,,,,
M19-977-RISA-PED,VS,M19-977-RISA-PED-KOR_SITE01-0014,74,DIABP,Diastolic Blood Pressure,61.1,mmHg,61.1,61.1,mmHg,,,,,10.0,WEEK 60 FU,FOLLOW-UP,2025-04-27,433,,,,,
M19-977-RISA-PED,VS,M19-977-RISA-PED-KOR_SITE01-0014,75,HEIGHT,Height,145.6,cm,145.6,145.6,cm,,,,,10.0,WEEK 60 FU,FOLLOW-UP,2025-04-27,433,,,,,
M19-977-RISA-PED,VS,M19-977-RISA-PED-KOR_SITE01-0014,76,PULSE,Pulse Rate,95.8,beats/min,95.8,95.8,beats/min,,,,,10.0,WEEK 60 FU,FOLLOW-UP,2025-04-27,433,,,,,
M19-977-RISA-PED,VS,M19-977-RISA-PED-KOR_SITE01-0014,77,RESP,Respiratory Rate,18.0,breaths/min,18.0,18.0,breaths/min,,,,,10.0,WEEK 60 FU,FOLLOW-UP,2025-04-27,433,,,,,
M19-977-RISA-PED,VS,M19-977-RISA-PED-KOR_SITE01-0014,78,SYSBP,Systolic Blood Pressure,104.3,mmHg,104.3,104.3,mmHg,,,,,10.0,WEEK 60 FU,FOLLOW-UP,2025-04-27,433,,,,,
M19-977-RISA-PED,VS,M19-977-RISA-PED-KOR_SITE01-0014,79,TEMP,Temperature,36.7,C,36.7,36.7,C,,,,,10.0,WEEK 60 FU,FOLLOW-UP,2025-04-27,433,,,,,
M19-977-RISA-PED,VS,M19-977-RISA-PED-KOR_SITE01-0014,80,WEIGHT,Weight,93.0,kg,93.0,93.0,kg,,,,,10.0,WEEK 60 FU,FOLLOW-UP,2025-04-27,433,,,,,
M19-977-RISA-PED,VS,M19-977-RISA-PED-USA_SITE01-0006,1,BMI,BMI,,,30.5,30.5,kg/m2,,,,Y,1.0,SCREENING,SCREENING,2024-02-14,-54,,,,,
M19-977-RISA-PED,VS,M19-977-RISA-PED-USA_SITE01-0006,2,DIABP,Diastolic Blood Pressure,78.7,mmHg,78.7,78.7,mmHg,,,,,1.0,SCREENING,SCREENING,2024-02-14,-54,,,,,
M19-977-RISA-PED,VS,M19-977-RISA-PED-USA_SITE01-0006,3,HEIGHT,Height,142.5,cm,142.5,142.5,cm,,,,,1.0,SCREENING,SCREENING,2024-02-14,-54,,,,,
M19-977-RISA-PED,VS,M19-977-RISA-PED-USA_SITE01-0006,4,PULSE,Pulse Rate,74.0,beats/min,74.0,74.0,beats/min,,,,,1.0,SCREENING,SCREENING,2024-02-14,-54,,,,,
M19-977-RISA-PED,VS,M19-977-RISA-PED-USA_SITE01-0006,5,RESP,Respiratory Rate,,,,,,NOT DONE,,,,1.0,SCREENING,SCREENING,2024-02-14,-54,,,,,
M19-977-RISA-PED,VS,M19-977-RISA-PED-USA_SITE01-0006,6,SYSBP,Systolic Blood Pressure,88.1,mmHg,88.1,88.1,mmHg,,,,,1.0,SCREENING,SCREENING,2024-02-14,-54,,,,,
M19-977-RISA-PED,VS,M19-977-RISA-PED-USA_SITE01-0006,7,TEMP,Temperature,37.0,C,37.0,37.0,C,,,,,1.0,SCREENING,SCREENING,2024-02-14,-54,,,,,
M19-977-RISA-PED,VS,M19-977-RISA-PED-USA_SITE01-0006,8,WEIGHT,Weight,62.0,kg,62.0,62.0,kg,,,,,1.0,SCREENING,SCREENING,2024-02-14,-54,,,,,
M19-977-RISA-PED,VS,M19-977-RISA-PED-USA_SITE01-0006,9,BMI,BMI,,,30.9,30.9,kg/m2,,Y,Y,Y,2.0,WEEK 0 BASELINE,TREATMENT,2024-04-08,1,,,,,
M19-977-RISA-PED,VS,M19-977-RISA-PED-USA_SITE01-0006,10,DIABP,Diastolic Blood Pressure,81.2,mmHg,81.2,81.2,mmHg,,Y,Y,,2.0,WEEK 0 BASELINE,TREATMENT,2024-04-08,1,,,,,
M19-977-RISA-PED,VS,M19-977-RISA-PED-USA_SITE01-0006,11,HEIGHT,Height,142.8,cm,142.8,142.8,cm,,Y,Y,,2.0,WEEK 0 BASELINE,TREATMENT,2024-04-08,1,,,,,
M19-977-RISA-PED,VS,M19-977-RISA-PED-USA_SITE01-0006,12,PULSE,Pulse Rate,72.7,beats/min,72.7,72.7,beats/min,,Y,Y,,2.0,WEEK 0 BASELINE,TREATMENT,2024-04-08,1,,,,,
M19-977-RISA-PED,VS,M19-977-RISA-PED-USA_SITE01-0006,13,RESP,Respiratory Rate,18.1,breaths/min,18.1,18.1,breaths/min,,Y,Y,,2.0,WEEK 0 BASELINE,TREATMENT,2024-04-08,1,,,,,
M19-977-RISA-PED,VS,M19-977-RISA-PED-USA_SITE01-0006,14,SYSBP,Systolic Blood Pressure,92.2,mmHg,92.2,92.2,mmHg,,Y,Y,,2.0,WEEK 0 BASELINE,TREATMENT,2024-04-08,1,,,,,
M19-977-RISA-PED,VS,M19-977-RISA-PED-USA_SITE01-0006,15,TEMP,Temperature,37.0,C,37.0,37.0,C,,Y,Y,,2.0,WEEK 0 BASELINE,TREATMENT,2024-04-08,1,,,,,
M19-977-RISA-PED,VS,M19-977-RISA-PED-USA_SITE01-0006,16,WEIGHT,Weight,63.0,kg,63.0,63.0,kg,,Y,Y,,2.0,WEEK 0 BASELINE,TREATMENT,2024-04-08,1,,,,,
M19-977-RISA-PED,VS,M19-977-RISA-PED-USA_SITE01-0006,17,BMI,BMI,,,30.1,30.1,kg/m2,,,,Y,3.0,WEEK 4,TREATMENT,2024-05-04,27,,,,,
M19-977-RISA-PED,VS,M19-977-RISA-PED-USA_SITE01-0006,18,DIABP,Diastolic Blood Pressure,80.1,mmHg,80.1,80.1,mmHg,,,,,3.0,WEEK 4,TREATMENT,2024-05-04,27,,,,,
M19-977-RISA-PED,VS,M19-977-RISA-PED-USA_SITE01-0006,19,HEIGHT,Height,143.3,cm,143.3,143.3,cm,,,,,3.0,WEEK 4,TREATMENT,2024-05-04,27,,,,,
M19-977-RISA-PED,VS,M19-977-RISA-PED-USA_SITE01-0006,20,PULSE,Pulse Rate,72.5,beats/min,72.5,72.5,beats/min,,,,,3.0,WEEK 4,TREATMENT,2024-05-04,27,,,,,
M19-977-RISA-PED,VS,M19-977-RISA-PED-USA_SITE01-0006,21,RESP,Respiratory Rate,17.9,breaths/min,17.9,17.9,breaths/min,,,,,3.0,WEEK 4,TREATMENT,2024-05-04,27,,,,,
M19-977-RISA-PED,VS,M19-977-RISA-PED-USA_SITE01-0006,22,SYSBP,Systolic Blood Pressure,90.9,mmHg,90.9,90.9,mmHg,,,,,3.0,WEEK 4,TREATMENT,2024-05-04,27,,,,,
M19-977-RISA-PED,VS,M19-977-RISA-PED-USA_SITE01-0006,23,TEMP,Temperature,,,,,,NOT DONE,,,,3.0,WEEK 4,TREATMENT,2024-05-04,27,,,,,
M19-977-RISA-PED,VS,M19-977-RISA-PED-USA_SITE01-0006,24,WEIGHT,Weight,61.8,kg,61.8,61.8,kg,,,,,3.0,WEEK 4,TREATMENT,2024-05-04,27,,,,,
M19-977-RISA-PED,VS,M19-977-RISA-PED-USA_SITE01-0006,25,BMI,BMI,,,29.4,29.4,kg/m2,,,,Y,4.0,WEEK 8,TREATMENT,2024-06-02,56,,,,,
M19-977-RISA-PED,VS,M19-977-RISA-PED-USA_SITE01-0006,26,DIABP,Diastolic Blood Pressure,80.5,mmHg,80.5,80.5,mmHg,,,,,4.0,WEEK 8,TREATMENT,2024-06-02,56,,,,,
M19-977-RISA-PED,VS,M19-977-RISA-PED-USA_SITE01-0006,27,HEIGHT,Height,143.8,cm,143.8,143.8,cm,,,,,4.0,WEEK 8,TREATMENT,2024-06-02,56,,,,,
M19-977-RISA-PED,VS,M19-977-RISA-PED-USA_SITE01-0006,28,PULSE,Pulse Rate,77.5,beats/min,77.5,77.5,beats/min,,,,,4.0,WEEK 8,TREATMENT,2024-06-02,56,,,,,
M19-977-RISA-PED,VS,M19-977-RISA-PED-USA_SITE01-0006,29,RESP,Respiratory Rate,19.7,breaths/min,19.7,19.7,breaths/min,,,,,4.0,WEEK 8,TREATMENT,2024-06-02,56,,,,,
M19-977-RISA-PED,VS,M19-977-RISA-PED-USA_SITE01-0006,30,SYSBP,Systolic Blood Pressure,89.6,mmHg,89.6,89.6,mmHg,,,,,4.0,WEEK 8,TREATMENT,2024-06-02,56,,,,,
M19-977-RISA-PED,VS,M19-977-RISA-PED-USA_SITE01-0006,31,TEMP,Temperature,,,,,,NOT DONE,,,,4.0,WEEK 8,TREATMENT,2024-06-02,56,,,,,
M19-977-RISA-PED,VS,M19-977-RISA-PED-USA_SITE01-0006,32,WEIGHT,Weight,60.7,kg,60.7,60.7,kg,,,,,4.0,WEEK 8,TREATMENT,2024-06-02,56,,,,,
M19-977-RISA-PED,VS,M19-977-RISA-PED-USA_SITE01-0006,33,BMI,BMI,,,29.2,29.2,kg/m2,,,,Y,5.0,WEEK 12,TREATMENT,2024-07-04,88,,,,,
M19-977-RISA-PED,VS,M19-977-RISA-PED-USA_SITE01-0006,34,DIABP,Diastolic Blood Pressure,81.4,mmHg,81.4,81.4,mmHg,,,,,5.0,WEEK 12,TREATMENT,2024-07-04,88,,,,,
M19-977-RISA-PED,VS,M19-977-RISA-PED-USA_SITE01-0006,35,HEIGHT,Height,144.2,cm,144.2,144.2,cm,,,,,5.0,WEEK 12,TREATMENT,2024-07-04,88,,,,,
M19-977-RISA-PED,VS,M19-977-RISA-PED-USA_SITE01-0006,36,PULSE,Pulse Rate,77.6,beats/min,77.6,77.6,beats/min,,,,,5.0,WEEK 12,TREATMENT,2024-07-04,88,,,,,
M19-977-RISA-PED,VS,M19-977-RISA-PED-USA_SITE01-0006,37,RESP,Respiratory Rate,17.9,breaths/min,17.9,17.9,breaths/min,,,,,5.0,WEEK 12,TREATMENT,2024-07-04,88,,,,,
M19-977-RISA-PED,VS,M19-977-RISA-PED-USA_SITE01-0006,38,SYSBP,Systolic Blood Pressure,90.0,mmHg,90.0,90.0,mmHg,,,,,5.0,WEEK 12,TREATMENT,2024-07-04,88,,,,,
M19-977-RISA-PED,VS,M19-977-RISA-PED-USA_SITE01-0006,39,TEMP,Temperature,37.1,C,37.1,37.1,C,,,,,5.0,WEEK 12,TREATMENT,2024-07-04,88,,,,,
M19-977-RISA-PED,VS,M19-977-RISA-PED-USA_SITE01-0006,40,WEIGHT,Weight,60.7,kg,60.7,60.7,kg,,,,,5.0,WEEK 12,TREATMENT,2024-07-04,88,,,,,
M19-977-RISA-PED,VS,M19-977-RISA-PED-USA_SITE01-0006,41,BMI,BMI,,,30.3,30.3,kg/m2,,,,Y,6.0,WEEK 16,TREATMENT,2024-08-01,116,,,,,
M19-977-RISA-PED,VS,M19-977-RISA-PED-USA_SITE01-0006,42,DIABP,Diastolic Blood Pressure,80.8,mmHg,80.8,80.8,mmHg,,,,,6.0,WEEK 16,TREATMENT,2024-08-01,116,,,,,
M19-977-RISA-PED,VS,M19-977-RISA-PED-USA_SITE01-0006,43,HEIGHT,Height,142.8,cm,142.8,142.8,cm,,,,,6.0,WEEK 16,TREATMENT,2024-08-01,116,,,,,
M19-977-RISA-PED,VS,M19-977-RISA-PED-USA_SITE01-0006,44,PULSE,Pulse Rate,72.9,beats/min,72.9,72.9,beats/min,,,,,6.0,WEEK 16,TREATMENT,2024-08-01,116,,,,,
M19-977-RISA-PED,VS,M19-977-RISA-PED-USA_SITE01-0006,45,RESP,Respiratory Rate,18.4,breaths/min,18.4,18.4,breaths/min,,,,,6.0,WEEK 16,TREATMENT,2024-08-01,116,,,,,
M19-977-RISA-PED,VS,M19-977-RISA-PED-USA_SITE01-0006,46,SYSBP,Systolic Blood Pressure,87.4,mmHg,87.4,87.4,mmHg,,,,,6.0,WEEK 16,TREATMENT,2024-08-01,116,,,,,
M19-977-RISA-PED,VS,M19-977-RISA-PED-USA_SITE01-0006,47,TEMP,Temperature,37.1,C,37.1,37.1,C,,,,,6.0,WEEK 16,TREATMENT,2024-08-01,116,,,,,
M19-977-RISA-PED,VS,M19-977-RISA-PED-USA_SITE01-0006,48,WEIGHT,Weight,61.7,kg,61.7,61.7,kg,,,,,6.0,WEEK 16,TREATMENT,2024-08-01,116,,,,,
M19-977-RISA-PED,VS,M19-977-RISA-PED-USA_SITE01-0006,49,BMI,BMI,,,29.4,29.4,kg/m2,,,,Y,7.0,WEEK 24,TREATMENT,2024-09-30,176,,,,,
M19-977-RISA-PED,VS,M19-977-RISA-PED-USA_SITE01-0006,50,DIABP,Diastolic Blood Pressure,78.8,mmHg,78.8,78.8,mmHg,,,,,7.0,WEEK 24,TREATMENT,2024-09-30,176,,,,,
M19-977-RISA-PED,VS,M19-977-RISA-PED-USA_SITE01-0006,51,HEIGHT,Height,142.9,cm,142.9,142.9,cm,,,,,7.0,WEEK 24,TREATMENT,2024-09-30,176,,,,,
M19-977-RISA-PED,VS,M19-977-RISA-PED-USA_SITE01-0006,52,PULSE,Pulse Rate,76.9,beats/min,76.9,76.9,beats/min,,,,,7.0,WEEK 24,TREATMENT,2024-09-30,176,,,,,
M19-977-RISA-PED,VS,M19-977-RISA-PED-USA_SITE01-0006,53,RESP,Respiratory Rate,16.1,breaths/min,16.1,16.1,breaths/min,,,,,7.0,WEEK 24,TREATMENT,2024-09-30,176,,,,,
M19-977-RISA-PED,VS,M19-977-RISA-PED-USA_SITE01-0006,54,SYSBP,Systolic Blood Pressure,84.3,mmHg,84.3,84.3,mmHg,,,,,7.0,WEEK 24,TREATMENT,2024-09-30,176,,,,,
M19-977-RISA-PED,VS,M19-977-RISA-PED-USA_SITE01-0006,55,TEMP,Temperature,37.0,C,37.0,37.0,C,,,,,7.0,WEEK 24,TREATMENT,2024-09-30,176,,,,,
M19-977-RISA-PED,VS,M19-977-RISA-PED-USA_SITE01-0006,56,WEIGHT,Weight,60.0,kg,60.0,60.0,kg,,,,,7.0,WEEK 24,TREATMENT,2024-09-30,176,,,,,
M19-977-RISA-PED,VS,M19-977-RISA-PED-USA_SITE01-0006,57,BMI,BMI,,,29.5,29.5,kg/m2,,,,Y,8.0,WEEK 36,TREATMENT,2024-12-20,257,,,,,
M19-977-RISA-PED,VS,M19-977-RISA-PED-USA_SITE01-0006,58,DIABP,Diastolic Blood Pressure,79.4,mmHg,79.4,79.4,mmHg,,,,,8.0,WEEK 36,TREATMENT,2024-12-20,257,,,,,
M19-977-RISA-PED,VS,M19-977-RISA-PED-USA_SITE01-0006,59,HEIGHT,Height,142.7,cm,142.7,142.7,cm,,,,,8.0,WEEK 36,TREATMENT,2024-12-20,257,,,,,
M19-977-RISA-PED,VS,M19-977-RISA-PED-USA_SITE01-0006,60,PULSE,Pulse Rate,80.5,beats/min,80.5,80.5,beats/min,,,,,8.0,WEEK 36,TREATMENT,2024-12-20,257,,,,,
M19-977-RISA-PED,VS,M19-977-RISA-PED-USA_SITE01-0006,61,RESP,Respiratory Rate,16.9,breaths/min,16.9,16.9,breaths/min,,,,,8.0,WEEK 36,TREATMENT,2024-12-20,257,,,,,
M19-977-RISA-PED,VS,M19-977-RISA-PED-USA_SITE01-0006,62,SYSBP,Systolic Blood Pressure,85.2,mmHg,85.2,85.2,mmHg,,,,,8.0,WEEK 36,TREATMENT,2024-12-20,257,,,,,
M19-977-RISA-PED,VS,M19-977-RISA-PED-USA_SITE01-0006,63,TEMP,Temperature,37.1,C,37.1,37.1,C,,,,,8.0,WEEK 36,TREATMENT,2024-12-20,257,,,,,
M19-977-RISA-PED,VS,M19-977-RISA-PED-USA_SITE01-0006,64,WEIGHT,Weight,60.1,kg,60.1,60.1,kg,,,,,8.0,WEEK 36,TREATMENT,2024-12-20,257,,,,,
M19-977-RISA-PED,VS,M19-977-RISA-PED-USA_SITE01-0006,65,BMI,BMI,,,28.5,28.5,kg/m2,,,,Y,10.0,WEEK 60 FU,FOLLOW-UP,2025-06-10,429,,,,,
M19-977-RISA-PED,VS,M19-977-RISA-PED-USA_SITE01-0006,66,DIABP,Diastolic Blood Pressure,78.6,mmHg,78.6,78.6,mmHg,,,,,10.0,WEEK 60 FU,FOLLOW-UP,2025-06-10,429,,,,,
M19-977-RISA-PED,VS,M19-977-RISA-PED-USA_SITE01-0006,67,HEIGHT,Height,142.9,cm,142.9,142.9,cm,,,,,10.0,WEEK 60 FU,FOLLOW-UP,2025-06-10,429,,,,,
M19-977-RISA-PED,VS,M19-977-RISA-PED-USA_SITE01-0006,68,PULSE,Pulse Rate,74.3,beats/min,74.3,74.3,beats/min,,,,,10.0,WEEK 60 FU,FOLLOW-UP,2025-06-10,429,,,,,
M19-977-RISA-PED,VS,M19-977-RISA-PED-USA_SITE01-0006,69,RESP,Respiratory Rate,16.5,breaths/min,16.5,16.5,breaths/min,,,,,10.0,WEEK 60 FU,FOLLOW-UP,2025-06-10,429,,,,,
M19-977-RISA-PED,VS,M19-977-RISA-PED-USA_SITE01-0006,70,SYSBP,Systolic Blood Pressure,83.6,mmHg,83.6,83.6,mmHg,,,,,10.0,WEEK 60 FU,FOLLOW-UP,2025-06-10,429,,,,,
M19-977-RISA-PED,VS,M19-977-RISA-PED-USA_SITE01-0006,71,TEMP,Temperature,36.9,C,36.9,36.9,C,,,,,10.0,WEEK 60 FU,FOLLOW-UP,2025-06-10,429,,,,,
M19-977-RISA-PED,VS,M19-977-RISA-PED-USA_SITE01-0006,72,WEIGHT,Weight,58.3,kg,58.3,58.3,kg,,,,,10.0,WEEK 60 FU,FOLLOW-UP,2025-06-10,429,,,,,
M19-977-RISA-PED,VS,M19-977-RISA-PED-USA_SITE02-0013,1,BMI,BMI,,,23.8,23.8,kg/m2,,,,Y,1.0,SCREENING,SCREENING,2024-02-02,-37,,,,,
M19-977-RISA-PED,VS,M19-977-RISA-PED-USA_SITE02-0013,2,DIABP,Diastolic Blood Pressure,70.1,mmHg,70.1,70.1,mmHg,,,,,1.0,SCREENING,SCREENING,2024-02-02,-37,,,,,
M19-977-RISA-PED,VS,M19-977-RISA-PED-USA_SITE02-0013,3,HEIGHT,Height,165.1,cm,165.1,165.1,cm,,,,,1.0,SCREENING,SCREENING,2024-02-02,-37,,,,,
M19-977-RISA-PED,VS,M19-977-RISA-PED-USA_SITE02-0013,4,PULSE,Pulse Rate,78.2,beats/min,78.2,78.2,beats/min,,,,,1.0,SCREENING,SCREENING,2024-02-02,-37,,,,,
M19-977-RISA-PED,VS,M19-977-RISA-PED-USA_SITE02-0013,5,RESP,Respiratory Rate,15.9,breaths/min,15.9,15.9,breaths/min,,,,,1.0,SCREENING,SCREENING,2024-02-02,-37,,,,,
M19-977-RISA-PED,VS,M19-977-RISA-PED-USA_SITE02-0013,6,SYSBP,Systolic Blood Pressure,107.1,mmHg,107.1,107.1,mmHg,,,,,1.0,SCREENING,SCREENING,2024-02-02,-37,,,,,
M19-977-RISA-PED,VS,M19-977-RISA-PED-USA_SITE02-0013,7,TEMP,Temperature,37.1,C,37.1,37.1,C,,,,,1.0,SCREENING,SCREENING,2024-02-02,-37,,,,,
M19-977-RISA-PED,VS,M19-977-RISA-PED-USA_SITE02-0013,8,WEIGHT,Weight,64.9,kg,64.9,64.9,kg,,,,,1.0,SCREENING,SCREENING,2024-02-02,-37,,,,,
M19-977-RISA-PED,VS,M19-977-RISA-PED-USA_SITE02-0013,9,BMI,BMI,,,24.5,24.5,kg/m2,,Y,Y,Y,2.0,WEEK 0 BASELINE,TREATMENT,2024-03-10,1,,,,,
M19-977-RISA-PED,VS,M19-977-RISA-PED-USA_SITE02-0013,10,DIABP,Diastolic Blood Pressure,71.1,mmHg,71.1,71.1,mmHg,,Y,Y,,2.0,WEEK 0 BASELINE,TREATMENT,2024-03-10,1,,,,,
M19-977-RISA-PED,VS,M19-977-RISA-PED-USA_SITE02-0013,11,HEIGHT,Height,164.5,cm,164.5,164.5,cm,,Y,Y,,2.0,WEEK 0 BASELINE,TREATMENT,2024-03-10,1,,,,,
M19-977-RISA-PED,VS,M19-977-RISA-PED-USA_SITE02-0013,12,PULSE,Pulse Rate,70.7,beats/min,70.7,70.7,beats/min,,Y,Y,,2.0,WEEK 0 BASELINE,TREATMENT,2024-03-10,1,,,,,
M19-977-RISA-PED,VS,M19-977-RISA-PED-USA_SITE02-0013,13,RESP,Respiratory Rate,14.5,breaths/min,14.5,14.5,breaths/min,,Y,Y,,2.0,WEEK 0 BASELINE,TREATMENT,2024-03-10,1,,,,,
M19-977-RISA-PED,VS,M19-977-RISA-PED-USA_SITE02-0013,14,SYSBP,Systolic Blood Pressure,109.8,mmHg,109.8,109.8,mmHg,,Y,Y,,2.0,WEEK 0 BASELINE,TREATMENT,2024-03-10,1,,,,,
M19-977-RISA-PED,VS,M19-977-RISA-PED-USA_SITE02-0013,15,TEMP,Temperature,37.2,C,37.2,37.2,C,,Y,Y,,2.0,WEEK 0 BASELINE,TREATMENT,2024-03-10,1,,,,,
M19-977-RISA-PED,VS,M19-977-RISA-PED-USA_SITE02-0013,16,WEIGHT,Weight,66.2,kg,66.2,66.2,kg,,Y,Y,,2.0,WEEK 0 BASELINE,TREATMENT,2024-03-10,1,,,,,
M19-977-RISA-PED,VS,M19-977-RISA-PED-USA_SITE02-0013,17,BMI,BMI,,,23.4,23.4,kg/m2,,,,Y,3.0,WEEK 4,TREATMENT,2024-04-04,26,,,,,
M19-977-RISA-PED,VS,M19-977-RISA-PED-USA_SITE02-0013,18,DIABP,Diastolic Blood Pressure,69.7,mmHg,69.7,69.7,mmHg,,,,,3.0,WEEK 4,TREATMENT,2024-04-04,26,,,,,
M19-977-RISA-PED,VS,M19-977-RISA-PED-USA_SITE02-0013,19,HEIGHT,Height,163.8,cm,163.8,163.8,cm,,,,,3.0,WEEK 4,TREATMENT,2024-04-04,26,,,,,
M19-977-RISA-PED,VS,M19-977-RISA-PED-USA_SITE02-0013,20,PULSE,Pulse Rate,76.0,beats/min,76.0,76.0,beats/min,,,,,3.0,WEEK 4,TREATMENT,2024-04-04,26,,,,,
M19-977-RISA-PED,VS,M19-977-RISA-PED-USA_SITE02-0013,21,RESP,Respiratory Rate,14.3,breaths/min,14.3,14.3,breaths/min,,,,,3.0,WEEK 4,TREATMENT,2024-04-04,26,,,,,
M19-977-RISA-PED,VS,M19-977-RISA-PED-USA_SITE02-0013,22,SYSBP,Systolic Blood Pressure,108.2,mmHg,108.2,108.2,mmHg,,,,,3.0,WEEK 4,TREATMENT,2024-04-04,26,,,,,
M19-977-RISA-PED,VS,M19-977-RISA-PED-USA_SITE02-0013,23,TEMP,Temperature,36.9,C,36.9,36.9,C,,,,,3.0,WEEK 4,TREATMENT,2024-04-04,26,,,,,
M19-977-RISA-PED,VS,M19-977-RISA-PED-USA_SITE02-0013,24,WEIGHT,Weight,62.8,kg,62.8,62.8,kg,,,,,3.0,WEEK 4,TREATMENT,2024-04-04,26,,,,,
M19-977-RISA-PED,VS,M19-977-RISA-PED-USA_SITE02-0013,25,DIABP,Diastolic Blood Pressure,71.0,mmHg,71.0,71.0,mmHg,,,,,4.0,WEEK 8,TREATMENT,2024-05-06,58,,,,,
M19-977-RISA-PED,VS,M19-977-RISA-PED-USA_SITE02-0013,26,HEIGHT,Height,,,,,,NOT DONE,,,,4.0,WEEK 8,TREATMENT,2024-05-06,58,,,,,
M19-977-RISA-PED,VS,M19-977-RISA-PED-USA_SITE02-0013,27,PULSE,Pulse Rate,74.2,beats/min,74.2,74.2,beats/min,,,,,4.0,WEEK 8,TREATMENT,2024-05-06,58,,,,,
M19-977-RISA-PED,VS,M19-977-RISA-PED-USA_SITE02-0013,28,RESP,Respiratory Rate,15.3,breaths/min,15.3,15.3,breaths/min,,,,,4.0,WEEK 8,TREATMENT,2024-05-06,58,,,,,
M19-977-RISA-PED,VS,M19-977-RISA-PED-USA_SITE02-0013,29,SYSBP,Systolic Blood Pressure,110.8,mmHg,110.8,110.8,mmHg,,,,,4.0,WEEK 8,TREATMENT,2024-05-06,58,,,,,
M19-977-RISA-PED,VS,M19-977-RISA-PED-USA_SITE02-0013,30,TEMP,Temperature,37.3,C,37.3,37.3,C,,,,,4.0,WEEK 8,TREATMENT,2024-05-06,58,,,,,
M19-977-RISA-PED,VS,M19-977-RISA-PED-USA_SITE02-0013,31,WEIGHT,Weight,63.4,kg,63.4,63.4,kg,,,,,4.0,WEEK 8,TREATMENT,2024-05-06,58,,,,,
M19-977-RISA-PED,VS,M19-977-RISA-PED-USA_SITE02-0013,32,BMI,BMI,,,23.6,23.6,kg/m2,,,,Y,5.0,WEEK 12,TREATMENT,2024-06-03,86,,,,,
M19-977-RISA-PED,VS,M19-977-RISA-PED-USA_SITE02-0013,33,DIABP,Diastolic Blood Pressure,70.7,mmHg,70.7,70.7,mmHg,,,,,5.0,WEEK 12,TREATMENT,2024-06-03,86,,,,,
M19-977-RISA-PED,VS,M19-977-RISA-PED-USA_SITE02-0013,34,HEIGHT,Height,163.5,cm,163.5,163.5,cm,,,,,5.0,WEEK 12,TREATMENT,2024-06-03,86,,,,,
M19-977-RISA-PED,VS,M19-977-RISA-PED-USA_SITE02-0013,35,PULSE,Pulse Rate,75.6,beats/min,75.6,75.6,beats/min,,,,,5.0,WEEK 12,TREATMENT,2024-06-03,86,,,,,
M19-977-RISA-PED,VS,M19-977-RISA-PED-USA_SITE02-0013,36,RESP,Respiratory Rate,14.6,breaths/min,14.6,14.6,breaths/min,,,,,5.0,WEEK 12,TREATMENT,2024-06-03,86,,,,,
M19-977-RISA-PED,VS,M19-977-RISA-PED-USA_SITE02-0013,37,SYSBP,Systolic Blood Pressure,111.9,mmHg,111.9,111.9,mmHg,,,,,5.0,WEEK 12,TREATMENT,2024-06-03,86,,,,,
M19-977-RISA-PED,VS,M19-977-RISA-PED-USA_SITE02-0013,38,TEMP,Temperature,37.1,C,37.1,37.1,C,,,,,5.0,WEEK 12,TREATMENT,2024-06-03,86,,,,,
M19-977-RISA-PED,VS,M19-977-RISA-PED-USA_SITE02-0013,39,WEIGHT,Weight,63.2,kg,63.2,63.2,kg,,,,,5.0,WEEK 12,TREATMENT,2024-06-03,86,,,,,
M19-977-RISA-PED,VS,M19-977-RISA-PED-USA_SITE02-0013,40,BMI,BMI,,,23.1,23.1,kg/m2,,,,Y,6.0,WEEK 16,TREATMENT,2024-06-27,110,,,,,
M19-977-RISA-PED,VS,M19-977-RISA-PED-USA_SITE02-0013,41,DIABP,Diastolic Blood Pressure,70.3,mmHg,70.3,70.3,mmHg,,,,,6.0,WEEK 16,TREATMENT,2024-06-27,110,,,,,
M19-977-RISA-PED,VS,M19-977-RISA-PED-USA_SITE02-0013,42,HEIGHT,Height,163.9,cm,163.9,163.9,cm,,,,,6.0,WEEK 16,TREATMENT,2024-06-27,110,,,,,
M19-977-RISA-PED,VS,M19-977-RISA-PED-USA_SITE02-0013,43,PULSE,Pulse Rate,75.0,beats/min,75.0,75.0,beats/min,,,,,6.0,WEEK 16,TREATMENT,2024-06-27,110,,,,,
M19-977-RISA-PED,VS,M19-977-RISA-PED-USA_SITE02-0013,44,RESP,Respiratory Rate,14.7,breaths/min,14.7,14.7,breaths/min,,,,,6.0,WEEK 16,TREATMENT,2024-06-27,110,,,,,
M19-977-RISA-PED,VS,M19-977-RISA-PED-USA_SITE02-0013,45,SYSBP,Systolic Blood Pressure,109.3,mmHg,109.3,109.3,mmHg,,,,,6.0,WEEK 16,TREATMENT,2024-06-27,110,,,,,
M19-977-RISA-PED,VS,M19-977-RISA-PED-USA_SITE02-0013,46,TEMP,Temperature,37.7,C,37.7,37.7,C,,,,,6.0,WEEK 16,TREATMENT,2024-06-27,110,,,,,
M19-977-RISA-PED,VS,M19-977-RISA-PED-USA_SITE02-0013,47,WEIGHT,Weight,62.0,kg,62.0,62.0,kg,,,,,6.0,WEEK 16,TREATMENT,2024-06-27,110,,,,,
M19-977-RISA-PED,VS,M19-977-RISA-PED-USA_SITE02-0013,48,BMI,BMI,,,23.7,23.7,kg/m2,,,,Y,7.0,WEEK 24,TREATMENT,2024-08-22,166,,,,,
M19-977-RISA-PED,VS,M19-977-RISA-PED-USA_SITE02-0013,49,DIABP,Diastolic Blood Pressure,70.4,mmHg,70.4,70.4,mmHg,,,,,7.0,WEEK 24,TREATMENT,2024-08-22,166,,,,,
M19-977-RISA-PED,VS,M19-977-RISA-PED-USA_SITE02-0013,50,HEIGHT,Height,163.8,cm,163.8,163.8,cm,,,,,7.0,WEEK 24,TREATMENT,2024-08-22,166,,,,,
M19-977-RISA-PED,VS,M19-977-RISA-PED-USA_SITE02-0013,51,PULSE,Pulse Rate,76.9,beats/min,76.9,76.9,beats/min,,,,,7.0,WEEK 24,TREATMENT,2024-08-22,166,,,,,
M19-977-RISA-PED,VS,M19-977-RISA-PED-USA_SITE02-0013,52,RESP,Respiratory Rate,14.8,breaths/min,14.8,14.8,breaths/min,,,,,7.0,WEEK 24,TREATMENT,2024-08-22,166,,,,,
M19-977-RISA-PED,VS,M19-977-RISA-PED-USA_SITE02-0013,53,SYSBP,Systolic Blood Pressure,108.7,mmHg,108.7,108.7,mmHg,,,,,7.0,WEEK 24,TREATMENT,2024-08-22,166,,,,,
M19-977-RISA-PED,VS,M19-977-RISA-PED-USA_SITE02-0013,54,TEMP,Temperature,37.4,C,37.4,37.4,C,,,,,7.0,WEEK 24,TREATMENT,2024-08-22,166,,,,,
M19-977-RISA-PED,VS,M19-977-RISA-PED-USA_SITE02-0013,55,WEIGHT,Weight,63.7,kg,63.7,63.7,kg,,,,,7.0,WEEK 24,TREATMENT,2024-08-22,166,,,,,
M19-977-RISA-PED,VS,M19-977-RISA-PED-USA_SITE02-0013,56,BMI,BMI,,,24.3,24.3,kg/m2,,,,Y,8.0,WEEK 36,TREATMENT,2024-11-14,250,,,,,
M19-977-RISA-PED,VS,M19-977-RISA-PED-USA_SITE02-0013,57,DIABP,Diastolic Blood Pressure,70.4,mmHg,70.4,70.4,mmHg,,,,,8.0,WEEK 36,TREATMENT,2024-11-14,250,,,,,
M19-977-RISA-PED,VS,M19-977-RISA-PED-USA_SITE02-0013,58,HEIGHT,Height,162.7,cm,162.7,162.7,cm,,,,,8.0,WEEK 36,TREATMENT,2024-11-14,250,,,,,
M19-977-RISA-PED,VS,M19-977-RISA-PED-USA_SITE02-0013,59,PULSE,Pulse Rate,,,,,,NOT DONE,,,,8.0,WEEK 36,TREATMENT,2024-11-14,250,,,,,
M19-977-RISA-PED,VS,M19-977-RISA-PED-USA_SITE02-0013,60,RESP,Respiratory Rate,14.5,breaths/min,14.5,14.5,breaths/min,,,,,8.0,WEEK 36,TREATMENT,2024-11-14,250,,,,,
M19-977-RISA-PED,VS,M19-977-RISA-PED-USA_SITE02-0013,61,SYSBP,Systolic Blood Pressure,107.8,mmHg,107.8,107.8,mmHg,,,,,8.0,WEEK 36,TREATMENT,2024-11-14,250,,,,,
M19-977-RISA-PED,VS,M19-977-RISA-PED-USA_SITE02-0013,62,TEMP,Temperature,37.3,C,37.3,37.3,C,,,,,8.0,WEEK 36,TREATMENT,2024-11-14,250,,,,,
M19-977-RISA-PED,VS,M19-977-RISA-PED-USA_SITE02-0013,63,WEIGHT,Weight,64.4,kg,64.4,64.4,kg,,,,,8.0,WEEK 36,TREATMENT,2024-11-14,250,,,,,
M19-977-RISA-PED,VS,M19-977-RISA-PED-USA_SITE02-0013,64,BMI,BMI,,,24.8,24.8,kg/m2,,,,Y,9.0,WEEK 40 EOT,TREATMENT,2024-12-14,280,,,,,
M19-977-RISA-PED,VS,M19-977-RISA-PED-USA_SITE02-0013,65,DIABP,Diastolic Blood Pressure,70.0,mmHg,70.0,70.0,mmHg,,,,,9.0,WEEK 40 EOT,TREATMENT,2024-12-14,280,,,,,
M19-977-RISA-PED,VS,M19-977-RISA-PED-USA_SITE02-0013,66,HEIGHT,Height,161.8,cm,161.8,161.8,cm,,,,,9.0,WEEK 40 EOT,TREATMENT,2024-12-14,280,,,,,
M19-977-RISA-PED,VS,M19-977-RISA-PED-USA_SITE02-0013,67,PULSE,Pulse Rate,74.2,beats/min,74.2,74.2,beats/min,,,,,9.0,WEEK 40 EOT,TREATMENT,2024-12-14,280,,,,,
M19-977-RISA-PED,VS,M19-977-RISA-PED-USA_SITE02-0013,68,RESP,Respiratory Rate,15.1,breaths/min,15.1,15.1,breaths/min,,,,,9.0,WEEK 40 EOT,TREATMENT,2024-12-14,280,,,,,
M19-977-RISA-PED,VS,M19-977-RISA-PED-USA_SITE02-0013,69,SYSBP,Systolic Blood Pressure,108.8,mmHg,108.8,108.8,mmHg,,,,,9.0,WEEK 40 EOT,TREATMENT,2024-12-14,280,,,,,
M19-977-RISA-PED,VS,M19-977-RISA-PED-USA_SITE02-0013,70,TEMP,Temperature,37.2,C,37.2,37.2,C,,,,,9.0,WEEK 40 EOT,TREATMENT,2024-12-14,280,,,,,
M19-977-RISA-PED,VS,M19-977-RISA-PED-USA_SITE02-0013,71,WEIGHT,Weight,64.9,kg,64.9,64.9,kg,,,,,9.0,WEEK 40 EOT,TREATMENT,2024-12-14,280,,,,,
M19-977-RISA-PED,VS,M19-977-RISA-PED-USA_SITE02-0013,72,BMI,BMI,,,25.3,25.3,kg/m2,,,,Y,10.0,WEEK 60 FU,FOLLOW-UP,2025-05-02,419,,,,,
M19-977-RISA-PED,VS,M19-977-RISA-PED-USA_SITE02-0013,73,DIABP,Diastolic Blood Pressure,70.0,mmHg,70.0,70.0,mmHg,,,,,10.0,WEEK 60 FU,FOLLOW-UP,2025-05-02,419,,,,,
M19-977-RISA-PED,VS,M19-977-RISA-PED-USA_SITE02-0013,74,HEIGHT,Height,162.0,cm,162.0,162.0,cm,,,,,10.0,WEEK 60 FU,FOLLOW-UP,2025-05-02,419,,,,,
M19-977-RISA-PED,VS,M19-977-RISA-PED-USA_SITE02-0013,75,PULSE,Pulse Rate,71.1,beats/min,71.1,71.1,beats/min,,,,,10.0,WEEK 60 FU,FOLLOW-UP,2025-05-02,419,,,,,
M19-977-RISA-PED,VS,M19-977-RISA-PED-USA_SITE02-0013,76,RESP,Respiratory Rate,15.1,breaths/min,15.1,15.1,breaths/min,,,,,10.0,WEEK 60 FU,FOLLOW-UP,2025-05-02,419,,,,,
M19-977-RISA-PED,VS,M19-977-RISA-PED-USA_SITE02-0013,77,SYSBP,Systolic Blood Pressure,109.3,mmHg,109.3,109.3,mmHg,,,,,10.0,WEEK 60 FU,FOLLOW-UP,2025-05-02,419,,,,,
M19-977-RISA-PED,VS,M19-977-RISA-PED-USA_SITE02-0013,78,TEMP,Temperature,37.3,C,37.3,37.3,C,,,,,10.0,WEEK 60 FU,FOLLOW-UP,2025-05-02,419,,,,,
M19-977-RISA-PED,VS,M19-977-RISA-PED-USA_SITE02-0013,79,WEIGHT,Weight,66.3,kg,66.3,66.3,kg,,,,,10.0,WEEK 60 FU,FOLLOW-UP,2025-05-02,419,,,,,
M19-977-RISA-PED,VS,M19-977-RISA-PED-USA_SITE02-0016,1,BMI,BMI,,,27.1,27.1,kg/m2,,,,Y,1.0,SCREENING,SCREENING,2023-12-25,-69,,,,,
M19-977-RISA-PED,VS,M19-977-RISA-PED-USA_SITE02-0016,2,DIABP,Diastolic Blood Pressure,69.8,mmHg,69.8,69.8,mmHg,,,,,1.0,SCREENING,SCREENING,2023-12-25,-69,,,,,
M19-977-RISA-PED,VS,M19-977-RISA-PED-USA_SITE02-0016,3,HEIGHT,Height,171.9,cm,171.9,171.9,cm,,,,,1.0,SCREENING,SCREENING,2023-12-25,-69,,,,,
M19-977-RISA-PED,VS,M19-977-RISA-PED-USA_SITE02-0016,4,PULSE,Pulse Rate,74.8,beats/min,74.8,74.8,beats/min,,,,,1.0,SCREENING,SCREENING,2023-12-25,-69,,,,,
M19-977-RISA-PED,VS,M19-977-RISA-PED-USA_SITE02-0016,5,RESP,Respiratory Rate,14.7,breaths/min,14.7,14.7,breaths/min,,,,,1.0,SCREENING,SCREENING,2023-12-25,-69,,,,,
M19-977-RISA-PED,VS,M19-977-RISA-PED-USA_SITE02-0016,6,SYSBP,Systolic Blood Pressure,85.3,mmHg,85.3,85.3,mmHg,,,,,1.0,SCREENING,SCREENING,2023-12-25,-69,,,,,
M19-977-RISA-PED,VS,M19-977-RISA-PED-USA_SITE02-0016,7,TEMP,Temperature,36.2,C,36.2,36.2,C,,,,,1.0,SCREENING,SCREENING,2023-12-25,-69,,,,,
M19-977-RISA-PED,VS,M19-977-RISA-PED-USA_SITE02-0016,8,WEIGHT,Weight,80.0,kg,80.0,80.0,kg,,,,,1.0,SCREENING,SCREENING,2023-12-25,-69,,,,,
M19-977-RISA-PED,VS,M19-977-RISA-PED-USA_SITE02-0016,9,BMI,BMI,,,26.6,26.6,kg/m2,,Y,Y,Y,2.0,WEEK 0 BASELINE,TREATMENT,2024-03-03,1,,,,,
M19-977-RISA-PED,VS,M19-977-RISA-PED-USA_SITE02-0016,10,DIABP,Diastolic Blood Pressure,72.1,mmHg,72.1,72.1,mmHg,,Y,Y,,2.0,WEEK 0 BASELINE,TREATMENT,2024-03-03,1,,,,,
M19-977-RISA-PED,VS,M19-977-RISA-PED-USA_SITE02-0016,11,HEIGHT,Height,171.8,cm,171.8,171.8,cm,,Y,Y,,2.0,WEEK 0 BASELINE,TREATMENT,2024-03-03,1,,,,,
M19-977-RISA-PED,VS,M19-977-RISA-PED-USA_SITE02-0016,12,PULSE,Pulse Rate,75.2,beats/min,75.2,75.2,beats/min,,Y,Y,,2.0,WEEK 0 BASELINE,TREATMENT,2024-03-03,1,,,,,
M19-977-RISA-PED,VS,M19-977-RISA-PED-USA_SITE02-0016,13,RESP,Respiratory Rate,16.5,breaths/min,16.5,16.5,breaths/min,,Y,Y,,2.0,WEEK 0 BASELINE,TREATMENT,2024-03-03,1,,,,,
M19-977-RISA-PED,VS,M19-977-RISA-PED-USA_SITE02-0016,14,SYSBP,Systolic Blood Pressure,87.6,mmHg,87.6,87.6,mmHg,,Y,Y,,2.0,WEEK 0 BASELINE,TREATMENT,2024-03-03,1,,,,,
M19-977-RISA-PED,VS,M19-977-RISA-PED-USA_SITE02-0016,15,TEMP,Temperature,36.3,C,36.3,36.3,C,,Y,Y,,2.0,WEEK 0 BASELINE,TREATMENT,2024-03-03,1,,,,,
M19-977-RISA-PED,VS,M19-977-RISA-PED-USA_SITE02-0016,16,WEIGHT,Weight,78.6,kg,78.6,78.6,kg,,Y,Y,,2.0,WEEK 0 BASELINE,TREATMENT,2024-03-03,1,,,,,
M19-977-RISA-PED,VS,M19-977-RISA-PED-USA_SITE02-0016,17,BMI,BMI,,,26.9,26.9,kg/m2,,,,Y,3.0,WEEK 4,TREATMENT,2024-04-01,30,,,,,
M19-977-RISA-PED,VS,M19-977-RISA-PED-USA_SITE02-0016,18,DIABP,Diastolic Blood Pressure,70.7,mmHg,70.7,70.7,mmHg,,,,,3.0,WEEK 4,TREATMENT,2024-04-01,30,,,,,
M19-977-RISA-PED,VS,M19-977-RISA-PED-USA_SITE02-0016,19,HEIGHT,Height,172.2,cm,172.2,172.2,cm,,,,,3.0,WEEK 4,TREATMENT,2024-04-01,30,,,,,
M19-977-RISA-PED,VS,M19-977-RISA-PED-USA_SITE02-0016,20,PULSE,Pulse Rate,78.1,beats/min,78.1,78.1,beats/min,,,,,3.0,WEEK 4,TREATMENT,2024-04-01,30,,,,,
M19-977-RISA-PED,VS,M19-977-RISA-PED-USA_SITE02-0016,21,RESP,Respiratory Rate,14.1,breaths/min,14.1,14.1,breaths/min,,,,,3.0,WEEK 4,TREATMENT,2024-04-01,30,,,,,
M19-977-RISA-PED,VS,M19-977-RISA-PED-USA_SITE02-0016,22,SYSBP,Systolic Blood Pressure,85.6,mmHg,85.6,85.6,mmHg,,,,,3.0,WEEK 4,TREATMENT,2024-04-01,30,,,,,
M19-977-RISA-PED,VS,M19-977-RISA-PED-USA_SITE02-0016,23,TEMP,Temperature,36.6,C,36.6,36.6,C,,,,,3.0,WEEK 4,TREATMENT,2024-04-01,30,,,,,
M19-977-RISA-PED,VS,M19-977-RISA-PED-USA_SITE02-0016,24,WEIGHT,Weight,79.8,kg,79.8,79.8,kg,,,,,3.0,WEEK 4,TREATMENT,2024-04-01,30,,,,,
M19-977-RISA-PED,VS,M19-977-RISA-PED-USA_SITE02-0016,25,BMI,BMI,,,26.8,26.8,kg/m2,,,,Y,4.0,WEEK 8,TREATMENT,2024-04-30,59,,,,,
M19-977-RISA-PED,VS,M19-977-RISA-PED-USA_SITE02-0016,26,DIABP,Diastolic Blood Pressure,68.8,mmHg,68.8,68.8,mmHg,,,,,4.0,WEEK 8,TREATMENT,2024-04-30,59,,,,,
M19-977-RISA-PED,VS,M19-977-RISA-PED-USA_SITE02-0016,27,HEIGHT,Height,171.7,cm,171.7,171.7,cm,,,,,4.0,WEEK 8,TREATMENT,2024-04-30,59,,,,,
M19-977-RISA-PED,VS,M19-977-RISA-PED-USA_SITE02-0016,28,PULSE,Pulse Rate,74.7,beats/min,74.7,74.7,beats/min,,,,,4.0,WEEK 8,TREATMENT,2024-04-30,59,,,,,
M19-977-RISA-PED,VS,M19-977-RISA-PED-USA_SITE02-0016,29,RESP,Respiratory Rate,12.9,breaths/min,12.9,12.9,breaths/min,,,,,4.0,WEEK 8,TREATMENT,2024-04-30,59,,,,,
M19-977-RISA-PED,VS,M19-977-RISA-PED-USA_SITE02-0016,30,SYSBP,Systolic Blood Pressure,84.2,mmHg,84.2,84.2,mmHg,,,,,4.0,WEEK 8,TREATMENT,2024-04-30,59,,,,,
M19-977-RISA-PED,VS,M19-977-RISA-PED-USA_SITE02-0016,31,TEMP,Temperature,36.6,C,36.6,36.6,C,,,,,4.0,WEEK 8,TREATMENT,2024-04-30,59,,,,,
M19-977-RISA-PED,VS,M19-977-RISA-PED-USA_SITE02-0016,32,WEIGHT,Weight,79.1,kg,79.1,79.1,kg,,,,,4.0,WEEK 8,TREATMENT,2024-04-30,59,,,,,
M19-977-RISA-PED,VS,M19-977-RISA-PED-USA_SITE02-0016,33,BMI,BMI,,,25.9,25.9,kg/m2,,,,Y,5.0,WEEK 12,TREATMENT,2024-05-27,86,,,,,
M19-977-RISA-PED,VS,M19-977-RISA-PED-USA_SITE02-0016,34,DIABP,Diastolic Blood Pressure,68.6,mmHg,68.6,68.6,mmHg,,,,,5.0,WEEK 12,TREATMENT,2024-05-27,86,,,,,
M19-977-RISA-PED,VS,M19-977-RISA-PED-USA_SITE02-0016,35,HEIGHT,Height,171.8,cm,171.8,171.8,cm,,,,,5.0,WEEK 12,TREATMENT,2024-05-27,86,,,,,
M19-977-RISA-PED,VS,M19-977-RISA-PED-USA_SITE02-0016,36,PULSE,Pulse Rate,70.1,beats/min,70.1,70.1,beats/min,,,,,5.0,WEEK 12,TREATMENT,2024-05-27,86,,,,,
M19-977-RISA-PED,VS,M19-977-RISA-PED-USA_SITE02-0016,37,RESP,Respiratory Rate,15.1,breaths/min,15.1,15.1,breaths/min,,,,,5.0,WEEK 12,TREATMENT,2024-05-27,86,,,,,
M19-977-RISA-PED,VS,M19-977-RISA-PED-USA_SITE02-0016,38,SYSBP,Systolic Blood Pressure,83.8,mmHg,83.8,83.8,mmHg,,,,,5.0,WEEK 12,TREATMENT,2024-05-27,86,,,,,
M19-977-RISA-PED,VS,M19-977-RISA-PED-USA_SITE02-0016,39,TEMP,Temperature,36.2,C,36.2,36.2,C,,,,,5.0,WEEK 12,TREATMENT,2024-05-27,86,,,,,
M19-977-RISA-PED,VS,M19-977-RISA-PED-USA_SITE02-0016,40,WEIGHT,Weight,76.4,kg,76.4,76.4,kg,,,,,5.0,WEEK 12,TREATMENT,2024-05-27,86,,,,,
M19-977-RISA-PED,VS,M19-977-RISA-PED-USA_SITE02-0016,41,BMI,BMI,,,26.3,26.3,kg/m2,,,,Y,7.0,WEEK 24,TREATMENT,2024-08-22,173,,,,,
M19-977-RISA-PED,VS,M19-977-RISA-PED-USA_SITE02-0016,42,DIABP,Diastolic Blood Pressure,69.5,mmHg,69.5,69.5,mmHg,,,,,7.0,WEEK 24,TREATMENT,2024-08-22,173,,,,,
M19-977-RISA-PED,VS,M19-977-RISA-PED-USA_SITE02-0016,43,HEIGHT,Height,171.9,cm,171.9,171.9,cm,,,,,7.0,WEEK 24,TREATMENT,2024-08-22,173,,,,,
M19-977-RISA-PED,VS,M19-977-RISA-PED-USA_SITE02-0016,44,PULSE,Pulse Rate,72.4,beats/min,72.4,72.4,beats/min,,,,,7.0,WEEK 24,TREATMENT,2024-08-22,173,,,,,
M19-977-RISA-PED,VS,M19-977-RISA-PED-USA_SITE02-0016,45,RESP,Respiratory Rate,14.4,breaths/min,14.4,14.4,breaths/min,,,,,7.0,WEEK 24,TREATMENT,2024-08-22,173,,,,,
M19-977-RISA-PED,VS,M19-977-RISA-PED-USA_SITE02-0016,46,SYSBP,Systolic Blood Pressure,83.7,mmHg,83.7,83.7,mmHg,,,,,7.0,WEEK 24,TREATMENT,2024-08-22,173,,,,,
M19-977-RISA-PED,VS,M19-977-RISA-PED-USA_SITE02-0016,47,TEMP,Temperature,36.5,C,36.5,36.5,C,,,,,7.0,WEEK 24,TREATMENT,2024-08-22,173,,,,,
M19-977-RISA-PED,VS,M19-977-RISA-PED-USA_SITE02-0016,48,WEIGHT,Weight,77.7,kg,77.7,77.7,kg,,,,,7.0,WEEK 24,TREATMENT,2024-08-22,173,,,,,
M19-977-RISA-PED,VS,M19-977-RISA-PED-USA_SITE02-0016,49,BMI,BMI,,,26.5,26.5,kg/m2,,,,Y,9.0,WEEK 40 EOT,TREATMENT,2024-12-05,278,,,,,
M19-977-RISA-PED,VS,M19-977-RISA-PED-USA_SITE02-0016,50,DIABP,Diastolic Blood Pressure,70.5,mmHg,70.5,70.5,mmHg,,,,,9.0,WEEK 40 EOT,TREATMENT,2024-12-05,278,,,,,
M19-977-RISA-PED,VS,M19-977-RISA-PED-USA_SITE02-0016,51,HEIGHT,Height,171.6,cm,171.6,171.6,cm,,,,,9.0,WEEK 40 EOT,TREATMENT,2024-12-05,278,,,,,
M19-977-RISA-PED,VS,M19-977-RISA-PED-USA_SITE02-0016,52,PULSE,Pulse Rate,72.8,beats/min,72.8,72.8,beats/min,,,,,9.0,WEEK 40 EOT,TREATMENT,2024-12-05,278,,,,,
M19-977-RISA-PED,VS,M19-977-RISA-PED-USA_SITE02-0016,53,RESP,Respiratory Rate,14.1,breaths/min,14.1,14.1,breaths/min,,,,,9.0,WEEK 40 EOT,TREATMENT,2024-12-05,278,,,,,
M19-977-RISA-PED,VS,M19-977-RISA-PED-USA_SITE02-0016,54,SYSBP,Systolic Blood Pressure,84.3,mmHg,84.3,84.3,mmHg,,,,,9.0,WEEK 40 EOT,TREATMENT,2024-12-05,278,,,,,
M19-977-RISA-PED,VS,M19-977-RISA-PED-USA_SITE02-0016,55,TEMP,Temperature,36.4,C,36.4,36.4,C,,,,,9.0,WEEK 40 EOT,TREATMENT,2024-12-05,278,,,,,
M19-977-RISA-PED,VS,M19-977-RISA-PED-USA_SITE02-0016,56,WEIGHT,Weight,78.0,kg,78.0,78.0,kg,,,,,9.0,WEEK 40 EOT,TREATMENT,2024-12-05,278,,,,,
M19-977-RISA-PED,VS,M19-977-RISA-PED-USA_SITE02-0016,57,BMI,BMI,,,26.4,26.4,kg/m2,,,,Y,10.0,WEEK 60 FU,FOLLOW-UP,2025-05-01,425,,,,,
M19-977-RISA-PED,VS,M19-977-RISA-PED-USA_SITE02-0016,58,DIABP,Diastolic Blood Pressure,71.3,mmHg,71.3,71.3,mmHg,,,,,10.0,WEEK 60 FU,FOLLOW-UP,2025-05-01,425,,,,,
M19-977-RISA-PED,VS,M19-977-RISA-PED-USA_SITE02-0016,59,HEIGHT,Height,171.8,cm,171.8,171.8,cm,,,,,10.0,WEEK 60 FU,FOLLOW-UP,2025-05-01,425,,,,,
M19-977-RISA-PED,VS,M19-977-RISA-PED-USA_SITE02-0016,60,PULSE,Pulse Rate,69.0,beats/min,69.0,69.0,beats/min,,,,,10.0,WEEK 60 FU,FOLLOW-UP,2025-05-01,425,,,,,
M19-977-RISA-PED,VS,M19-977-RISA-PED-USA_SITE02-0016,61,RESP,Respiratory Rate,13.5,breaths/min,13.5,13.5,breaths/min,,,,,10.0,WEEK 60 FU,FOLLOW-UP,2025-05-01,425,,,,,
M19-977-RISA-PED,VS,M19-977-RISA-PED-USA_SITE02-0016,62,SYSBP,Systolic Blood Pressure,87.5,mmHg,87.5,87.5,mmHg,,,,,10.0,WEEK 60 FU,FOLLOW-UP,2025-05-01,425,,,,,
M19-977-RISA-PED,VS,M19-977-RISA-PED-USA_SITE02-0016,63,TEMP,Temperature,36.3,C,36.3,36.3,C,,,,,10.0,WEEK 60 FU,FOLLOW-UP,2025-05-01,425,,,,,
M19-977-RISA-PED,VS,M19-977-RISA-PED-USA_SITE02-0016,64,WEIGHT,Weight,77.8,kg,77.8,77.8,kg,,,,,10.0,WEEK 60 FU,FOLLOW-UP,2025-05-01,425,,,,,
