STUDYID,DOMAIN,USUBJID,IESEQ,IETESTCD,IETEST,IECAT,IEORRES,IESTRESC,VISITNUM,VISIT,EPOCH,IEDTC,IEDY
021IGAN17001,IE,021IGAN17001-ESP_SITE01-0003,1,EXCL04,Subject has uncontrolled concurrent illness,EXCLUSION,Y,Y,1.0,SCREENING,SCREENING,2024-02-09,
021IGAN17001,IE,021IGAN17001-GBR_SITE01-0011,1,INCL04,Subject has adequate organ function based on screening labs,INCLUSION,N,N,1.0,SCREENING,SCREENING,2024-03-09,
021IGAN17001,IE,021IGAN17001-GBR_SITE01-0017,1,EXCL04,Subject has uncontrolled concurrent illness,EXCLUSION,Y,Y,1.0,SCREENING,SCREENING,2024-03-23,
021IGAN17001,IE,021IGAN17001-USA_SITE01-0012,1,EXCL02,Subject is pregnant or breastfeeding,EXCLUSION,Y,Y,1.0,SCREENING,SCREENING,2024-03-17,
021IGAN17001,IE,021IGAN17001-USA_SITE02-0004,1,EXCL05,Subject has participated in another clinical trial within 30 days,EXCLUSION,Y,Y,1.0,SCREENING,SCREENING,2024-02-23,
