STUDYID,DOMAIN,USUBJID,SCSEQ,SCTESTCD,SCTEST,SCCAT,SCORRES,SCSTRESC,SCSTRESN,SCSTRESU,SCDTC,SCDY
021IGAN17001,SC,021IGAN17001-CAN_SITE01-0008,1,ALCUSE,Alcohol Use,LIFESTYLE,NON-DRINKER,NON-DRINKER,,,2024-04-05,-35
021IGAN17001,SC,021IGAN17001-CAN_SITE01-0008,2,BMI,Body Mass Index,PHYSICAL CHARACTERISTIC,14.9,14.9,14.9,kg/m2,2024-04-05,-35
021IGAN17001,SC,021IGAN17001-CAN_SITE01-0008,3,DURDIS,Duration of Disease,DISEASE HISTORY,219 months,219,219.0,MONTHS,2024-04-05,-35
021IGAN17001,SC,021IGAN17001-CAN_SITE01-0008,4,TOBUSE,Tobacco Use,LIFESTYLE,NEVER SMOKED,NEVER SMOKED,,,2024-04-05,-35
021IGAN17001,SC,021IGAN17001-CAN_SITE01-0010,1,ALCUSE,Alcohol Use,LIFESTYLE,CURRENT DRINKER,CURRENT DRINKER,,,2024-01-17,-23
021IGAN17001,SC,021IGAN17001-CAN_SITE01-0010,2,BMI,Body Mass Index,PHYSICAL CHARACTERISTIC,23.0,23.0,23.0,kg/m2,2024-01-17,-23
021IGAN17001,SC,021IGAN17001-CAN_SITE01-0010,3,DURDIS,Duration of Disease,DISEASE HISTORY,146 months,146,146.0,MONTHS,2024-01-17,-23
021IGAN17001,SC,021IGAN17001-CAN_SITE01-0010,4,TOBPKYR,Tobacco Pack-Years,LIFESTYLE,36,36,36.0,PACK-YEARS,2024-01-17,-23
021IGAN17001,SC,021IGAN17001-CAN_SITE01-0010,5,TOBUSE,Tobacco Use,LIFESTYLE,FORMER SMOKER,FORMER SMOKER,,,2024-01-17,-23
021IGAN17001,SC,021IGAN17001-CAN_SITE01-0018,1,ALCUSE,Alcohol Use,LIFESTYLE,NON-DRINKER,NON-DRINKER,,,2024-04-11,-28
021IGAN17001,SC,021IGAN17001-CAN_SITE01-0018,2,BMI,Body Mass Index,PHYSICAL CHARACTERISTIC,31.5,31.5,31.5,kg/m2,2024-04-11,-28
021IGAN17001,SC,021IGAN17001-CAN_SITE01-0018,3,DURDIS,Duration of Disease,DISEASE HISTORY,121 months,121,121.0,MONTHS,2024-04-11,-28
021IGAN17001,SC,021IGAN17001-CAN_SITE01-0018,4,TOBPKYR,Tobacco Pack-Years,LIFESTYLE,31,31,31.0,PACK-YEARS,2024-04-11,-28
021IGAN17001,SC,021IGAN17001-CAN_SITE01-0018,5,TOBUSE,Tobacco Use,LIFESTYLE,FORMER SMOKER,FORMER SMOKER,,,2024-04-11,-28
021IGAN17001,SC,021IGAN17001-CHN_SITE02-0002,1,ALCUSE,Alcohol Use,LIFESTYLE,NON-DRINKER,NON-DRINKER,,,2024-02-08,-18
021IGAN17001,SC,021IGAN17001-CHN_SITE02-0002,2,BMI,Body Mass Index,PHYSICAL CHARACTERISTIC,28.8,28.8,28.8,kg/m2,2024-02-08,-18
021IGAN17001,SC,021IGAN17001-CHN_SITE02-0002,3,DURDIS,Duration of Disease,DISEASE HISTORY,206 months,206,206.0,MONTHS,2024-02-08,-18
021IGAN17001,SC,021IGAN17001-CHN_SITE02-0002,4,TOBUSE,Tobacco Use,LIFESTYLE,NEVER SMOKED,NEVER SMOKED,,,2024-02-08,-18
021IGAN17001,SC,021IGAN17001-GBR_SITE01-0006,1,ALCUSE,Alcohol Use,LIFESTYLE,NON-DRINKER,NON-DRINKER,,,2024-02-17,-9
021IGAN17001,SC,021IGAN17001-GBR_SITE01-0006,2,BMI,Body Mass Index,PHYSICAL CHARACTERISTIC,16.3,16.3,16.3,kg/m2,2024-02-17,-9
021IGAN17001,SC,021IGAN17001-GBR_SITE01-0006,3,DURDIS,Duration of Disease,DISEASE HISTORY,243 months,243,243.0,MONTHS,2024-02-17,-9
021IGAN17001,SC,021IGAN17001-GBR_SITE01-0006,4,TOBUSE,Tobacco Use,LIFESTYLE,NEVER SMOKED,NEVER SMOKED,,,2024-02-17,-9
021IGAN17001,SC,021IGAN17001-ITA_SITE01-0013,1,ALCUSE,Alcohol Use,LIFESTYLE,CURRENT DRINKER,CURRENT DRINKER,,,2024-02-24,-27
021IGAN17001,SC,021IGAN17001-ITA_SITE01-0013,2,BMI,Body Mass Index,PHYSICAL CHARACTERISTIC,23.9,23.9,23.9,kg/m2,2024-02-24,-27
021IGAN17001,SC,021IGAN17001-ITA_SITE01-0013,3,DURDIS,Duration of Disease,DISEASE HISTORY,206 months,206,206.0,MONTHS,2024-02-24,-27
021IGAN17001,SC,021IGAN17001-ITA_SITE01-0013,4,TOBPKYR,Tobacco Pack-Years,LIFESTYLE,7,7,7.0,PACK-YEARS,2024-02-24,-27
021IGAN17001,SC,021IGAN17001-ITA_SITE01-0013,5,TOBUSE,Tobacco Use,LIFESTYLE,CURRENT SMOKER,CURRENT SMOKER,,,2024-02-24,-27
021IGAN17001,SC,021IGAN17001-ITA_SITE01-0016,1,ALCUSE,Alcohol Use,LIFESTYLE,NON-DRINKER,NON-DRINKER,,,2024-03-30,-12
021IGAN17001,SC,021IGAN17001-ITA_SITE01-0016,2,BMI,Body Mass Index,PHYSICAL CHARACTERISTIC,23.8,23.8,23.8,kg/m2,2024-03-30,-12
021IGAN17001,SC,021IGAN17001-ITA_SITE01-0016,3,DURDIS,Duration of Disease,DISEASE HISTORY,231 months,231,231.0,MONTHS,2024-03-30,-12
021IGAN17001,SC,021IGAN17001-ITA_SITE01-0016,4,TOBUSE,Tobacco Use,LIFESTYLE,NEVER SMOKED,NEVER SMOKED,,,2024-03-30,-12
021IGAN17001,SC,021IGAN17001-ITA_SITE01-0020,1,ALCUSE,Alcohol Use,LIFESTYLE,NON-DRINKER,NON-DRINKER,,,2024-02-29,-27
021IGAN17001,SC,021IGAN17001-ITA_SITE01-0020,2,BMI,Body Mass Index,PHYSICAL CHARACTERISTIC,27.0,27.0,27.0,kg/m2,2024-02-29,-27
021IGAN17001,SC,021IGAN17001-ITA_SITE01-0020,3,DURDIS,Duration of Disease,DISEASE HISTORY,73 months,73,73.0,MONTHS,2024-02-29,-27
021IGAN17001,SC,021IGAN17001-ITA_SITE01-0020,4,TOBPKYR,Tobacco Pack-Years,LIFESTYLE,30,30,30.0,PACK-YEARS,2024-02-29,-27
021IGAN17001,SC,021IGAN17001-ITA_SITE01-0020,5,TOBUSE,Tobacco Use,LIFESTYLE,FORMER SMOKER,FORMER SMOKER,,,2024-02-29,-27
021IGAN17001,SC,021IGAN17001-JPN_SITE01-0015,1,ALCUSE,Alcohol Use,LIFESTYLE,HEAVY DRINKER,HEAVY DRINKER,,,2024-03-16,-35
021IGAN17001,SC,021IGAN17001-JPN_SITE01-0015,2,BMI,Body Mass Index,PHYSICAL CHARACTERISTIC,27.5,27.5,27.5,kg/m2,2024-03-16,-35
021IGAN17001,SC,021IGAN17001-JPN_SITE01-0015,3,DURDIS,Duration of Disease,DISEASE HISTORY,73 months,73,73.0,MONTHS,2024-03-16,-35
021IGAN17001,SC,021IGAN17001-JPN_SITE01-0015,4,TOBPKYR,Tobacco Pack-Years,LIFESTYLE,9,9,9.0,PACK-YEARS,2024-03-16,-35
021IGAN17001,SC,021IGAN17001-JPN_SITE01-0015,5,TOBUSE,Tobacco Use,LIFESTYLE,CURRENT SMOKER,CURRENT SMOKER,,,2024-03-16,-35
021IGAN17001,SC,021IGAN17001-JPN_SITE02-0019,1,ALCUSE,Alcohol Use,LIFESTYLE,CURRENT DRINKER,CURRENT DRINKER,,,2024-04-05,-14
021IGAN17001,SC,021IGAN17001-JPN_SITE02-0019,2,BMI,Body Mass Index,PHYSICAL CHARACTERISTIC,26.7,26.7,26.7,kg/m2,2024-04-05,-14
021IGAN17001,SC,021IGAN17001-JPN_SITE02-0019,3,DURDIS,Duration of Disease,DISEASE HISTORY,182 months,182,182.0,MONTHS,2024-04-05,-14
021IGAN17001,SC,021IGAN17001-JPN_SITE02-0019,4,TOBUSE,Tobacco Use,LIFESTYLE,NEVER SMOKED,NEVER SMOKED,,,2024-04-05,-14
021IGAN17001,SC,021IGAN17001-KOR_SITE01-0005,1,ALCUSE,Alcohol Use,LIFESTYLE,CURRENT DRINKER,CURRENT DRINKER,,,2024-02-07,-24
021IGAN17001,SC,021IGAN17001-KOR_SITE01-0005,2,BMI,Body Mass Index,PHYSICAL CHARACTERISTIC,28.6,28.6,28.6,kg/m2,2024-02-07,-24
021IGAN17001,SC,021IGAN17001-KOR_SITE01-0005,3,DURDIS,Duration of Disease,DISEASE HISTORY,182 months,182,182.0,MONTHS,2024-02-07,-24
021IGAN17001,SC,021IGAN17001-KOR_SITE01-0005,4,TOBPKYR,Tobacco Pack-Years,LIFESTYLE,34,34,34.0,PACK-YEARS,2024-02-07,-24
021IGAN17001,SC,021IGAN17001-KOR_SITE01-0005,5,TOBUSE,Tobacco Use,LIFESTYLE,CURRENT SMOKER,CURRENT SMOKER,,,2024-02-07,-24
021IGAN17001,SC,021IGAN17001-KOR_SITE01-0007,1,ALCUSE,Alcohol Use,LIFESTYLE,CURRENT DRINKER,CURRENT DRINKER,,,2024-02-24,-35
021IGAN17001,SC,021IGAN17001-KOR_SITE01-0007,2,BMI,Body Mass Index,PHYSICAL CHARACTERISTIC,17.2,17.2,17.2,kg/m2,2024-02-24,-35
021IGAN17001,SC,021IGAN17001-KOR_SITE01-0007,3,DURDIS,Duration of Disease,DISEASE HISTORY,182 months,182,182.0,MONTHS,2024-02-24,-35
021IGAN17001,SC,021IGAN17001-KOR_SITE01-0007,4,TOBUSE,Tobacco Use,LIFESTYLE,NEVER SMOKED,NEVER SMOKED,,,2024-02-24,-35
021IGAN17001,SC,021IGAN17001-USA_SITE01-0001,1,ALCUSE,Alcohol Use,LIFESTYLE,NON-DRINKER,NON-DRINKER,,,2024-02-10,-19
021IGAN17001,SC,021IGAN17001-USA_SITE01-0001,2,BMI,Body Mass Index,PHYSICAL CHARACTERISTIC,23.6,23.6,23.6,kg/m2,2024-02-10,-19
021IGAN17001,SC,021IGAN17001-USA_SITE01-0001,3,DURDIS,Duration of Disease,DISEASE HISTORY,231 months,231,231.0,MONTHS,2024-02-10,-19
021IGAN17001,SC,021IGAN17001-USA_SITE01-0001,4,TOBUSE,Tobacco Use,LIFESTYLE,NEVER SMOKED,NEVER SMOKED,,,2024-02-10,-19
021IGAN17001,SC,021IGAN17001-USA_SITE01-0009,1,ALCUSE,Alcohol Use,LIFESTYLE,NON-DRINKER,NON-DRINKER,,,2024-02-07,-21
021IGAN17001,SC,021IGAN17001-USA_SITE01-0009,2,BMI,Body Mass Index,PHYSICAL CHARACTERISTIC,19.1,19.1,19.1,kg/m2,2024-02-07,-21
021IGAN17001,SC,021IGAN17001-USA_SITE01-0009,3,DURDIS,Duration of Disease,DISEASE HISTORY,243 months,243,243.0,MONTHS,2024-02-07,-21
021IGAN17001,SC,021IGAN17001-USA_SITE01-0009,4,TOBPKYR,Tobacco Pack-Years,LIFESTYLE,17,17,17.0,PACK-YEARS,2024-02-07,-21
021IGAN17001,SC,021IGAN17001-USA_SITE01-0009,5,TOBUSE,Tobacco Use,LIFESTYLE,FORMER SMOKER,FORMER SMOKER,,,2024-02-07,-21
021IGAN17001,SC,021IGAN17001-USA_SITE02-0014,1,ALCUSE,Alcohol Use,LIFESTYLE,CURRENT DRINKER,CURRENT DRINKER,,,2024-01-25,-14
021IGAN17001,SC,021IGAN17001-USA_SITE02-0014,2,BMI,Body Mass Index,PHYSICAL CHARACTERISTIC,26.4,26.4,26.4,kg/m2,2024-01-25,-14
021IGAN17001,SC,021IGAN17001-USA_SITE02-0014,3,DURDIS,Duration of Disease,DISEASE HISTORY,109 months,109,109.0,MONTHS,2024-01-25,-14
021IGAN17001,SC,021IGAN17001-USA_SITE02-0014,4,TOBPKYR,Tobacco Pack-Years,LIFESTYLE,24,24,24.0,PACK-YEARS,2024-01-25,-14
021IGAN17001,SC,021IGAN17001-USA_SITE02-0014,5,TOBUSE,Tobacco Use,LIFESTYLE,FORMER SMOKER,FORMER SMOKER,,,2024-01-25,-14
