STUDYID,DOMAIN,USUBJID,SPDEVID,CVSEQ,CVGRPID,CVREFID,CVSPID,CVLNKID,CVLNKGRP,CVTESTCD,CVTEST,CVCAT,CVSCAT,CVPOS,CVORRES,CVORRESU,CVSTRESC,CVSTRESN,CVSTRESU,CVSTAT,CVREASND,CVLOC,CVLAT,CVDIR,CVMETHOD,CVLOBXFL,CVBLFL,CVDRVFL,CVEVAL,CVEVALID,CVTOX,CVTOXGR,VISITNUM,VISIT,VISITDY,TAETORD,EPOCH,CVDTC,CVDY,CVTPT,CVTPTNUM,CVELTM,CVTPTREF,CVRFTDTC,CVSTINT,CVENINT
CL01,CV,SD-001,DEV-001,1,CV-G1,CV-B-01,CV-SP1,CV-L001,LNK-G001,MNDIAEVS,"Minor Axis Cross-sec Diameter, EVS ","VALVULAR STRUCTURE, COMMON",Measurement,SITTING,2.18,cm,2.18,2.18,cm,,,ARM,LEFT,LOWER,,,Y,,CAREGIVER,CERTIFIED ASSESSOR 1,HYPERCALCEMIA,2,4,FOLLOW-UP,33,4,FOLLOW-UP,2025-03-05,33,FOLLOW-UP,4,P36D,PREVIOUS DOSE,2025-03-05,P36D,P36D
CL01,CV,SD-002,DEV-002,1,CV-G2,CV-A-02,CV-SP2,CV-L002,LNK-G001,MNDIAEVS,"Minor Axis Cross-sec Diameter, EVS ","VALVULAR STRUCTURE, COMMON",Measurement,SITTING,2.48,cm,2.48,2.48,cm,,,ARM,RIGHT,LOWER,,,Y,,CAREGIVER,CERTIFIED ASSESSOR 1,,,4,FOLLOW-UP,33,4,FOLLOW-UP,2025-03-05,33,FOLLOW-UP,4,P36D,PREVIOUS DOSE,2025-03-05,P36D,P36D
CL01,CV,SD-003,DEV-003,1,CV-G3,CV-P-03,CV-SP3,CV-L003,LNK-G001,MNDIAEVD,"Minor Axis Cross-sec Diameter, EVD","VALVULAR STRUCTURE, COMMON",Measurement,STANDING,1.92,cm,1.92,1.92,cm,,,ARM,LEFT,LOWER,,,Y,,CAREGIVER,CERTIFIED ASSESSOR 1,,,4,FOLLOW-UP,33,4,FOLLOW-UP,2025-03-05,33,FOLLOW-UP,4,P36D,PREVIOUS DOSE,2025-03-05,P36D,P36D
CL01,CV,SD-004,DEV-004,1,CV-G4,CV-B-04,CV-SP4,CV-L004,LNK-G001,MNDIAEVD,"Minor Axis Cross-sec Diameter, EVD","VALVULAR STRUCTURE, COMMON",Measurement,STANDING,2.58,cm,2.58,2.58,cm,,,ARM,LEFT,LOWER,,,Y,,CAREGIVER,CERTIFIED ASSESSOR 1,HYPERCALCEMIA,1,4,FOLLOW-UP,33,4,FOLLOW-UP,2025-03-05,33,FOLLOW-UP,4,P36D,PREVIOUS DOSE,2025-03-05,P36D,P36D
CL01,CV,SD-005,DEV-005,1,CV-G5,CV-A-05,CV-SP5,CV-L005,LNK-G001,MNDIAEVS,"Minor Axis Cross-sec Diameter, EVS ","VALVULAR STRUCTURE, COMMON",Measurement,SITTING,2.11,cm,2.11,2.11,cm,,,ARM,LEFT,LOWER,,,Y,,CAREGIVER,CERTIFIED ASSESSOR 1,,,4,FOLLOW-UP,33,4,FOLLOW-UP,2025-03-05,33,FOLLOW-UP,4,P36D,PREVIOUS DOSE,2025-03-05,P36D,P36D
CL01,CV,SD-006,DEV-006,1,CV-G6,CV-B-06,CV-SP6,CV-L006,LNK-G001,MNDIAEVS,"Minor Axis Cross-sec Diameter, EVS ","VALVULAR STRUCTURE, COMMON",Measurement,SITTING,2.39,cm,2.39,2.39,cm,,,ARM,RIGHT,UPPER,,,Y,,CAREGIVER,CERTIFIED ASSESSOR 1,HYPERCALCEMIA,5,4,FOLLOW-UP,33,4,FOLLOW-UP,2025-03-05,33,FOLLOW-UP,4,P36D,PREVIOUS MEAL,2025-03-05,P36D,P36D
CL01,CV,SD-007,DEV-007,1,CV-G7,CV-P-07,CV-SP7,CV-L007,LNK-G001,MNDIAEVD,"Minor Axis Cross-sec Diameter, EVD","VALVULAR STRUCTURE, COMMON",Measurement,STANDING,1.92,cm,1.92,1.92,cm,,,ARM,RIGHT,UPPER,CLOT DETECTION,Y,Y,,CAREGIVER,CERTIFIED ASSESSOR 1,,,4,FOLLOW-UP,33,4,FOLLOW-UP,2025-03-05,33,FOLLOW-UP,4,P36D,PREVIOUS MEAL,2025-03-05,P36D,P36D
CL01,CV,SD-008,DEV-008,1,CV-G8,CV-A-08,CV-SP8,CV-L008,LNK-G001,MNDIAEVD,"Minor Axis Cross-sec Diameter, EVD","VALVULAR STRUCTURE, COMMON",Measurement,STANDING,2.58,cm,2.58,2.58,cm,,,ARM,LEFT,UPPER,,,Y,,CAREGIVER,CERTIFIED ASSESSOR 1,HYPERCALCEMIA,3,4,FOLLOW-UP,33,4,FOLLOW-UP,2025-03-05,33,FOLLOW-UP,4,P36D,PREVIOUS MEAL,2025-03-05,P36D,P36D
CL01,CV,SD-010,DEV-010,1,CV-G10,CV-B-10,CV-SP10,CV-L010,LNK-G001,MNDIAEVD,"Minor Axis Cross-sec Diameter, EVD","VALVULAR STRUCTURE, COMMON",Measurement,STANDING,,,1.92,1.92,cm,,,ARM,LEFT,UPPER,,,Y,Y,CAREGIVER,CERTIFIED ASSESSOR 1,,,3,TREATMENT,19,3,TREATMENT,2025-02-19,19,TREATMENT,3,P36D,PREVIOUS MEAL,2025-02-19,P36D,P36D