STUDYID,DOMAIN,USUBJID,LBSEQ,LBGRPID,LBREFID,LBSPID,LBTESTCD,LBTEST,LBTSTCND,LBBDAGNT,LBTSTOPO,LBCAT,LBSCAT,LBORRES,LBORRESU,LBRESSCL,LBRESTYP,LBCOLSRT,LBORNRLO,LBORNRHI,LBLLOD,LBSTRESC,LBSTRESN,LBSTRESU,LBSTNRLO,LBSTNRHI,LBSTNRC,LBNRIND,LBSTAT,LBREASND,LBNAM,LBLOINC,LBSPEC,LBSPCCND,LBSPCUFL,LBMETHOD,LBANMETH,LBTMTHSN,LBLOBXFL,LBBLFL,LBFAST,LBDRVFL,LBTOX,LBTOXGR,LBCLSIG,VISITNUM,VISIT,VISITDY,TAETORD,EPOCH,LBDTC,LBENDTC,LBDY,LBENDY,LBTPT,LBTPTNUM,LBELTM,LBTPTREF,LBRFTDTC,LBPTFL,LBPDUR
CL01,LB,SD-001,1,LB-G1,LB-B-01,LB-SP1,ALB,Albumin,,,QUANTIFY,CHEMISTRY,,30,g/L,QUANTITATIVE,MASS CONCENTRATION,,35,50,,30,30,g/L,3.5,5,,LOW,,,ABC,2862-1,SERUM,,,ELECTROPHORESIS ,MDRD FORMULA,,Y,Y,Y,,Low,,N,4,FOLLOW-UP,4,4,FOLLOW-UP,2025-03-05,2025-08-01,33,182,FOLLOW-UP,4,P36D,PREVIOUS DOSE,2025-03-05,Y,
CL01,LB,SD-002,1,LB-G2,LB-A-02,LB-SP2,ALP,Alkaline Phosphatase,,,QUANTIFY,CHEMISTRY,,398,IU/L,QUANTITATIVE,CATALYTIC CONCENTRATION,,40,160,,398,398,IU/L,40,160,,,,,ABC,6768-6,SERUM,,,,,,Y,Y,Y,,Low,,,4,FOLLOW-UP,4,4,FOLLOW-UP,2025-03-05,2025-08-01,33,182,FOLLOW-UP,4,P36D,PREVIOUS DOSE,2025-03-05,Y,
CL01,LB,SD-003,1,LB-G3,LB-P-03,LB-SP3,ALP,Alkaline Phosphatase,,,,CHEMISTRY,,,,QUANTITATIVE,CATALYTIC CONCENTRATION,"MEAN, ARITHMETIC",,,,374,374,IU/L,,,,,,,ABC,6768-6,SERUM,,,,,HIGH SENSITIVITY ,,Y,Y,Y,,,,4,FOLLOW-UP,4,4,FOLLOW-UP,2025-03-05,2025-08-01,33,182,FOLLOW-UP,4,P36D,PREVIOUS DOSE,2025-03-05,,
CL01,LB,SD-004,1,LB-G4,LB-B-04,LB-SP4,CRYOGLBN,Cryoglobulin,1 DAY COLD INCUBATION,Binding Agenr,,CHEMISTRY,,ABSENT,,ORDINAL,PRESENCE OR THRESHOLD,,,,,ABSENT,,,,,,,,,ABC,12201-0,SERUM,,,OBSERVATION,,,Y,Y,Y,,,,,4,FOLLOW-UP,4,4,FOLLOW-UP,2025-03-05,2025-08-01,33,182,FOLLOW-UP,4,P36D,PREVIOUS DOSE,2025-03-05,Y,
CL01,LB,SD-005,1,LB-G5,LB-A-05,LB-SP5,PLATAGGR,Platelet Aggregation,1 DAY COLD INCUBATION,,,COAGULATION,,NORMAL,,ORDINAL,PRESENCE OR THRESHOLD,,,,,NORMAL,,,,,,,,,ABC,24379-0,PLATELET RICH PLASMA ,,,,,,Y,Y,Y,,,,,4,FOLLOW-UP,4,4,FOLLOW-UP,2025-03-05,2025-08-01,33,182,FOLLOW-UP,4,P36D,PREVIOUS DOSE,2025-03-05,,PT24H
CL01,LB,SD-006,1,LB-G6,LB-B-06,LB-SP6,LYMLE,Lymphocytes/Leukocytes,,,QUANTIFY,HEMATOLOGY,DIFFERENTIAL,6.7,%,QUANTITATIVE,NUMBER FRACTION,,25,40,,6.7,6.7,%,25,40,,LOW,,,ABC,736-9,BLOOD,HEMOLYZED,,AUTOMATED COUNT,,,Y,Y,Y,,,,N,4,FOLLOW-UP,4,4,FOLLOW-UP,2025-03-05,2025-08-01,33,182,FOLLOW-UP,4,P36D,PREVIOUS MEAL,2025-03-05,Y,
CL01,LB,SD-007,1,LB-G7,LB-P-07,LB-SP7,NEUT,Neutrophils,,,QUANTIFY,HEMATOLOGY,DIFFERENTIAL,5.1,10^9/L,QUANTITATIVE,NUMBER CONCENTRATION,,2,8,,5.1,5.1,10^9/L,2,8,,,,,ABC,751-8,BLOOD,HEMOLYZED,N,AUTOMATED COUNT,,,Y,Y,Y,,,,,4,FOLLOW-UP,4,4,FOLLOW-UP,2025-03-05,2025-08-01,33,182,FOLLOW-UP,4,P36D,PREVIOUS MEAL,2025-03-05,Y,
CL01,LB,SD-008,1,LB-G8,LB-A-08,LB-SP8,PSA,Prostate Specific Antigen,,,QUANTIFY,CHEMISTRY,,3.3,ug/L,QUANTITATIVE,MASS CONCENTRATION,,0,2.5,Detection,3.3,3.3,ug/L,0,2.5,,,,,ABC,35741-8,SERUM,,,,,,Y,Y,Y,,,,,4,FOLLOW-UP,4,4,FOLLOW-UP,2025-03-05,2025-08-01,33,182,FOLLOW-UP,4,P36D,PREVIOUS MEAL,2025-03-05,Y,
CL01,LB,SD-010,1,LB-G10,LB-B-10,LB-SP10,PROT,Protein,,,,URINALYSIS,,MODERATE,,ORDINAL,PRESENCE OR THRESHOLD,,,,,MODERATE,,,,,NEGATIVE to TRACE,ABNORMAL,,,ABC,20454-5,URINE,,,TEST STRIP,,,,Y,,,CTCAE,2,N,3,TREATMENT,3,2,TREATMENT,2025-02-19,2025-03-05,19,33,TREATMENT,3,P36D,PREVIOUS MEAL,2025-02-19,Y,