STUDYID,DOMAIN,USUBJID,FOCID,MBSEQ,MBGRPID,MBREFID,MBSPID,MBLNKID,MBLNKGRP,MBTESTCD,MBTEST,MBTSTDTL,MBCAT,MBSCAT,MBORRES,MBORRESU,MBSTRESC,MBSTRESN,MBSTRESU,MBRESCAT,MBSTAT,MBREASND,MBNAM,MBLOINC,MBSPEC,MBSPCCND,MBLOC,MBLAT,MBDIR,MBMETHOD,MBLOBXFL,MBBLFL,MBFAST,MBDRVFL,VISITNUM,VISIT,VISITDY,TAETORD,EPOCH,MBDTC,MBDY,MBTPT,MBTPTNUM,MBELTM,MBTPTREF,MBRFTDTC
CL01,MB,SD-001,FOC-01,1,MB-G1,MB-B-01,MB-SP1,MB-L001,LNK-G001,AAN,Acinetobacter anitratus,CELL COUNT,CELL,COUNT,30,g/L,30,30,g/L,Quantitative,,,ABC,2862-1,SERUM,,,,,ELECTROPHORESIS,Y,Y,Y,,4,FOLLOW-UP,4,4,FOLLOW-UP,2025-03-05,33,FOLLOW-UP,4,P36D,PREVIOUS DOSE,2025-03-05
CL01,MB,SD-002,,1,MB-G2,MB-A-02,MB-SP2,MB-L002,LNK-G001,AAN,Acinetobacter anitratus,CELL COUNT,CELL,COUNT,398,IU/L,398,398,IU/L,Quantitative,,,ABC,6768-6,SERUM,,,,,,Y,Y,Y,,4,FOLLOW-UP,4,4,FOLLOW-UP,2025-03-05,33,FOLLOW-UP,4,P36D,PREVIOUS DOSE,2025-03-05
CL01,MB,SD-003,,1,MB-G3,MB-P-03,MB-SP3,MB-L003,LNK-G001,AAN,Acinetobacter anitratus,CELL COUNT,CELL,COUNT,,,374,374,IU/L,Quantitative,,,ABC,6768-6,SERUM,,,,,,,Y,Y,Y,4,FOLLOW-UP,4,4,FOLLOW-UP,2025-03-05,33,FOLLOW-UP,4,P36D,PREVIOUS DOSE,2025-03-05
CL01,MB,SD-004,,1,MB-G4,MB-B-04,MB-SP4,MB-L004,LNK-G001,AAN,Acinetobacter anitratus,CELL COUNT,CELL,COUNT,ABSENT,,ABSENT,,,,,,ABC,12201-0,SERUM,,,,,OBSERVATION,Y,Y,Y,,4,FOLLOW-UP,4,4,FOLLOW-UP,2025-03-05,33,FOLLOW-UP,4,P36D,PREVIOUS DOSE,2025-03-05
CL01,MB,SD-005,,1,MB-G5,MB-A-05,MB-SP5,MB-L005,LNK-G001,AAN,Acinetobacter anitratus,CELL COUNT,CELL,COUNT,NORMAL,,NORMAL,,,,,,ABC,24379-0,PLATELET RICH PLASMA,,,,,,Y,Y,Y,,4,FOLLOW-UP,4,4,FOLLOW-UP,2025-03-05,33,FOLLOW-UP,4,P36D,PREVIOUS DOSE,2025-03-05
CL01,MB,SD-006,,1,MB-G6,MB-B-06,MB-SP6,MB-L006,LNK-G001,AAN,Acinetobacter anitratus,IDENTIFICATION,,,6.7,%,6.7,6.7,%,Quantitative,,,ABC,736-9,BLOOD,HEMOLYZED,BLOOD,LEFT,PALMAR,AUTOMATED COUNT,Y,Y,Y,,4,FOLLOW-UP,4,4,FOLLOW-UP,2025-03-05,33,FOLLOW-UP,4,P36D,PREVIOUS MEAL,2025-03-05
CL01,MB,SD-007,,1,MB-G7,MB-P-07,MB-SP7,MB-L007,LNK-G001,AAN,Acinetobacter anitratus,IDENTIFICATION,,,5.1,10^9/L,5.1,5.1,%,Quantitative,,,ABC,751-8,BLOOD,HEMOLYZED,BLOOD,LEFT,PALMAR,AUTOMATED COUNT,Y,Y,Y,,4,FOLLOW-UP,4,4,FOLLOW-UP,2025-03-05,33,FOLLOW-UP,4,P36D,PREVIOUS MEAL,2025-03-05
CL01,MB,SD-008,,1,MB-G8,MB-A-08,MB-SP8,MB-L008,LNK-G001,AAN,Acinetobacter anitratus,IDENTIFICATION,,,3.3,ug/L,3.3,3.3,%,Quantitative,,,ABC,35741-8,SERUM,,,,,,Y,Y,Y,,4,FOLLOW-UP,4,4,FOLLOW-UP,2025-03-05,33,FOLLOW-UP,4,P36D,PREVIOUS MEAL,2025-03-05
CL01,MB,SD-010,,1,MB-G10,MB-B-10,MB-SP10,MB-L010,LNK-G001,AAN,Acinetobacter anitratus,IDENTIFICATION,,,MODERATE,,MODERATE,,,,,,ABC,20454-5,URINE,,,,,TEST STRIP,,Y,,,3,TREATMENT,3,3,TREATMENT,2025-02-19,19,TREATMENT,3,P36D,PREVIOUS MEAL,2025-02-19