STUDYID,DOMAIN,USUBJID,PCSEQ,PCGRPID,PCREFID,PCSPID,PCTESTCD,PCTEST,PCCAT,PCSCAT,PCORRES,PCORRESU,PCSTRESC,PCSTRESN,PCSTRESU,PCSTAT,PCREASND,PCNAM,PCSPEC,PCSPCCND,PCMETHOD,PCFAST,PCDRVFL,PCLLOQ,PCULOQ,VISITNUM,VISIT,VISITDY,TAETORD,EPOCH,PCDTC,PCENDTC,PCDY,PCENDY,PCTPT,PCTPTNUM,PCELTM,PCTPTREF,PCRFTDTC,PCEVLINT
CL01,PC,SD-001,1,PC-G1,PC-B-01,PC-SP1,DRGA_MET,Drug A Metabolite,ANALYTE ,Analysis,<0.1,ng/mL,<0.1,,ng/mL,,,ABC,PLASMA,FROZEN,,,,0.1,20,4,FOLLOW-UP,33,4,FOLLOW-UP,2025-03-05,2025-08-01,33,182,FOLLOW-UP,4,P36D,PREVIOUS DOSE,2025-03-05,-PT2H
CL01,PC,SD-002,1,PC-G2,PC-A-02,PC-SP2,DRGA_PAR,Drug A Parent,ANALYTE ,Analysis,<0.1,ng/mL,<0.1,,ng/mL,,,ABC,PLASMA,FROZEN,,,,0.1,20,4,FOLLOW-UP,33,4,FOLLOW-UP,2025-03-05,2025-08-01,33,182,FOLLOW-UP,4,P36D,PREVIOUS DOSE,2025-03-05,-PT2H
CL01,PC,SD-003,1,PC-G3,PC-P-03,PC-SP3,DRGA_MET,Drug A Metabolite,ANALYTE ,Analysis,<2,ng/mL,<2,,ng/mL,,,ABC,URINE,,,Y,,2,500,4,FOLLOW-UP,33,4,FOLLOW-UP,2025-03-05,2025-08-01,33,182,FOLLOW-UP,4,P36D,PREVIOUS DOSE,2025-03-05,-PT2H
CL01,PC,SD-004,1,PC-G4,PC-B-04,PC-SP4,DRGA_PAR,Drug A Parent,ANALYTE ,Analysis,<2,ng/mL,<2,,ng/mL,,,ABC,URINE,,,Y,,2,500,4,FOLLOW-UP,33,4,FOLLOW-UP,2025-03-05,2025-08-01,33,182,FOLLOW-UP,4,P36D,PREVIOUS DOSE,2025-03-05,-PT2H
CL01,PC,SD-005,1,PC-G5,PC-A-05,PC-SP5,VOLUME,Volume,SPECIMEN PROPERTY,,3500,ng/mL,100,100,mL,,,ABC,URINE,,,Y,,,,4,FOLLOW-UP,33,4,FOLLOW-UP,2025-03-05,2025-08-01,33,182,FOLLOW-UP,4,P36D,PREVIOUS DOSE,2025-03-05,-PT2H
CL01,PC,SD-006,1,PC-G6,PC-B-06,PC-SP6,PH,PH,SPECIMEN PROPERTY,,,,5.5,5.5,ng/mL,,,ABC,URINE,,,Y,Y,,,4,FOLLOW-UP,33,4,FOLLOW-UP,2025-03-05,2025-08-01,33,182,FOLLOW-UP,4,P36D,PREVIOUS MEAL,2025-03-05,-PT2H
CL01,PC,SD-007,1,PC-G7,PC-P-07,PC-SP7,DRGA_MET,Drug A Metabolite,ANALYTE ,Analysis,5.4,ng/mL,5.4,5.4,ng/mL,,,ABC,PLASMA,,CLOT DETECTION,,,0.1,20,4,FOLLOW-UP,33,4,FOLLOW-UP,2025-03-05,2025-08-01,33,182,FOLLOW-UP,4,P36D,PREVIOUS MEAL,2025-03-05,-PT2H
CL01,PC,SD-008,1,PC-G8,PC-A-08,PC-SP8,DRGA_PAR,Drug A Parent,ANALYTE ,Analysis,4.74,ng/mL,4.74,4.74,ng/mL,,,ABC,PLASMA,,,,,0.1,20,4,FOLLOW-UP,33,4,FOLLOW-UP,2025-03-05,2025-08-01,33,182,FOLLOW-UP,4,P36D,PREVIOUS DOSE,2025-03-05,-PT2H
CL01,PC,SD-010,1,PC-G10,PC-B-10,PC-SP10,DRGA_MET,Drug A Metabolite,ANALYTE ,Analysis,5.44,ng/mL,5.44,5.44,ng/mL,,,ABC,PLASMA,,,,,0.1,20,3,TREATMENT,19,3,TREATMENT,2025-02-19,2025-03-05,19,33,TREATMENT,3,P36D,PREVIOUS MEAL,2025-02-19,-PT2H