STUDYID,DOMAIN,USUBJID,PPSEQ,PPGRPID,PPTESTCD,PPTEST,PPCAT,PPSCAT,PPORRES,PPORRESU,PPSTRESC,PPSTRESN,PPSTRESU,PPSTAT,PPREASND,PPSPEC,PPANMETH,TAETORD,EPOCH,PPDTC,PPDY,PPTPT,PPTPTNUM,PPELTM,PPTPTREF,PPRFTDTC,PPSTINT,PPENINT
CL01,PP,SD-001,1,PP-G1,TMAX ,Time of CMAX Observation,DRUG A PARENT,PARENT,1.87,h,1.87,1.87,h,,,PLASMA,,4,FOLLOW-UP,2025-03-05,33,FOLLOW-UP,4,P36D,PREVIOUS DOSE,2025-03-05,PT2H,PT4H
CL01,PP,SD-002,1,PP-G2,CMAX,Max Conc,DRUG A PARENT,,44.5,ug/L,44.5,44.5,ug/L,,,PLASMA,,4,FOLLOW-UP,2025-03-05,33,FOLLOW-UP,4,P36D,PREVIOUS DOSE,2025-03-05,PT2H,PT4H
CL01,PP,SD-003,1,PP-G3,TMAX ,Time of CMAX Observation,DRUG A METABOLITE,METABOLITE,0.94,h,0.94,0.94,h,,,PLASMA,,4,FOLLOW-UP,2025-03-05,33,FOLLOW-UP,4,P36D,PREVIOUS DOSE,2025-03-05,PT2H,PT4H
CL01,PP,SD-004,1,PP-G4,CMAX,Max Conc,DRUG A METABOLITE,,22.27,ug/L,22.27,22.27,ug/L,,,PLASMA,,4,FOLLOW-UP,2025-03-05,33,FOLLOW-UP,4,P36D,PREVIOUS DOSE,2025-03-05,PT2H,PT4H
CL01,PP,SD-005,1,PP-G5,TMAX ,Time of CMAX Observation,DRUG A PARENT,,1.91,h,1.91,1.91,h,,,PLASMA,,4,FOLLOW-UP,2025-03-05,33,FOLLOW-UP,4,P36D,PREVIOUS DOSE,2025-03-05,PT2H,PT4H
CL01,PP,SD-006,1,PP-G6,CMAX,Max Conc,DRUG A PARENT,,46,ug/L,46,46,ug/L,,,PLASMA,,4,FOLLOW-UP,2025-03-05,33,FOLLOW-UP,4,P36D,PREVIOUS MEAL,2025-03-05,PT2H,PT4H
CL01,PP,SD-007,1,PP-G7,TMAX ,Time of CMAX Observation,DRUG A METABOLITE,,0.96,h,0.96,0.96,h,,,PLASMA,,4,FOLLOW-UP,2025-03-05,33,FOLLOW-UP,4,P36D,PREVIOUS MEAL,2025-03-05,PT2H,PT4H
CL01,PP,SD-008,1,PP-G8,CMAX,Max Conc,DRUG A METABOLITE,,23,ug/L,23,23,ug/L,,,PLASMA,,4,FOLLOW-UP,2025-03-05,33,FOLLOW-UP,4,P36D,PREVIOUS MEAL,2025-03-05,PT2H,PT4H
CL01,PP,SD-010,1,PP-G10,AUCALL,AUC All,DRUG A PARENT,,294.7,h*mg/L,294.7,294.7,h*mg/L,,,PLASMA,LINEAR TRAPEZOIDAL METHOD,4,FOLLOW-UP,2025-02-19,19,FOLLOW-UP,4,P36D,PREVIOUS MEAL,2025-02-19,PT2H,PT4H